onset	duration	block	trial	task	crit	disc	mem_disc	per_disc	trial_type	mem_type	per_type	left_option	resp_hand	response	accuracy	response_time	stim_file	pay	pay_tot
7.2	7.2	1	n/a	per	con	low	n/a	n/a	instructions	n/a	n/a	n/a	n/a	n/a	n/a	n/a	n/a	n/a	n/a
15.44	2.56	1	1	per	con	low	low	low	tg	nt	tg	tg	n/a	n/a	n/a	n/a	wh/0161.bmp	0	0
18.32	1.5268	1	2	per	con	low	low	low	tg	tg	tg	tg	right	nt	ms	1.1268	wh/0054.bmp	0	0
21.92	1.518	1	3	per	con	low	low	low	nt	tg	nt	nt	left	nt	cr	1.118	nh/0456_nh.bmp	0.05	0.05
24.8	1.15075	1	4	per	con	low	low	low	tg	nt	tg	nt	left	nt	ms	0.75075	wh/0167.bmp	0	0.05
28.4	1.9948	1	5	per	con	low	low	low	nt	tg	nt	tg	left	tg	fa	1.5948	nh/1001_nh.bmp	-0.1	-0.05
31.28	1.837	1	6	per	con	low	low	low	tg	nt	tg	nt	right	tg	ht	1.437	wh/0010.bmp	0.05	0
35.6	1.4187	1	7	per	con	low	low	low	tg	tg	tg	tg	left	tg	ht	1.0187	wh/0685.bmp	0.05	0.05
39.2	1.04922	1	8	per	con	low	low	low	nt	nt	nt	tg	right	nt	cr	0.64922	nh/0327_nh.bmp	0.05	0.1
42.08	1.5828	1	9	per	con	low	low	low	nt	nt	nt	tg	right	nt	cr	1.1828	nh/0110_nh.bmp	0.05	0.15
46.4	1.19099	1	10	per	con	low	low	low	tg	nt	tg	nt	left	nt	ms	0.79099	wh/0369.bmp	0	0.15
49.28	1.562	1	11	per	con	low	low	low	tg	tg	tg	tg	right	nt	ms	1.162	wh/0362.bmp	0	0.15
53.6	1.2669	1	12	per	con	low	low	low	nt	tg	nt	nt	right	tg	fa	0.8669	nh/0522_nh.bmp	-0.1	0.05
56.48	1.6609	1	13	per	con	low	low	low	tg	tg	tg	tg	left	tg	ht	1.2609	wh/0140.bmp	0.05	0.1
60.8	1.8318	1	14	per	con	low	low	low	nt	nt	nt	tg	right	nt	cr	1.4318	nh/0335_nh.bmp	0.05	0.15
63.68	1.38977	1	15	per	con	low	low	low	nt	nt	nt	nt	left	nt	cr	0.98977	nh/0783_nh.bmp	0.05	0.2
66.56	2.1778	1	16	per	con	low	low	low	nt	tg	nt	tg	right	nt	cr	1.7778	nh/0354_nh.bmp	0.05	0.25
69.84	3.6	1	n/a	per	con	low	n/a	n/a	feedback	n/a	n/a	n/a	n/a	n/a	n/a	n/a	n/a	n/a	n/a
74.88	7.2	2	n/a	mem	con	low	n/a	n/a	instructions	n/a	n/a	n/a	n/a	n/a	n/a	n/a	n/a	n/a	n/a
83.12	2.031	2	17	mem	con	low	low	low	nt	nt	tg	tg	right	nt	cr	1.631	wh/0375.bmp	0.05	0.3
86	1.29075	2	18	mem	con	low	low	low	tg	tg	tg	nt	left	nt	ms	0.89075	wh/0889.bmp	0	0.3
88.88	1.1938	2	19	mem	con	low	low	low	nt	nt	tg	nt	left	nt	cr	0.7938	wh/0309.bmp	0.05	0.35
92.48	1.715	2	20	mem	con	low	low	low	nt	nt	nt	tg	right	nt	cr	1.315	nh/0471_nh.bmp	0.05	0.4
95.36	1.4507	2	21	mem	con	low	low	low	nt	nt	tg	nt	left	nt	cr	1.0507	wh/0911.bmp	0.05	0.45
99.68	1.5417	2	22	mem	con	low	low	low	tg	tg	nt	tg	right	nt	ms	1.1417	nh/0407_nh.bmp	0	0.45
103.28	1.5479	2	23	mem	con	low	low	low	tg	tg	nt	nt	left	nt	ms	1.1479	nh/0307_nh.bmp	0	0.45
107.6	1.13788	2	24	mem	con	low	low	low	tg	tg	tg	nt	left	nt	ms	0.73788	wh/0464.bmp	0	0.45
110.48	1.05889	2	25	mem	con	low	low	low	tg	tg	tg	nt	left	nt	ms	0.65889	wh/0634.bmp	0	0.45
114.8	1.04754	2	26	mem	con	low	low	low	nt	nt	tg	nt	left	nt	cr	0.64754	wh/0505.bmp	0.05	0.5
117.68	1.4138	2	27	mem	con	low	low	low	tg	tg	nt	nt	right	tg	ht	1.0138	nh/0210_nh.bmp	0.05	0.55
121.28	1.20683	2	28	mem	con	low	low	low	nt	nt	nt	nt	right	tg	fa	0.80683	nh/0011_nh.bmp	-0.1	0.45
124.16	1.4849	2	29	mem	con	low	low	low	tg	tg	tg	nt	right	tg	ht	1.0849	wh/0800.bmp	0.05	0.5
127.04	1.402	2	30	mem	con	low	low	low	tg	tg	nt	nt	left	nt	ms	1.002	nh/0065_nh.bmp	0	0.5
129.92	1.30285	2	31	mem	con	low	low	low	nt	nt	nt	nt	left	nt	cr	0.90285	nh/0184_nh.bmp	0.05	0.55
134.24	1.20774	2	32	mem	con	low	low	low	nt	nt	nt	tg	right	nt	cr	0.80774	nh/0987_nh.bmp	0.05	0.6
136.8	3.6	2	n/a	mem	con	low	n/a	n/a	feedback	n/a	n/a	n/a	n/a	n/a	n/a	n/a	n/a	n/a	n/a
140.4	7.2	3	n/a	mem	con	mod	n/a	n/a	instructions	n/a	n/a	n/a	n/a	n/a	n/a	n/a	n/a	n/a	n/a
149.36	1.7208	3	33	mem	con	mod	mod	mod	nt	nt	tg	nt	left	nt	cr	1.3208	wh/0359.bmp	0.05	0.65
152.24	1.6108	3	34	mem	con	mod	mod	mod	nt	nt	nt	nt	left	nt	cr	1.2108	nh/0562_nh.bmp	0.05	0.7
156.56	1.32472	3	35	mem	con	mod	mod	mod	tg	tg	nt	nt	right	tg	ht	0.92472	nh/0414_nh.bmp	0.05	0.75
160.88	1.23174	3	36	mem	con	mod	mod	mod	nt	nt	tg	nt	left	nt	cr	0.83174	wh/0331.bmp	0.05	0.8
164.48	1.649	3	37	mem	con	mod	mod	mod	nt	nt	tg	nt	left	nt	cr	1.249	wh/0097.bmp	0.05	0.85
168.8	1.04217	3	38	mem	con	mod	mod	mod	nt	nt	nt	nt	left	nt	cr	0.64217	nh/0799_nh.bmp	0.05	0.9
172.4	1.05977	3	39	mem	con	mod	mod	mod	tg	tg	nt	nt	right	tg	ht	0.65977	nh/0391_nh.bmp	0.05	0.95
176.72	1.04816	3	40	mem	con	mod	mod	mod	tg	tg	nt	nt	right	tg	ht	0.64816	nh/0801_nh.bmp	0.05	1
180.32	0.89023	3	41	mem	con	mod	mod	mod	tg	tg	nt	nt	right	tg	ht	0.49023	nh/0605_nh.bmp	0.05	1.05
184.64	1.39678	3	42	mem	con	mod	mod	mod	nt	nt	nt	tg	right	nt	cr	0.99678	nh/0333_nh.bmp	0.05	1.1
188.24	1.14076	3	43	mem	con	mod	mod	mod	tg	tg	tg	tg	left	tg	ht	0.74076	wh/0981.bmp	0.05	1.15
191.12	1.29078	3	44	mem	con	mod	mod	mod	nt	nt	nt	nt	left	nt	cr	0.89078	nh/0628_nh.bmp	0.05	1.2
194	1.13574	3	45	mem	con	mod	mod	mod	nt	nt	tg	nt	left	nt	cr	0.73574	wh/0313.bmp	0.05	1.25
197.6	1.00166	3	46	mem	con	mod	mod	mod	tg	tg	tg	nt	right	tg	ht	0.60166	wh/0681.bmp	0.05	1.3
201.92	1.4489	3	47	mem	con	mod	mod	mod	tg	tg	tg	tg	left	tg	ht	1.0489	wh/0466.bmp	0.05	1.35
204.8	1.7199	3	48	mem	con	mod	mod	mod	tg	tg	tg	tg	left	tg	ht	1.3199	wh/0534.bmp	0.05	1.4
208.8	3.6	3	n/a	mem	con	mod	n/a	n/a	feedback	n/a	n/a	n/a	n/a	n/a	n/a	n/a	n/a	n/a	n/a
212.4	7.2	4	n/a	per	lib	low	n/a	n/a	instructions	n/a	n/a	n/a	n/a	n/a	n/a	n/a	n/a	n/a	n/a
219.92	1.8669	4	49	per	lib	low	mod	low	nt	nt	nt	nt	right	tg	fa	1.4669	nh/0444_nh.bmp	0	1.4
223.52	1.6957	4	50	per	lib	low	mod	low	tg	tg	tg	tg	left	tg	ht	1.2957	wh/0739.bmp	0.05	1.45
226.4	1.8669	4	51	per	lib	low	mod	low	nt	nt	nt	nt	right	tg	fa	1.4669	nh/0295_nh.bmp	0	1.45
229.28	1.26397	4	52	per	lib	low	mod	low	tg	tg	tg	nt	right	tg	ht	0.86397	wh/0675.bmp	0.05	1.5
232.88	1.5679	4	53	per	lib	low	mod	low	tg	nt	tg	tg	left	tg	ht	1.1679	wh/0494.bmp	0.05	1.55
237.2	1.5309	4	54	per	lib	low	mod	low	nt	nt	nt	tg	left	tg	fa	1.1309	nh/0312_nh.bmp	0	1.55
240.08	1.34379	4	55	per	lib	low	mod	low	tg	nt	tg	tg	left	tg	ht	0.94379	wh/0007.bmp	0.05	1.6
243.68	1.5038	4	56	per	lib	low	mod	low	tg	nt	tg	nt	right	tg	ht	1.1038	wh/0791.bmp	0.05	1.65
248	1.22979	4	57	per	lib	low	mod	low	tg	nt	tg	tg	left	tg	ht	0.82979	wh/1013.bmp	0.05	1.7
251.6	1.18378	4	58	per	lib	low	mod	low	tg	tg	tg	tg	left	tg	ht	0.78378	wh/0177.bmp	0.05	1.75
254.48	1.4539	4	59	per	lib	low	mod	low	nt	tg	nt	tg	right	nt	cr	1.0539	nh/0733_nh.bmp	0.05	1.8
257.36	1.38494	4	60	per	lib	low	mod	low	nt	tg	nt	nt	left	nt	cr	0.98494	nh/0341_nh.bmp	0.05	1.85
261.68	2.2059	4	61	per	lib	low	mod	low	nt	tg	nt	nt	right	tg	fa	1.8059	nh/0868_nh.bmp	0	1.85
266	1.8459	4	62	per	lib	low	mod	low	nt	tg	nt	nt	right	tg	fa	1.4459	nh/0421_nh.bmp	0	1.85
268.88	1.8818	4	63	per	lib	low	mod	low	nt	nt	nt	nt	right	tg	fa	1.4818	nh/0415_nh.bmp	0	1.85
271.76	1.5838	4	64	per	lib	low	mod	low	tg	tg	tg	tg	left	tg	ht	1.1838	wh/0217.bmp	0.05	1.9
274.32	3.6	4	n/a	per	lib	low	n/a	n/a	feedback	n/a	n/a	n/a	n/a	n/a	n/a	n/a	n/a	n/a	n/a
278.64	7.2	5	n/a	per	con	mod	n/a	n/a	instructions	n/a	n/a	n/a	n/a	n/a	n/a	n/a	n/a	n/a	n/a
286.16	1.6769	5	65	per	con	mod	mod	mod	nt	tg	nt	nt	left	nt	cr	1.2769	nh/0955_nh.bmp	0.05	1.95
289.04	1.23992	5	66	per	con	mod	mod	mod	nt	nt	nt	nt	left	nt	cr	0.83992	nh/0983_nh.bmp	0.05	2
291.92	1.5298	5	67	per	con	mod	mod	mod	tg	nt	tg	tg	right	nt	ms	1.1298	wh/0674.bmp	0	2
295.52	1.35288	5	68	per	con	mod	mod	mod	nt	nt	nt	tg	right	nt	cr	0.95288	nh/0413_nh.bmp	0.05	2.05
298.4	1.04129	5	69	per	con	mod	mod	mod	nt	nt	nt	tg	right	nt	cr	0.64129	nh/0104_nh.bmp	0.05	2.1
302	1.13189	5	70	per	con	mod	mod	mod	tg	tg	tg	tg	left	tg	ht	0.73189	wh/0642.bmp	0.05	2.15
305.6	1.34874	5	71	per	con	mod	mod	mod	nt	tg	nt	tg	right	nt	cr	0.94874	nh/0425_nh.bmp	0.05	2.2
309.92	1.6627	5	72	per	con	mod	mod	mod	nt	tg	nt	nt	left	nt	cr	1.2627	nh/0700_nh.bmp	0.05	2.25
314.24	1.05039	5	73	per	con	mod	mod	mod	tg	nt	tg	nt	right	tg	ht	0.65039	wh/0583.bmp	0.05	2.3
317.84	1.07513	5	74	per	con	mod	mod	mod	tg	nt	tg	tg	left	tg	ht	0.67513	wh/0970.bmp	0.05	2.35
322.16	1.30171	5	75	per	con	mod	mod	mod	tg	nt	tg	nt	right	tg	ht	0.90171	wh/0348.bmp	0.05	2.4
325.04	1.16694	5	76	per	con	mod	mod	mod	nt	nt	nt	nt	left	nt	cr	0.76694	nh/0761_nh.bmp	0.05	2.45
328.64	1.525	5	77	per	con	mod	mod	mod	tg	tg	tg	tg	left	tg	ht	1.125	wh/0896.bmp	0.05	2.5
331.52	1.26401	5	78	per	con	mod	mod	mod	nt	tg	nt	nt	left	nt	cr	0.86401	nh/0001_nh.bmp	0.05	2.55
335.12	1.0982	5	79	per	con	mod	mod	mod	tg	tg	tg	nt	left	nt	ms	0.6982	wh/0984.bmp	0	2.55
338	1.12289	5	80	per	con	mod	mod	mod	tg	tg	tg	tg	left	tg	ht	0.72289	wh/0935.bmp	0.05	2.6
342	3.6	5	n/a	per	con	mod	n/a	n/a	feedback	n/a	n/a	n/a	n/a	n/a	n/a	n/a	n/a	n/a	n/a
347.04	7.2	6	n/a	mem	lib	low	n/a	n/a	instructions	n/a	n/a	n/a	n/a	n/a	n/a	n/a	n/a	n/a	n/a
355.28	1.30675	6	81	mem	lib	low	low	mod	tg	tg	nt	tg	left	tg	ht	0.90675	nh/0235_nh.bmp	0.05	2.65
358.88	1.19175	6	82	mem	lib	low	low	mod	nt	nt	nt	tg	left	tg	fa	0.79175	nh/0003_nh.bmp	0	2.65
361.76	1.35896	6	83	mem	lib	low	low	mod	tg	tg	nt	nt	right	tg	ht	0.95896	nh/0332_nh.bmp	0.05	2.7
364.64	1.7737	6	84	mem	lib	low	low	mod	tg	tg	tg	tg	right	nt	ms	1.3737	wh/0725.bmp	-0.1	2.6
367.52	1.4269	6	85	mem	lib	low	low	mod	nt	nt	tg	tg	right	nt	cr	1.0269	wh/0891.bmp	0.05	2.65
371.84	1.22088	6	86	mem	lib	low	low	mod	tg	tg	tg	nt	left	nt	ms	0.82088	wh/0960.bmp	-0.1	2.55
376.16	1.1559	6	87	mem	lib	low	low	mod	tg	tg	tg	nt	right	tg	ht	0.7559	wh/0898.bmp	0.05	2.6
379.04	1.774	6	88	mem	lib	low	low	mod	tg	tg	nt	tg	left	tg	ht	1.374	nh/0687_nh.bmp	0.05	2.65
381.92	1.01331	6	89	mem	lib	low	low	mod	nt	nt	nt	tg	left	tg	fa	0.61331	nh/0062_nh.bmp	0	2.65
385.52	1.8519	6	90	mem	lib	low	low	mod	nt	nt	tg	nt	right	tg	fa	1.4519	wh/0754.bmp	0	2.65
389.12	1.1509	6	91	mem	lib	low	low	mod	tg	tg	nt	nt	right	tg	ht	0.7509	nh/0047_nh.bmp	0.05	2.7
392	1.24484	6	92	mem	lib	low	low	mod	nt	nt	tg	nt	left	nt	cr	0.84484	wh/0567.bmp	0.05	2.75
396.32	1.21366	6	93	mem	lib	low	low	mod	nt	nt	tg	tg	left	tg	fa	0.81366	wh/0616.bmp	0	2.75
399.2	1.07177	6	94	mem	lib	low	low	mod	tg	tg	tg	tg	left	tg	ht	0.67177	wh/0844.bmp	0.05	2.8
402.08	1.06992	6	95	mem	lib	low	low	mod	nt	nt	nt	tg	left	tg	fa	0.66992	nh/0630_nh.bmp	0	2.8
405.68	1.02749	6	96	mem	lib	low	low	mod	nt	nt	nt	tg	left	tg	fa	0.62749	nh/0033_nh.bmp	0	2.8
409.68	3.6	6	n/a	mem	lib	low	n/a	n/a	feedback	n/a	n/a	n/a	n/a	n/a	n/a	n/a	n/a	n/a	n/a
413.28	7.2	7	n/a	mem	lib	mod	n/a	n/a	instructions	n/a	n/a	n/a	n/a	n/a	n/a	n/a	n/a	n/a	n/a
420.8	1.5968	7	97	mem	lib	mod	mod	mod	nt	nt	nt	tg	right	nt	cr	1.1968	nh/0137_nh.bmp	0.05	2.85
425.12	1.662	7	98	mem	lib	mod	mod	mod	nt	nt	tg	nt	right	tg	fa	1.262	wh/0279.bmp	0	2.85
429.44	0.96977	7	99	mem	lib	mod	mod	mod	tg	tg	nt	nt	right	tg	ht	0.56977	nh/0621_nh.bmp	0.05	2.9
433.04	1.16288	7	100	mem	lib	mod	mod	mod	nt	nt	tg	tg	left	tg	fa	0.76288	wh/0925.bmp	0	2.9
437.36	0.94961	7	101	mem	lib	mod	mod	mod	tg	tg	nt	nt	right	tg	ht	0.54961	nh/0289_nh.bmp	0.05	2.95
440.96	1.5268	7	102	mem	lib	mod	mod	mod	nt	nt	tg	tg	right	nt	cr	1.1268	wh/0665.bmp	0.05	3
443.84	1.4157	7	103	mem	lib	mod	mod	mod	nt	nt	tg	nt	right	tg	fa	1.0157	wh/0645.bmp	0	3
446.72	0.89123	7	104	mem	lib	mod	mod	mod	tg	tg	tg	nt	right	tg	ht	0.49123	wh/0098.bmp	0.05	3.05
450.32	0.80432	7	105	mem	lib	mod	mod	mod	tg	tg	nt	nt	right	tg	ht	0.40432	nh/0899_nh.bmp	0.05	3.1
453.92	1.18875	7	106	mem	lib	mod	mod	mod	nt	nt	nt	nt	left	nt	cr	0.78875	nh/0738_nh.bmp	0.05	3.15
458.24	0.85476	7	107	mem	lib	mod	mod	mod	tg	tg	tg	nt	right	tg	ht	0.45476	wh/0429.bmp	0.05	3.2
461.84	1.02625	7	108	mem	lib	mod	mod	mod	nt	nt	nt	tg	right	nt	cr	0.62625	nh/0796_nh.bmp	0.05	3.25
465.44	1.557	7	109	mem	lib	mod	mod	mod	tg	tg	tg	nt	right	tg	ht	1.157	wh/0627.bmp	0.05	3.3
469.76	1.32777	7	110	mem	lib	mod	mod	mod	tg	tg	nt	tg	right	nt	ms	0.92777	nh/0658_nh.bmp	-0.1	3.2
474.08	1.4027	7	111	mem	lib	mod	mod	mod	tg	tg	tg	tg	left	tg	ht	1.0027	wh/0692.bmp	0.05	3.25
477.68	1.08377	7	112	mem	lib	mod	mod	mod	nt	nt	nt	tg	right	nt	cr	0.68377	nh/0961_nh.bmp	0.05	3.3
480.24	3.6	7	n/a	mem	lib	mod	n/a	n/a	feedback	n/a	n/a	n/a	n/a	n/a	n/a	n/a	n/a	n/a	n/a
484.56	7.2	8	n/a	per	lib	mod	n/a	n/a	instructions	n/a	n/a	n/a	n/a	n/a	n/a	n/a	n/a	n/a	n/a
493.52	1.34491	8	113	per	lib	mod	low	mod	nt	tg	nt	nt	right	tg	fa	0.94491	nh/0478_nh.bmp	0	3.3
497.12	1.23991	8	114	per	lib	mod	low	mod	nt	nt	nt	nt	left	nt	cr	0.83991	nh/0991_nh.bmp	0.05	3.35
501.44	1.31594	8	115	per	lib	mod	low	mod	tg	nt	tg	tg	left	tg	ht	0.91594	wh/0440.bmp	0.05	3.4
504.32	1.19392	8	116	per	lib	mod	low	mod	nt	nt	nt	tg	right	nt	cr	0.79392	nh/0944_nh.bmp	0.05	3.45
507.2	1.31689	8	117	per	lib	mod	low	mod	tg	tg	tg	nt	right	tg	ht	0.91689	wh/0977.bmp	0.05	3.5
510.08	1.21191	8	118	per	lib	mod	low	mod	tg	tg	tg	tg	left	tg	ht	0.81191	wh/1017.bmp	0.05	3.55
512.96	0.92354	8	119	per	lib	mod	low	mod	tg	nt	tg	nt	right	tg	ht	0.52354	wh/0719.bmp	0.05	3.6
515.84	1.743	8	120	per	lib	mod	low	mod	nt	tg	nt	tg	right	nt	cr	1.343	nh/0326_nh.bmp	0.05	3.65
518.72	1.00496	8	121	per	lib	mod	low	mod	nt	tg	nt	tg	right	nt	cr	0.60496	nh/0905_nh.bmp	0.05	3.7
521.6	1.6839	8	122	per	lib	mod	low	mod	nt	tg	nt	nt	right	tg	fa	1.2839	nh/0501_nh.bmp	0	3.7
525.92	2.0687	8	123	per	lib	mod	low	mod	nt	nt	nt	tg	left	tg	fa	1.6687	nh/0547_nh.bmp	0	3.7
528.8	1.20494	8	124	per	lib	mod	low	mod	tg	nt	tg	nt	right	tg	ht	0.80494	wh/0858.bmp	0.05	3.75
531.68	1.4159	8	125	per	lib	mod	low	mod	tg	tg	tg	nt	right	tg	ht	1.0159	wh/0912.bmp	0.05	3.8
534.56	0.98647	8	126	per	lib	mod	low	mod	tg	tg	tg	nt	right	tg	ht	0.58647	wh/0541.bmp	0.05	3.85
538.88	1.0887	8	127	per	lib	mod	low	mod	tg	nt	tg	tg	left	tg	ht	0.6887	wh/0886.bmp	0.05	3.9
543.2	1.39375	8	128	per	lib	mod	low	mod	nt	nt	nt	tg	left	tg	fa	0.99375	nh/0950_nh.bmp	0	3.9
545.76	3.6	8	n/a	per	lib	mod	n/a	n/a	feedback	n/a	n/a	n/a	n/a	n/a	n/a	n/a	n/a	n/a	n/a
