onset	duration	trial	pres	ts_blk	ts_trl	task	crit	disc	mem_disc	per_disc	per_type	accuracy	stim_file
7.20	0.72	1	1	3	34	per	lib	mod	mod	mod	tg	ht	wh/0526.bmp
7.92	0.72	2	1	1	70	per	con	mod	mod	mod	tg	ht	wh/0642.bmp
8.64	0.72	3	1	2	31	per	con	mod	low	mod	nt	cr	nh/0702_nh.bmp
9.36	0.72	4	1	3	39	per	lib	mod	mod	mod	tg	ht	wh/0002.bmp
10.08	0.72	5	1	1	111	mem	lib	mod	mod	mod	tg	ht	wh/0692.bmp
10.80	0.72	6	1	1	46	mem	con	mod	mod	mod	tg	ht	wh/0681.bmp
11.52	0.72	7	1	4	45	per	con	low	mod	low	tg	ms	wh/0031.bmp
12.24	0.72	8	1	1	61	per	lib	low	mod	low	nt	fa	nh/0868_nh.bmp
12.96	0.72	9	1	3	77	per	lib	low	low	low	nt	fa	nh/0330_nh.bmp
13.68	0.72	10	1	3	83	mem	lib	mod	mod	mod	tg	ht	wh/0183.bmp
14.40	0.72	11	1	2	48	mem	lib	mod	mod	low	tg	ht	wh/0836.bmp
15.12	0.72	12	1	4	116	per	lib	mod	low	mod	tg	ht	wh/0887.bmp
15.84	0.72	13	1	3	82	mem	lib	mod	mod	mod	tg	ht	wh/0473.bmp
16.56	0.72	14	1	1	64	per	lib	low	mod	low	tg	ht	wh/0217.bmp
17.28	0.72	15	2	1	46	mem	con	mod	mod	mod	tg	ht	wh/0681.bmp
18.00	0.72	16	1	1	122	per	lib	mod	low	mod	nt	fa	nh/0501_nh.bmp
18.72	0.72	17	1	1	62	per	lib	low	mod	low	nt	fa	nh/0421_nh.bmp
19.44	0.72	18	1	3	94	mem	lib	mod	mod	mod	tg	ht	wh/0750.bmp
20.16	0.72	19	1	4	60	mem	lib	low	low	mod	tg	ms	wh/0829.bmp
20.88	0.72	20	1	2	11	per	lib	low	low	low	tg	ms	wh/0682.bmp
21.60	0.72	21	1	3	111	per	con	mod	mod	mod	nt	cr	nh/0698_nh.bmp
22.32	0.72	22	1	3	99	per	con	mod	mod	mod	tg	ht	wh/0585.bmp
23.04	0.72	23	1	4	74	mem	con	mod	mod	low	nt	ms	nh/0200_nh.bmp
23.76	0.72	24	1	4	16	per	lib	low	mod	low	nt	cr	nh/0014_nh.bmp
24.48	0.72	25	1	2	65	per	lib	mod	mod	mod	nt	cr	nh/0287_nh.bmp
25.20	0.72	26	1	2	49	mem	lib	low	low	low	tg	ht	wh/0122.bmp
25.92	0.72	27	2	3	34	per	lib	mod	mod	mod	tg	ht	wh/0526.bmp
26.64	0.72	28	1	2	120	per	con	low	mod	low	nt	cr	nh/0529_nh.bmp
27.36	0.72	29	2	3	99	per	con	mod	mod	mod	tg	ht	wh/0585.bmp
28.08	0.72	30	1	1	79	per	con	mod	mod	mod	tg	ms	wh/0984.bmp
28.80	0.72	31	1	2	128	per	con	low	mod	low	nt	cr	nh/0816_nh.bmp
29.52	0.72	32	1	2	81	mem	con	mod	mod	low	tg	ht	wh/0514.bmp
30.24	0.72	33	1	2	92	mem	con	mod	mod	low	nt	ht	nh/0745_nh.bmp
30.96	0.72	34	1	4	73	mem	con	mod	mod	low	nt	ms	nh/1021_nh.bmp
31.68	0.72	35	1	3	6	per	con	low	low	low	nt	cr	nh/0651_nh.bmp
32.40	0.72	36	1	3	116	mem	con	mod	mod	mod	nt	ht	nh/0017_nh.bmp
33.12	0.72	37	1	3	46	per	lib	mod	mod	mod	tg	ms	wh/0724.bmp
33.84	0.72	38	3	3	34	per	lib	mod	mod	mod	tg	ht	wh/0526.bmp
34.56	0.72	39	1	4	79	mem	con	mod	mod	low	tg	ht	wh/0168.bmp
35.28	0.72	40	2	1	64	per	lib	low	mod	low	tg	ht	wh/0217.bmp
36.00	0.72	41	1	2	80	per	lib	mod	mod	mod	nt	fa	nh/0847_nh.bmp
36.72	0.72	42	1	2	71	per	lib	mod	mod	mod	tg	ht	wh/0857.bmp
37.44	0.72	43	1	4	40	per	con	low	mod	low	nt	cr	nh/0155_nh.bmp
38.16	0.72	44	1	1	58	per	lib	low	mod	low	tg	ht	wh/0177.bmp
38.88	0.72	45	1	1	41	mem	con	mod	mod	mod	nt	ht	nh/0605_nh.bmp
39.60	0.72	46	2	2	48	mem	lib	mod	mod	low	tg	ht	wh/0836.bmp
40.32	0.72	47	1	4	15	per	lib	low	mod	low	nt	cr	nh/0926_nh.bmp
41.04	0.72	48	2	3	82	mem	lib	mod	mod	mod	tg	ht	wh/0473.bmp
41.76	0.72	49	1	3	108	per	con	mod	mod	mod	nt	cr	nh/0785_nh.bmp
42.48	0.72	50	1	4	92	mem	lib	mod	mod	low	nt	ht	nh/0704_nh.bmp
43.20	0.72	51	1	2	126	per	con	low	mod	low	tg	ms	wh/0997.bmp
43.92	0.72	52	1	1	40	mem	con	mod	mod	mod	nt	ht	nh/0801_nh.bmp
44.64	0.72	53	1	2	89	mem	con	mod	mod	low	tg	n/a	wh/0231.bmp
45.36	0.72	54	1	2	67	per	lib	mod	mod	mod	tg	ms	wh/0070.bmp
46.08	0.72	55	1	3	118	mem	con	mod	mod	mod	nt	ms	nh/0959_nh.bmp
46.80	0.72	56	2	1	61	per	lib	low	mod	low	nt	fa	nh/0868_nh.bmp
47.52	0.72	57	2	4	73	mem	con	mod	mod	low	nt	ms	nh/1021_nh.bmp
48.24	0.72	58	1	4	70	mem	con	mod	mod	low	nt	ms	nh/0727_nh.bmp
48.96	0.72	59	1	3	14	per	con	low	low	low	tg	ht	wh/0481.bmp
49.68	0.72	60	1	1	110	mem	lib	mod	mod	mod	nt	ms	nh/0658_nh.bmp
50.40	0.72	61	2	2	71	per	lib	mod	mod	mod	tg	ht	wh/0857.bmp
51.12	0.72	62	1	4	47	per	con	low	mod	low	tg	ms	wh/0353.bmp
51.84	0.72	63	1	1	39	mem	con	mod	mod	mod	nt	ht	nh/0391_nh.bmp
52.56	0.72	64	1	4	43	per	con	low	mod	low	nt	cr	nh/0515_nh.bmp
53.28	0.72	65	1	3	93	mem	lib	mod	mod	mod	nt	ht	nh/0942_nh.bmp
54.00	0.72	66	1	2	73	per	lib	mod	mod	mod	tg	ht	wh/0919.bmp
54.72	0.72	67	2	1	79	per	con	mod	mod	mod	tg	ms	wh/0984.bmp
55.44	0.72	68	1	2	90	mem	con	mod	mod	low	tg	ht	wh/0145.bmp
56.16	0.72	69	1	2	94	mem	con	mod	mod	low	nt	ht	nh/0156_nh.bmp
56.88	0.72	70	2	1	62	per	lib	low	mod	low	nt	fa	nh/0421_nh.bmp
57.60	0.72	71	1	3	48	per	lib	mod	mod	mod	tg	ht	wh/0920.bmp
58.32	0.72	72	1	2	37	mem	lib	mod	mod	low	tg	ht	wh/0251.bmp
59.04	0.72	73	1	2	118	per	con	low	mod	low	tg	ht	wh/0377.bmp
59.76	0.72	74	1	1	50	per	lib	low	mod	low	tg	ht	wh/0739.bmp
60.48	0.72	75	1	3	98	per	con	mod	mod	mod	nt	cr	nh/0463_nh.bmp
61.20	0.72	76	2	3	116	mem	con	mod	mod	mod	nt	ht	nh/0017_nh.bmp
61.92	0.72	77	1	1	47	mem	con	mod	mod	mod	tg	ht	wh/0466.bmp
62.64	0.72	78	1	2	20	per	con	mod	low	mod	nt	fa	nh/0601_nh.bmp
63.36	0.72	79	1	1	80	per	con	mod	mod	mod	tg	ht	wh/0935.bmp
64.08	0.72	80	1	2	115	per	con	low	mod	low	tg	ms	wh/0019.bmp
64.80	0.72	81	2	1	47	mem	con	mod	mod	mod	tg	ht	wh/0466.bmp
65.52	0.72	82	1	3	95	mem	lib	mod	mod	mod	nt	ht	nh/0637_nh.bmp
66.24	0.72	83	2	4	43	per	con	low	mod	low	nt	cr	nh/0515_nh.bmp
66.96	0.72	84	2	2	73	per	lib	mod	mod	mod	tg	ht	wh/0919.bmp
67.68	0.72	85	1	2	86	mem	con	mod	mod	low	nt	ht	nh/0766_nh.bmp
68.40	0.72	86	1	2	35	mem	lib	mod	mod	low	tg	ht	wh/0624.bmp
69.12	0.72	87	2	2	67	per	lib	mod	mod	mod	tg	ms	wh/0070.bmp
69.84	0.72	88	1	3	126	mem	con	mod	mod	mod	nt	ms	nh/0975_nh.bmp
70.56	0.72	89	1	3	96	mem	lib	mod	mod	mod	nt	ht	nh/0679_nh.bmp
71.28	0.72	90	2	4	16	per	lib	low	mod	low	nt	cr	nh/0014_nh.bmp
72.00	0.72	91	1	3	9	per	con	low	low	low	tg	ms	wh/0411.bmp
72.72	0.72	92	2	2	120	per	con	low	mod	low	nt	cr	nh/0529_nh.bmp
73.44	0.72	93	1	4	76	mem	con	mod	mod	low	tg	ht	wh/0455.bmp
74.16	0.72	94	3	2	48	mem	lib	mod	mod	low	tg	ht	wh/0836.bmp
74.88	0.72	95	1	4	84	mem	lib	mod	mod	low	tg	ht	wh/0932.bmp
75.60	0.72	96	3	3	116	mem	con	mod	mod	mod	nt	ht	nh/0017_nh.bmp
76.32	0.72	97	2	3	46	per	lib	mod	mod	mod	tg	ms	wh/0724.bmp
77.04	0.72	98	4	2	48	mem	lib	mod	mod	low	tg	ht	wh/0836.bmp
77.76	0.72	99	1	4	42	per	con	low	mod	low	tg	ms	wh/0392.bmp
78.48	0.72	100	2	2	65	per	lib	mod	mod	mod	nt	cr	nh/0287_nh.bmp
79.20	0.72	101	1	4	21	per	con	mod	low	mod	tg	ms	wh/0296.bmp
79.92	0.72	102	2	3	96	mem	lib	mod	mod	mod	nt	ht	nh/0679_nh.bmp
80.64	0.72	103	3	3	99	per	con	mod	mod	mod	tg	ht	wh/0585.bmp
81.36	0.72	104	1	4	44	per	con	low	mod	low	nt	cr	nh/0133_nh.bmp
82.08	0.72	105	1	1	78	per	con	mod	mod	mod	nt	cr	nh/0001_nh.bmp
82.80	0.72	106	2	1	50	per	lib	low	mod	low	tg	ht	wh/0739.bmp
83.52	0.72	107	1	4	66	mem	con	mod	mod	low	tg	ht	wh/0755.bmp
84.24	0.72	108	2	3	83	mem	lib	mod	mod	mod	tg	ht	wh/0183.bmp
84.96	0.72	109	1	2	123	per	con	low	mod	low	tg	ms	wh/0597.bmp
85.68	0.72	110	2	2	92	mem	con	mod	mod	low	nt	ht	nh/0745_nh.bmp
86.40	0.72	111	1	2	114	per	con	low	mod	low	nt	cr	nh/0066_nh.bmp
87.12	0.72	112	2	4	92	mem	lib	mod	mod	low	nt	ht	nh/0704_nh.bmp
87.84	0.72	113	1	1	113	per	lib	mod	low	mod	nt	fa	nh/0478_nh.bmp
88.56	0.72	114	1	1	65	per	con	mod	mod	mod	nt	cr	nh/0955_nh.bmp
89.28	0.72	115	2	1	65	per	con	mod	mod	mod	nt	cr	nh/0955_nh.bmp
90.00	0.72	116	3	2	65	per	lib	mod	mod	mod	nt	cr	nh/0287_nh.bmp
90.72	0.72	117	1	1	60	per	lib	low	mod	low	nt	cr	nh/0341_nh.bmp
91.44	0.72	118	1	4	85	mem	lib	mod	mod	low	nt	ht	nh/0379_nh.bmp
92.16	0.72	119	2	3	94	mem	lib	mod	mod	mod	tg	ht	wh/0750.bmp
92.88	0.72	120	1	4	13	per	lib	low	mod	low	nt	fa	nh/0649_nh.bmp
93.60	0.72	121	3	2	71	per	lib	mod	mod	mod	tg	ht	wh/0857.bmp
94.32	0.72	122	1	2	103	mem	con	low	low	mod	tg	ms	wh/0906.bmp
95.04	0.72	123	2	2	114	per	con	low	mod	low	nt	cr	nh/0066_nh.bmp
95.76	0.72	124	1	4	105	mem	con	low	low	mod	tg	ms	wh/0776.bmp
96.48	0.72	125	2	1	111	mem	lib	mod	mod	mod	tg	ht	wh/0692.bmp
97.20	0.72	126	2	3	126	mem	con	mod	mod	mod	nt	ms	nh/0975_nh.bmp
97.92	0.72	127	1	3	120	mem	con	mod	mod	mod	nt	ht	nh/0393_nh.bmp
98.64	0.72	128	2	4	13	per	lib	low	mod	low	nt	fa	nh/0649_nh.bmp
99.36	0.72	129	1	4	71	mem	con	mod	mod	low	tg	ms	wh/0205.bmp
100.08	0.72	130	2	4	71	mem	con	mod	mod	low	tg	ms	wh/0205.bmp
100.80	0.72	131	1	2	101	mem	con	low	low	mod	nt	ms	nh/0103_nh.bmp
101.52	0.72	132	1	4	22	per	con	mod	low	mod	tg	ht	wh/0286.bmp
102.24	0.72	133	2	3	48	per	lib	mod	mod	mod	tg	ht	wh/0920.bmp
102.96	0.72	134	2	4	47	per	con	low	mod	low	tg	ms	wh/0353.bmp
103.68	0.72	135	1	2	45	mem	lib	mod	mod	low	nt	ht	nh/0769_nh.bmp
104.40	0.72	136	3	4	13	per	lib	low	mod	low	nt	fa	nh/0649_nh.bmp
105.12	0.72	137	2	1	78	per	con	mod	mod	mod	nt	cr	nh/0001_nh.bmp
105.84	0.72	138	2	1	60	per	lib	low	mod	low	nt	cr	nh/0341_nh.bmp
106.56	0.72	139	1	3	114	mem	con	mod	mod	mod	tg	ms	wh/0189.bmp
107.28	0.72	140	1	1	118	per	lib	mod	low	mod	tg	ht	wh/1017.bmp
108.00	0.72	141	1	4	81	mem	lib	mod	mod	low	tg	ht	wh/0648.bmp
108.72	0.72	142	1	3	105	per	con	mod	mod	mod	nt	cr	nh/0965_nh.bmp
109.44	0.72	143	3	4	73	mem	con	mod	mod	low	nt	ms	nh/1021_nh.bmp
110.16	0.72	144	1	3	28	mem	lib	low	low	low	tg	ms	wh/0533.bmp
110.88	0.72	145	3	1	50	per	lib	low	mod	low	tg	ht	wh/0739.bmp
111.60	0.72	146	1	3	41	per	lib	mod	mod	mod	nt	fa	nh/0600_nh.bmp
112.32	0.72	147	4	4	13	per	lib	low	mod	low	nt	fa	nh/0649_nh.bmp
113.04	0.72	148	3	4	71	mem	con	mod	mod	low	tg	ms	wh/0205.bmp
113.76	0.72	149	1	2	59	mem	lib	low	low	low	nt	ht	nh/0654_nh.bmp
114.48	0.72	150	2	1	110	mem	lib	mod	mod	mod	nt	ms	nh/0658_nh.bmp
115.20	0.72	151	3	2	92	mem	con	mod	mod	low	nt	ht	nh/0745_nh.bmp
115.92	0.72	152	1	2	66	per	lib	mod	mod	mod	nt	cr	nh/0878_nh.bmp
116.64	0.72	153	1	1	105	mem	lib	mod	mod	mod	nt	ht	nh/0899_nh.bmp
117.36	0.72	154	1	3	56	mem	con	low	low	low	tg	ht	wh/0656.bmp
118.08	0.72	155	1	1	59	per	lib	low	mod	low	nt	cr	nh/0733_nh.bmp
118.80	0.72	156	2	1	105	mem	lib	mod	mod	mod	nt	ht	nh/0899_nh.bmp
119.52	0.72	157	2	4	45	per	con	low	mod	low	tg	ms	wh/0031.bmp
120.24	0.72	158	4	2	65	per	lib	mod	mod	mod	nt	cr	nh/0287_nh.bmp
120.96	0.72	159	1	3	23	mem	lib	low	low	low	nt	ht	nh/0006_nh.bmp
121.68	0.72	160	2	2	35	mem	lib	mod	mod	low	tg	ht	wh/0624.bmp
122.40	0.72	161	3	4	16	per	lib	low	mod	low	nt	cr	nh/0014_nh.bmp
123.12	0.72	162	3	4	47	per	con	low	mod	low	tg	ms	wh/0353.bmp
123.84	0.72	163	2	2	90	mem	con	mod	mod	low	tg	ht	wh/0145.bmp
124.56	0.72	164	2	4	40	per	con	low	mod	low	nt	cr	nh/0155_nh.bmp
125.28	0.72	165	1	1	77	per	con	mod	mod	mod	tg	ht	wh/0896.bmp
126.00	0.72	166	3	4	45	per	con	low	mod	low	tg	ms	wh/0031.bmp
126.72	0.72	167	1	1	72	per	con	mod	mod	mod	nt	cr	nh/0700_nh.bmp
127.44	0.72	168	1	4	88	mem	lib	mod	mod	low	tg	ht	wh/0265.bmp
128.16	0.72	169	1	1	35	mem	con	mod	mod	mod	nt	ht	nh/0414_nh.bmp
128.88	0.72	170	1	3	113	mem	con	mod	mod	mod	tg	ht	wh/0775.bmp
129.60	0.72	171	2	4	42	per	con	low	mod	low	tg	ms	wh/0392.bmp
130.32	0.72	172	3	2	114	per	con	low	mod	low	nt	cr	nh/0066_nh.bmp
131.04	0.72	173	2	3	93	mem	lib	mod	mod	mod	nt	ht	nh/0942_nh.bmp
131.76	0.72	174	4	4	47	per	con	low	mod	low	tg	ms	wh/0353.bmp
132.48	0.72	175	1	1	99	mem	lib	mod	mod	mod	nt	ht	nh/0621_nh.bmp
133.20	0.72	176	1	1	52	per	lib	low	mod	low	tg	ht	wh/0675.bmp
133.92	0.72	177	3	1	61	per	lib	low	mod	low	nt	fa	nh/0868_nh.bmp
134.64	0.72	178	2	1	40	mem	con	mod	mod	mod	nt	ht	nh/0801_nh.bmp
135.36	0.72	179	2	3	95	mem	lib	mod	mod	mod	nt	ht	nh/0637_nh.bmp
136.08	0.72	180	1	1	109	mem	lib	mod	mod	mod	tg	ht	wh/0627.bmp
136.80	0.72	181	2	3	111	per	con	mod	mod	mod	nt	cr	nh/0698_nh.bmp
137.52	0.72	182	1	4	6	per	lib	low	mod	low	tg	ht	wh/0027.bmp
138.24	0.72	183	2	1	99	mem	lib	mod	mod	mod	nt	ht	nh/0621_nh.bmp
138.96	0.72	184	1	3	101	per	con	mod	mod	mod	tg	ms	wh/0561.bmp
139.68	0.72	185	1	4	14	per	lib	low	mod	low	tg	ht	wh/0115.bmp
140.40	0.72	186	1	3	88	mem	lib	mod	mod	mod	tg	ht	wh/0100.bmp
141.12	0.72	187	1	2	42	mem	lib	mod	mod	low	tg	ht	wh/0233.bmp
141.84	0.72	188	1	4	91	mem	lib	mod	mod	low	tg	ht	wh/0105.bmp
142.56	0.72	189	2	3	105	per	con	mod	mod	mod	nt	cr	nh/0965_nh.bmp
143.28	0.72	190	2	3	113	mem	con	mod	mod	mod	tg	ht	wh/0775.bmp
144.00	0.72	191	2	3	120	mem	con	mod	mod	mod	nt	ht	nh/0393_nh.bmp
144.72	0.72	192	1	3	117	mem	con	mod	mod	mod	tg	ms	wh/0274.bmp
145.44	0.72	193	2	1	80	per	con	mod	mod	mod	tg	ht	wh/0935.bmp
146.16	0.72	194	2	4	66	mem	con	mod	mod	low	tg	ht	wh/0755.bmp
146.88	0.72	195	3	2	90	mem	con	mod	mod	low	tg	ht	wh/0145.bmp
147.60	0.72	196	2	3	41	per	lib	mod	mod	mod	nt	fa	nh/0600_nh.bmp
148.32	0.72	197	2	1	39	mem	con	mod	mod	mod	nt	ht	nh/0391_nh.bmp
149.04	0.72	198	1	1	87	mem	lib	low	low	mod	tg	ht	wh/0898.bmp
149.76	0.72	199	1	2	17	per	con	mod	low	mod	nt	cr	nh/0213_nh.bmp
150.48	0.72	200	2	3	39	per	lib	mod	mod	mod	tg	ht	wh/0002.bmp
151.20	0.72	201	2	2	123	per	con	low	mod	low	tg	ms	wh/0597.bmp
151.92	0.72	202	1	1	16	per	con	low	low	low	nt	cr	nh/0354_nh.bmp
152.64	0.72	203	1	4	8	per	lib	low	mod	low	tg	ht	wh/0741.bmp
153.36	0.72	204	1	3	79	per	lib	low	low	low	nt	cr	nh/0119_nh.bmp
154.08	0.72	205	1	3	58	mem	con	low	low	low	nt	ms	nh/0423_nh.bmp
154.80	0.72	206	1	4	110	mem	con	low	low	mod	tg	ms	wh/0922.bmp
155.52	0.72	207	3	3	113	mem	con	mod	mod	mod	tg	ht	wh/0775.bmp
156.24	0.72	208	1	3	38	per	lib	mod	mod	mod	nt	cr	nh/0879_nh.bmp
156.96	0.72	209	2	3	38	per	lib	mod	mod	mod	nt	cr	nh/0879_nh.bmp
157.68	0.72	210	2	1	59	per	lib	low	mod	low	nt	cr	nh/0733_nh.bmp
158.40	0.72	211	2	2	45	mem	lib	mod	mod	low	nt	ht	nh/0769_nh.bmp
159.12	0.72	212	3	1	47	mem	con	mod	mod	mod	tg	ht	wh/0466.bmp
159.84	0.72	213	2	1	52	per	lib	low	mod	low	tg	ht	wh/0675.bmp
160.56	0.72	214	1	2	91	mem	con	mod	mod	low	nt	ms	nh/0387_nh.bmp
161.28	0.72	215	3	2	67	per	lib	mod	mod	mod	tg	ms	wh/0070.bmp
162.00	0.72	216	3	1	59	per	lib	low	mod	low	nt	cr	nh/0733_nh.bmp
162.72	0.72	217	1	4	121	per	lib	mod	low	mod	nt	fa	nh/0272_nh.bmp
163.44	0.72	218	2	4	79	mem	con	mod	mod	low	tg	ht	wh/0168.bmp
164.16	0.72	219	1	4	56	mem	lib	low	low	mod	nt	ht	nh/0910_nh.bmp
164.88	0.72	220	1	3	19	mem	lib	low	low	low	tg	ht	wh/0076.bmp
165.60	0.72	221	1	4	83	mem	lib	mod	mod	low	nt	ht	nh/0298_nh.bmp
166.32	0.72	222	1	2	39	mem	lib	mod	mod	low	nt	ht	nh/0472_nh.bmp
167.04	0.72	223	2	3	101	per	con	mod	mod	mod	tg	ms	wh/0561.bmp
167.76	0.72	224	2	1	77	per	con	mod	mod	mod	tg	ht	wh/0896.bmp
168.48	0.72	225	4	2	92	mem	con	mod	mod	low	nt	ht	nh/0745_nh.bmp
169.20	0.72	226	1	4	9	per	lib	low	mod	low	nt	cr	nh/0178_nh.bmp
169.92	0.72	227	2	4	15	per	lib	low	mod	low	nt	cr	nh/0926_nh.bmp
170.64	0.72	228	3	1	111	mem	lib	mod	mod	mod	tg	ht	wh/0692.bmp
171.36	0.72	229	3	1	52	per	lib	low	mod	low	tg	ht	wh/0675.bmp
172.08	0.72	230	1	2	95	mem	con	mod	mod	low	tg	ht	wh/0325.bmp
172.80	0.72	231	2	4	84	mem	lib	mod	mod	low	tg	ht	wh/0932.bmp
173.52	0.72	232	1	1	43	mem	con	mod	mod	mod	tg	ht	wh/0981.bmp
174.24	0.72	233	3	4	42	per	con	low	mod	low	tg	ms	wh/0392.bmp
174.96	0.72	234	2	4	88	mem	lib	mod	mod	low	tg	ht	wh/0265.bmp
175.68	0.72	235	2	2	81	mem	con	mod	mod	low	tg	ht	wh/0514.bmp
176.40	0.72	236	2	2	42	mem	lib	mod	mod	low	tg	ht	wh/0233.bmp
177.12	0.72	237	3	3	94	mem	lib	mod	mod	mod	tg	ht	wh/0750.bmp
177.84	0.72	238	3	4	88	mem	lib	mod	mod	low	tg	ht	wh/0265.bmp
178.56	0.72	239	2	4	70	mem	con	mod	mod	low	nt	ms	nh/0727_nh.bmp
179.28	0.72	240	2	1	41	mem	con	mod	mod	mod	nt	ht	nh/0605_nh.bmp
180.00	0.72	241	4	1	50	per	lib	low	mod	low	tg	ht	wh/0739.bmp
180.72	0.72	242	1	1	25	mem	con	low	low	low	tg	ms	wh/0634.bmp
181.44	0.72	243	2	4	6	per	lib	low	mod	low	tg	ht	wh/0027.bmp
182.16	0.72	244	2	2	80	per	lib	mod	mod	mod	nt	fa	nh/0847_nh.bmp
182.88	0.72	245	1	1	48	mem	con	mod	mod	mod	tg	ht	wh/0534.bmp
183.60	0.72	246	1	3	45	per	lib	mod	mod	mod	nt	fa	nh/0162_nh.bmp
184.32	0.72	247	1	1	107	mem	lib	mod	mod	mod	tg	ht	wh/0429.bmp
185.04	0.72	248	3	2	123	per	con	low	mod	low	tg	ms	wh/0597.bmp
185.76	0.72	249	1	2	40	mem	lib	mod	mod	low	nt	ht	nh/0573_nh.bmp
186.48	0.72	250	1	4	37	per	con	low	mod	low	tg	ms	wh/0163.bmp
187.20	0.72	251	4	4	16	per	lib	low	mod	low	nt	cr	nh/0014_nh.bmp
187.92	0.72	252	2	2	126	per	con	low	mod	low	tg	ms	wh/0997.bmp
188.64	0.72	253	3	4	79	mem	con	mod	mod	low	tg	ht	wh/0168.bmp
189.36	0.72	254	2	3	108	per	con	mod	mod	mod	nt	cr	nh/0785_nh.bmp
190.08	0.72	255	1	3	127	mem	con	mod	mod	mod	tg	ht	wh/0405.bmp
190.80	0.72	256	1	1	2	per	con	low	low	low	tg	ms	wh/0054.bmp
191.52	0.72	257	1	3	52	mem	con	low	low	low	nt	ms	nh/0126_nh.bmp
192.24	0.72	258	4	4	45	per	con	low	mod	low	tg	ms	wh/0031.bmp
192.96	0.72	259	4	2	71	per	lib	mod	mod	mod	tg	ht	wh/0857.bmp
193.68	0.72	260	2	2	66	per	lib	mod	mod	mod	nt	cr	nh/0878_nh.bmp
194.40	0.72	261	1	1	18	mem	con	low	low	low	tg	ms	wh/0889.bmp
195.12	0.72	262	1	3	2	per	con	low	low	low	nt	cr	nh/0903_nh.bmp
195.84	0.72	263	3	3	41	per	lib	mod	mod	mod	nt	fa	nh/0600_nh.bmp
196.56	0.72	264	1	2	12	per	lib	low	low	low	nt	fa	nh/0771_nh.bmp
197.28	0.72	265	3	1	77	per	con	mod	mod	mod	tg	ht	wh/0896.bmp
198.00	0.72	266	1	1	24	mem	con	low	low	low	tg	ms	wh/0464.bmp
198.72	0.72	267	3	1	41	mem	con	mod	mod	mod	nt	ht	nh/0605_nh.bmp
199.44	0.72	268	3	3	108	per	con	mod	mod	mod	nt	cr	nh/0785_nh.bmp
200.16	0.72	269	1	2	75	per	lib	mod	mod	mod	nt	cr	nh/0580_nh.bmp
200.88	0.72	270	2	2	128	per	con	low	mod	low	nt	cr	nh/0816_nh.bmp
201.60	0.72	271	5	2	71	per	lib	mod	mod	mod	tg	ht	wh/0857.bmp
202.32	0.72	272	2	2	86	mem	con	mod	mod	low	nt	ht	nh/0766_nh.bmp
203.04	0.72	273	4	1	61	per	lib	low	mod	low	nt	fa	nh/0868_nh.bmp
203.76	0.72	274	2	3	88	mem	lib	mod	mod	mod	tg	ht	wh/0100.bmp
204.48	0.72	275	1	4	3	per	lib	low	mod	low	tg	ht	wh/0040.bmp
205.20	0.72	276	4	3	34	per	lib	mod	mod	mod	tg	ht	wh/0526.bmp
205.92	0.72	277	3	3	93	mem	lib	mod	mod	mod	nt	ht	nh/0942_nh.bmp
206.64	0.72	278	3	2	128	per	con	low	mod	low	nt	cr	nh/0816_nh.bmp
207.36	0.72	279	5	2	48	mem	lib	mod	mod	low	tg	ht	wh/0836.bmp
208.08	0.72	280	1	2	121	per	con	low	mod	low	nt	cr	nh/0128_nh.bmp
208.80	0.72	281	5	3	34	per	lib	mod	mod	mod	tg	ht	wh/0526.bmp
209.52	0.72	282	3	3	82	mem	lib	mod	mod	mod	tg	ht	wh/0473.bmp
210.24	0.72	283	5	4	16	per	lib	low	mod	low	nt	cr	nh/0014_nh.bmp
210.96	0.72	284	1	2	99	mem	con	low	low	mod	nt	ms	nh/0367_nh.bmp
211.68	0.72	285	2	3	98	per	con	mod	mod	mod	nt	cr	nh/0463_nh.bmp
212.40	0.72	286	5	2	92	mem	con	mod	mod	low	nt	ht	nh/0745_nh.bmp
213.12	0.72	287	3	3	83	mem	lib	mod	mod	mod	tg	ht	wh/0183.bmp
213.84	0.72	288	1	4	78	mem	con	mod	mod	low	nt	ht	nh/0116_nh.bmp
214.56	0.72	289	2	2	115	per	con	low	mod	low	tg	ms	wh/0019.bmp
215.28	0.72	290	1	2	107	mem	con	low	low	mod	nt	ms	nh/0311_nh.bmp
216.00	0.72	291	3	2	115	per	con	low	mod	low	tg	ms	wh/0019.bmp
216.72	0.72	292	1	3	84	mem	lib	mod	mod	mod	nt	ht	nh/0884_nh.bmp
217.44	0.72	293	3	3	95	mem	lib	mod	mod	mod	nt	ht	nh/0637_nh.bmp
218.16	0.72	294	1	3	107	per	con	mod	mod	mod	tg	ht	wh/0204.bmp
218.88	0.72	295	2	4	9	per	lib	low	mod	low	nt	cr	nh/0178_nh.bmp
219.60	0.72	296	3	1	80	per	con	mod	mod	mod	tg	ht	wh/0935.bmp
220.32	0.72	297	3	2	66	per	lib	mod	mod	mod	nt	cr	nh/0878_nh.bmp
221.04	0.72	298	1	3	3	per	con	low	low	low	tg	ms	wh/0109.bmp
221.76	0.72	299	1	3	30	mem	lib	low	low	low	nt	ht	nh/0141_nh.bmp
222.48	0.72	300	3	1	99	mem	lib	mod	mod	mod	nt	ht	nh/0621_nh.bmp
223.20	0.72	301	2	2	94	mem	con	mod	mod	low	nt	ht	nh/0156_nh.bmp
223.92	0.72	302	2	3	127	mem	con	mod	mod	mod	tg	ht	wh/0405.bmp
224.64	0.72	303	4	1	59	per	lib	low	mod	low	nt	cr	nh/0733_nh.bmp
225.36	0.72	304	3	3	88	mem	lib	mod	mod	mod	tg	ht	wh/0100.bmp
226.08	0.72	305	4	2	114	per	con	low	mod	low	nt	cr	nh/0066_nh.bmp
226.80	0.72	306	2	4	81	mem	lib	mod	mod	low	tg	ht	wh/0648.bmp
227.52	0.72	307	3	3	38	per	lib	mod	mod	mod	nt	cr	nh/0879_nh.bmp
228.24	0.72	308	1	1	11	per	con	low	low	low	tg	ms	wh/0362.bmp
228.96	0.72	309	3	3	48	per	lib	mod	mod	mod	tg	ht	wh/0920.bmp
229.68	0.72	310	3	1	40	mem	con	mod	mod	mod	nt	ht	nh/0801_nh.bmp
230.40	0.72	311	3	4	84	mem	lib	mod	mod	low	tg	ht	wh/0932.bmp
231.12	0.72	312	2	1	58	per	lib	low	mod	low	tg	ht	wh/0177.bmp
231.84	0.72	313	4	2	67	per	lib	mod	mod	mod	tg	ms	wh/0070.bmp
232.56	0.72	314	2	3	84	mem	lib	mod	mod	mod	nt	ht	nh/0884_nh.bmp
233.28	0.72	315	3	3	84	mem	lib	mod	mod	mod	nt	ht	nh/0884_nh.bmp
234.00	0.72	316	1	4	38	per	con	low	mod	low	nt	cr	nh/0435_nh.bmp
234.72	0.72	317	3	2	73	per	lib	mod	mod	mod	tg	ht	wh/0919.bmp
235.44	0.72	318	2	1	43	mem	con	mod	mod	mod	tg	ht	wh/0981.bmp
236.16	0.72	319	1	4	99	mem	con	low	low	mod	nt	ms	nh/0270_nh.bmp
236.88	0.72	320	3	3	105	per	con	mod	mod	mod	nt	cr	nh/0965_nh.bmp
237.60	0.72	321	2	4	76	mem	con	mod	mod	low	tg	ht	wh/0455.bmp
238.32	0.72	322	2	4	3	per	lib	low	mod	low	tg	ht	wh/0040.bmp
239.04	0.72	323	3	2	120	per	con	low	mod	low	nt	cr	nh/0529_nh.bmp
239.76	0.72	324	3	3	98	per	con	mod	mod	mod	nt	cr	nh/0463_nh.bmp
240.48	0.72	325	4	3	95	mem	lib	mod	mod	mod	nt	ht	nh/0637_nh.bmp
241.20	0.72	326	3	1	58	per	lib	low	mod	low	tg	ht	wh/0177.bmp
241.92	0.72	327	2	1	35	mem	con	mod	mod	mod	nt	ht	nh/0414_nh.bmp
242.64	0.72	328	4	2	66	per	lib	mod	mod	mod	nt	cr	nh/0878_nh.bmp
243.36	0.72	329	2	2	121	per	con	low	mod	low	nt	cr	nh/0128_nh.bmp
244.08	0.72	330	2	1	107	mem	lib	mod	mod	mod	tg	ht	wh/0429.bmp
244.80	0.72	331	3	1	78	per	con	mod	mod	mod	nt	cr	nh/0001_nh.bmp
245.52	0.72	332	2	4	38	per	con	low	mod	low	nt	cr	nh/0435_nh.bmp
246.24	0.72	333	5	3	95	mem	lib	mod	mod	mod	nt	ht	nh/0637_nh.bmp
246.96	0.72	334	2	4	78	mem	con	mod	mod	low	nt	ht	nh/0116_nh.bmp
247.68	0.72	335	3	1	64	per	lib	low	mod	low	tg	ht	wh/0217.bmp
248.40	0.72	336	4	2	115	per	con	low	mod	low	tg	ms	wh/0019.bmp
249.12	0.72	337	3	1	35	mem	con	mod	mod	mod	nt	ht	nh/0414_nh.bmp
249.84	0.72	338	4	3	113	mem	con	mod	mod	mod	tg	ht	wh/0775.bmp
250.56	0.72	339	4	1	58	per	lib	low	mod	low	tg	ht	wh/0177.bmp
251.28	0.72	340	3	1	110	mem	lib	mod	mod	mod	nt	ms	nh/0658_nh.bmp
252.00	0.72	341	2	2	91	mem	con	mod	mod	low	nt	ms	nh/0387_nh.bmp
252.72	0.72	342	1	1	71	per	con	mod	mod	mod	nt	cr	nh/0425_nh.bmp
253.44	0.72	343	3	1	105	mem	lib	mod	mod	mod	nt	ht	nh/0899_nh.bmp
254.16	0.72	344	1	1	86	mem	lib	low	low	mod	tg	ms	wh/0960.bmp
254.88	0.72	345	2	2	118	per	con	low	mod	low	tg	ht	wh/0377.bmp
255.60	0.72	346	3	1	39	mem	con	mod	mod	mod	nt	ht	nh/0391_nh.bmp
256.32	0.72	347	1	1	104	mem	lib	mod	mod	mod	tg	ht	wh/0098.bmp
257.04	0.72	348	4	4	88	mem	lib	mod	mod	low	tg	ht	wh/0265.bmp
257.76	0.72	349	1	2	61	mem	lib	low	low	low	tg	ht	wh/0788.bmp
258.48	0.72	350	3	1	60	per	lib	low	mod	low	nt	cr	nh/0341_nh.bmp
259.20	0.72	351	1	4	100	mem	con	low	low	mod	tg	ms	wh/0149.bmp
259.92	0.72	352	5	1	58	per	lib	low	mod	low	tg	ht	wh/0177.bmp
260.64	0.72	353	3	3	39	per	lib	mod	mod	mod	tg	ht	wh/0002.bmp
261.36	0.72	354	2	3	118	mem	con	mod	mod	mod	nt	ms	nh/0959_nh.bmp
262.08	0.72	355	3	3	101	per	con	mod	mod	mod	tg	ms	wh/0561.bmp
262.80	0.72	356	1	2	54	mem	lib	low	low	low	nt	ms	nh/0191_nh.bmp
263.52	0.72	357	1	2	43	mem	lib	mod	mod	low	nt	ht	nh/0853_nh.bmp
264.24	0.72	358	2	3	107	per	con	mod	mod	mod	tg	ht	wh/0204.bmp
264.96	0.72	359	1	1	101	mem	lib	mod	mod	mod	nt	ht	nh/0289_nh.bmp
265.68	0.72	360	3	4	70	mem	con	mod	mod	low	nt	ms	nh/0727_nh.bmp
266.40	0.72	361	4	3	116	mem	con	mod	mod	mod	nt	ht	nh/0017_nh.bmp
267.12	0.72	362	1	4	89	mem	lib	mod	mod	low	nt	ht	nh/0897_nh.bmp
267.84	0.72	363	4	1	47	mem	con	mod	mod	mod	tg	ht	wh/0466.bmp
268.56	0.72	364	2	4	83	mem	lib	mod	mod	low	nt	ht	nh/0298_nh.bmp
269.28	0.72	365	4	1	99	mem	lib	mod	mod	mod	nt	ht	nh/0621_nh.bmp
270.00	0.72	366	1	3	42	per	lib	mod	mod	mod	nt	cr	nh/0596_nh.bmp
270.72	0.72	367	4	1	39	mem	con	mod	mod	mod	nt	ht	nh/0391_nh.bmp
271.44	0.72	368	5	2	67	per	lib	mod	mod	mod	tg	ms	wh/0070.bmp
272.16	0.72	369	3	4	6	per	lib	low	mod	low	tg	ht	wh/0027.bmp
272.88	0.72	370	2	2	89	mem	con	mod	mod	low	tg	n/a	wh/0231.bmp
273.60	0.72	371	6	2	67	per	lib	mod	mod	mod	tg	ms	wh/0070.bmp
274.32	0.72	372	4	3	82	mem	lib	mod	mod	mod	tg	ht	wh/0473.bmp
275.04	0.72	373	2	1	70	per	con	mod	mod	mod	tg	ht	wh/0642.bmp
275.76	0.72	374	3	3	126	mem	con	mod	mod	mod	nt	ms	nh/0975_nh.bmp
276.48	0.72	375	3	1	65	per	con	mod	mod	mod	nt	cr	nh/0955_nh.bmp
277.20	0.72	376	4	1	35	mem	con	mod	mod	mod	nt	ht	nh/0414_nh.bmp
277.92	0.72	377	4	1	65	per	con	mod	mod	mod	nt	cr	nh/0955_nh.bmp
278.64	0.72	378	3	4	76	mem	con	mod	mod	low	tg	ht	wh/0455.bmp
279.36	0.72	379	2	4	44	per	con	low	mod	low	nt	cr	nh/0133_nh.bmp
280.08	0.72	380	3	4	9	per	lib	low	mod	low	nt	cr	nh/0178_nh.bmp
280.80	0.72	381	4	3	38	per	lib	mod	mod	mod	nt	cr	nh/0879_nh.bmp
281.52	0.72	382	1	2	32	per	con	mod	low	mod	tg	ht	wh/0740.bmp
282.24	0.72	383	5	3	38	per	lib	mod	mod	mod	nt	cr	nh/0879_nh.bmp
282.96	0.72	384	4	1	105	mem	lib	mod	mod	mod	nt	ht	nh/0899_nh.bmp
283.68	0.72	385	4	3	88	mem	lib	mod	mod	mod	tg	ht	wh/0100.bmp
284.40	0.72	386	3	2	121	per	con	low	mod	low	nt	cr	nh/0128_nh.bmp
285.12	0.72	387	5	4	45	per	con	low	mod	low	tg	ms	wh/0031.bmp
285.84	0.72	388	3	4	66	mem	con	mod	mod	low	tg	ht	wh/0755.bmp
286.56	0.72	389	4	1	41	mem	con	mod	mod	mod	nt	ht	nh/0605_nh.bmp
287.28	0.72	390	4	3	83	mem	lib	mod	mod	mod	tg	ht	wh/0183.bmp
288.00	0.72	391	4	3	108	per	con	mod	mod	mod	nt	cr	nh/0785_nh.bmp
288.72	0.72	392	1	3	67	per	lib	low	low	low	tg	ht	wh/0485.bmp
289.44	0.72	393	3	2	45	mem	lib	mod	mod	low	nt	ht	nh/0769_nh.bmp
290.16	0.72	394	1	3	112	per	con	mod	mod	mod	tg	ms	wh/0841.bmp
290.88	0.72	395	2	4	37	per	con	low	mod	low	tg	ms	wh/0163.bmp
291.60	0.72	396	5	1	50	per	lib	low	mod	low	tg	ht	wh/0739.bmp
292.32	0.72	397	4	3	48	per	lib	mod	mod	mod	tg	ht	wh/0920.bmp
293.04	0.72	398	4	4	9	per	lib	low	mod	low	nt	cr	nh/0178_nh.bmp
293.76	0.72	399	1	3	12	per	con	low	low	low	nt	cr	nh/0499_nh.bmp
294.48	0.72	400	5	2	65	per	lib	mod	mod	mod	nt	cr	nh/0287_nh.bmp
295.20	0.72	401	4	1	77	per	con	mod	mod	mod	tg	ht	wh/0896.bmp
295.92	0.72	402	1	2	57	mem	lib	low	low	low	tg	ms	wh/0662.bmp
296.64	0.72	403	4	3	94	mem	lib	mod	mod	mod	tg	ht	wh/0750.bmp
297.36	0.72	404	2	1	104	mem	lib	mod	mod	mod	tg	ht	wh/0098.bmp
298.08	0.72	405	4	3	126	mem	con	mod	mod	mod	nt	ms	nh/0975_nh.bmp
298.80	0.72	406	1	4	28	per	con	mod	low	mod	nt	cr	nh/0324_nh.bmp
299.52	0.72	407	1	1	84	mem	lib	low	low	mod	tg	ms	wh/0725.bmp
300.24	0.72	408	2	3	114	mem	con	mod	mod	mod	tg	ms	wh/0189.bmp
300.96	0.72	409	4	3	84	mem	lib	mod	mod	mod	nt	ht	nh/0884_nh.bmp
301.68	0.72	410	1	1	91	mem	lib	low	low	mod	nt	ht	nh/0047_nh.bmp
302.40	0.72	411	2	2	40	mem	lib	mod	mod	low	nt	ht	nh/0573_nh.bmp
303.12	0.72	412	5	3	48	per	lib	mod	mod	mod	tg	ht	wh/0920.bmp
303.84	0.72	413	4	1	64	per	lib	low	mod	low	tg	ht	wh/0217.bmp
304.56	0.72	414	5	3	84	mem	lib	mod	mod	mod	nt	ht	nh/0884_nh.bmp
305.28	0.72	415	4	3	99	per	con	mod	mod	mod	tg	ht	wh/0585.bmp
306.00	0.72	416	1	4	32	per	con	mod	low	mod	tg	ht	wh/0553.bmp
306.72	0.72	417	6	1	50	per	lib	low	mod	low	tg	ht	wh/0739.bmp
307.44	0.72	418	2	4	14	per	lib	low	mod	low	tg	ht	wh/0115.bmp
308.16	0.72	419	4	1	60	per	lib	low	mod	low	nt	cr	nh/0341_nh.bmp
308.88	0.72	420	6	1	58	per	lib	low	mod	low	tg	ht	wh/0177.bmp
309.60	0.72	421	4	2	73	per	lib	mod	mod	mod	tg	ht	wh/0919.bmp
310.32	0.72	422	3	2	126	per	con	low	mod	low	tg	ms	wh/0997.bmp
311.04	0.72	423	4	1	80	per	con	mod	mod	mod	tg	ht	wh/0935.bmp
311.76	0.72	424	2	2	37	mem	lib	mod	mod	low	tg	ht	wh/0251.bmp
312.48	0.72	425	3	1	70	per	con	mod	mod	mod	tg	ht	wh/0642.bmp
313.20	0.72	426	3	1	46	mem	con	mod	mod	mod	tg	ht	wh/0681.bmp
313.92	0.72	427	3	3	107	per	con	mod	mod	mod	tg	ht	wh/0204.bmp
314.64	0.72	428	3	4	81	mem	lib	mod	mod	low	tg	ht	wh/0648.bmp
315.36	0.72	429	5	1	99	mem	lib	mod	mod	mod	nt	ht	nh/0621_nh.bmp
316.08	0.72	430	3	2	37	mem	lib	mod	mod	low	tg	ht	wh/0251.bmp
316.80	0.72	431	3	4	37	per	con	low	mod	low	tg	ms	wh/0163.bmp
317.52	0.72	432	1	4	51	mem	lib	low	low	mod	nt	ht	nh/0009_nh.bmp
318.24	0.72	433	4	2	126	per	con	low	mod	low	tg	ms	wh/0997.bmp
318.96	0.72	434	1	3	51	mem	con	low	low	low	nt	ms	nh/0794_nh.bmp
319.68	0.72	435	2	3	42	per	lib	mod	mod	mod	nt	cr	nh/0596_nh.bmp
320.40	0.72	436	2	1	71	per	con	mod	mod	mod	nt	cr	nh/0425_nh.bmp
321.12	0.72	437	6	3	84	mem	lib	mod	mod	mod	nt	ht	nh/0884_nh.bmp
321.84	0.72	438	4	2	121	per	con	low	mod	low	nt	cr	nh/0128_nh.bmp
322.56	0.72	439	2	2	39	mem	lib	mod	mod	low	nt	ht	nh/0472_nh.bmp
323.28	0.72	440	4	3	101	per	con	mod	mod	mod	tg	ms	wh/0561.bmp
324.00	0.72	441	1	2	70	per	lib	mod	mod	mod	tg	ht	wh/0938.bmp
324.72	0.72	442	5	3	99	per	con	mod	mod	mod	tg	ht	wh/0585.bmp
325.44	0.72	443	4	4	6	per	lib	low	mod	low	tg	ht	wh/0027.bmp
326.16	0.72	444	4	1	78	per	con	mod	mod	mod	nt	cr	nh/0001_nh.bmp
326.88	0.72	445	2	4	91	mem	lib	mod	mod	low	tg	ht	wh/0105.bmp
327.60	0.72	446	2	4	85	mem	lib	mod	mod	low	nt	ht	nh/0379_nh.bmp
328.32	0.72	447	5	1	61	per	lib	low	mod	low	nt	fa	nh/0868_nh.bmp
329.04	0.72	448	3	4	83	mem	lib	mod	mod	low	nt	ht	nh/0298_nh.bmp
329.76	0.72	449	3	3	118	mem	con	mod	mod	mod	nt	ms	nh/0959_nh.bmp
330.48	0.72	450	2	2	70	per	lib	mod	mod	mod	tg	ht	wh/0938.bmp
331.20	0.72	451	4	3	107	per	con	mod	mod	mod	tg	ht	wh/0204.bmp
331.92	0.72	452	5	3	126	mem	con	mod	mod	mod	nt	ms	nh/0975_nh.bmp
332.64	0.72	453	3	4	15	per	lib	low	mod	low	nt	cr	nh/0926_nh.bmp
333.36	0.72	454	4	4	76	mem	con	mod	mod	low	tg	ht	wh/0455.bmp
334.08	0.72	455	4	3	118	mem	con	mod	mod	mod	nt	ms	nh/0959_nh.bmp
334.80	0.72	456	3	1	71	per	con	mod	mod	mod	nt	cr	nh/0425_nh.bmp
335.52	0.72	457	5	3	94	mem	lib	mod	mod	mod	tg	ht	wh/0750.bmp
336.24	0.72	458	4	4	37	per	con	low	mod	low	tg	ms	wh/0163.bmp
336.96	0.72	459	4	3	98	per	con	mod	mod	mod	nt	cr	nh/0463_nh.bmp
337.68	0.72	460	4	4	84	mem	lib	mod	mod	low	tg	ht	wh/0932.bmp
338.40	0.72	461	3	2	118	per	con	low	mod	low	tg	ht	wh/0377.bmp
339.12	0.72	462	4	4	71	mem	con	mod	mod	low	tg	ms	wh/0205.bmp
339.84	0.72	463	1	2	52	mem	lib	low	low	low	nt	ht	nh/0722_nh.bmp
340.56	0.72	464	3	3	120	mem	con	mod	mod	mod	nt	ht	nh/0393_nh.bmp
341.28	0.72	465	3	2	81	mem	con	mod	mod	low	tg	ht	wh/0514.bmp
342.00	0.72	466	2	2	95	mem	con	mod	mod	low	tg	ht	wh/0325.bmp
342.72	0.72	467	1	1	27	mem	con	low	low	low	nt	ht	nh/0210_nh.bmp
343.44	0.72	468	1	1	22	mem	con	low	low	low	nt	ms	nh/0407_nh.bmp
344.16	0.72	469	3	1	43	mem	con	mod	mod	mod	tg	ht	wh/0981.bmp
344.88	0.72	470	3	1	107	mem	lib	mod	mod	mod	tg	ht	wh/0429.bmp
345.60	0.72	471	2	1	101	mem	lib	mod	mod	mod	nt	ht	nh/0289_nh.bmp
346.32	0.72	472	4	4	73	mem	con	mod	mod	low	nt	ms	nh/1021_nh.bmp
347.04	0.72	473	1	1	30	mem	con	low	low	low	nt	ms	nh/0065_nh.bmp
347.76	0.72	474	4	1	43	mem	con	mod	mod	mod	tg	ht	wh/0981.bmp
348.48	0.72	475	5	3	113	mem	con	mod	mod	mod	tg	ht	wh/0775.bmp
349.20	0.72	476	3	2	40	mem	lib	mod	mod	low	nt	ht	nh/0573_nh.bmp
349.92	0.72	477	3	4	40	per	con	low	mod	low	nt	cr	nh/0155_nh.bmp
350.64	0.72	478	1	4	19	per	con	mod	low	mod	nt	cr	nh/0659_nh.bmp
351.36	0.72	479	4	3	39	per	lib	mod	mod	mod	tg	ht	wh/0002.bmp
352.08	0.72	480	5	3	82	mem	lib	mod	mod	mod	tg	ht	wh/0473.bmp
352.80	0.72	481	6	3	95	mem	lib	mod	mod	mod	nt	ht	nh/0637_nh.bmp
353.52	0.72	482	3	2	42	mem	lib	mod	mod	low	tg	ht	wh/0233.bmp
354.24	0.72	483	3	1	62	per	lib	low	mod	low	nt	fa	nh/0421_nh.bmp
354.96	0.72	484	3	2	89	mem	con	mod	mod	low	tg	n/a	wh/0231.bmp
355.68	0.72	485	3	1	79	per	con	mod	mod	mod	tg	ms	wh/0984.bmp
356.40	0.72	486	1	3	60	mem	con	low	low	low	tg	ms	wh/0121.bmp
357.12	0.72	487	5	4	73	mem	con	mod	mod	low	nt	ms	nh/1021_nh.bmp
357.84	0.72	488	4	1	71	per	con	mod	mod	mod	nt	cr	nh/0425_nh.bmp
358.56	0.72	489	3	4	78	mem	con	mod	mod	low	nt	ht	nh/0116_nh.bmp
359.28	0.72	490	1	3	32	mem	lib	low	low	low	tg	ht	wh/0786.bmp
360.00	0.72	491	5	2	66	per	lib	mod	mod	mod	nt	cr	nh/0878_nh.bmp
360.72	0.72	492	5	1	71	per	con	mod	mod	mod	nt	cr	nh/0425_nh.bmp
361.44	0.72	493	5	3	118	mem	con	mod	mod	mod	nt	ms	nh/0959_nh.bmp
362.16	0.72	494	5	1	64	per	lib	low	mod	low	tg	ht	wh/0217.bmp
362.88	0.72	495	3	4	44	per	con	low	mod	low	nt	cr	nh/0133_nh.bmp
363.60	0.72	496	5	4	13	per	lib	low	mod	low	nt	fa	nh/0649_nh.bmp
364.32	0.72	497	3	4	14	per	lib	low	mod	low	tg	ht	wh/0115.bmp
365.04	0.72	498	4	1	107	mem	lib	mod	mod	mod	tg	ht	wh/0429.bmp
365.76	0.72	499	2	3	117	mem	con	mod	mod	mod	tg	ms	wh/0274.bmp
366.48	0.72	500	3	3	117	mem	con	mod	mod	mod	tg	ms	wh/0274.bmp
367.20	0.72	501	1	4	106	mem	con	low	low	mod	nt	ht	nh/0856_nh.bmp
367.92	0.72	502	1	2	104	mem	con	low	low	mod	tg	ms	wh/0873.bmp
368.64	0.72	503	1	1	83	mem	lib	low	low	mod	nt	ht	nh/0332_nh.bmp
369.36	0.72	504	3	4	91	mem	lib	mod	mod	low	tg	ht	wh/0105.bmp
370.08	0.72	505	4	4	40	per	con	low	mod	low	nt	cr	nh/0155_nh.bmp
370.80	0.72	506	4	2	89	mem	con	mod	mod	low	tg	n/a	wh/0231.bmp
371.52	0.72	507	1	3	75	per	lib	low	low	low	tg	ht	wh/0008.bmp
372.24	0.72	508	4	2	42	mem	lib	mod	mod	low	tg	ht	wh/0233.bmp
372.96	0.72	509	3	3	96	mem	lib	mod	mod	mod	nt	ht	nh/0679_nh.bmp
373.68	0.72	510	2	2	43	mem	lib	mod	mod	low	nt	ht	nh/0853_nh.bmp
374.40	0.72	511	3	4	3	per	lib	low	mod	low	tg	ht	wh/0040.bmp
375.12	0.72	512	5	3	107	per	con	mod	mod	mod	tg	ht	wh/0204.bmp
375.84	0.72	513	4	1	52	per	lib	low	mod	low	tg	ht	wh/0675.bmp
376.56	0.72	514	3	3	127	mem	con	mod	mod	mod	tg	ht	wh/0405.bmp
377.28	0.72	515	6	4	13	per	lib	low	mod	low	nt	fa	nh/0649_nh.bmp
378.00	0.72	516	3	3	111	per	con	mod	mod	mod	nt	cr	nh/0698_nh.bmp
378.72	0.72	517	5	3	108	per	con	mod	mod	mod	nt	cr	nh/0785_nh.bmp
379.44	0.72	518	4	4	91	mem	lib	mod	mod	low	tg	ht	wh/0105.bmp
380.16	0.72	519	1	2	7	per	lib	low	low	low	nt	fa	nh/0862_nh.bmp
380.88	0.72	520	3	4	85	mem	lib	mod	mod	low	nt	ht	nh/0379_nh.bmp
381.60	0.72	521	1	4	117	per	lib	mod	low	mod	tg	ms	wh/0476.bmp
382.32	0.72	522	1	4	127	per	lib	mod	low	mod	nt	cr	nh/0696_nh.bmp
383.04	0.72	523	4	2	45	mem	lib	mod	mod	low	nt	ht	nh/0769_nh.bmp
383.76	0.72	524	4	2	81	mem	con	mod	mod	low	tg	ht	wh/0514.bmp
384.48	0.72	525	3	2	95	mem	con	mod	mod	low	tg	ht	wh/0325.bmp
385.20	0.72	526	4	1	62	per	lib	low	mod	low	nt	fa	nh/0421_nh.bmp
385.92	0.72	527	4	2	95	mem	con	mod	mod	low	tg	ht	wh/0325.bmp
386.64	0.72	528	4	2	123	per	con	low	mod	low	tg	ms	wh/0597.bmp
387.36	0.72	529	1	1	3	per	con	low	low	low	nt	cr	nh/0456_nh.bmp
388.08	0.72	530	6	3	99	per	con	mod	mod	mod	tg	ht	wh/0585.bmp
388.80	0.72	531	2	1	109	mem	lib	mod	mod	mod	tg	ht	wh/0627.bmp
389.52	0.72	532	4	4	3	per	lib	low	mod	low	tg	ht	wh/0040.bmp
390.24	0.72	533	4	2	40	mem	lib	mod	mod	low	nt	ht	nh/0573_nh.bmp
390.96	0.72	534	4	4	70	mem	con	mod	mod	low	nt	ms	nh/0727_nh.bmp
391.68	0.72	535	3	3	46	per	lib	mod	mod	mod	tg	ms	wh/0724.bmp
392.40	0.72	536	4	4	42	per	con	low	mod	low	tg	ms	wh/0392.bmp
393.12	0.72	537	3	3	42	per	lib	mod	mod	mod	nt	cr	nh/0596_nh.bmp
393.84	0.72	538	5	2	123	per	con	low	mod	low	tg	ms	wh/0597.bmp
394.56	0.72	539	5	1	62	per	lib	low	mod	low	nt	fa	nh/0421_nh.bmp
395.28	0.72	540	1	2	106	mem	con	low	low	mod	nt	ht	nh/0288_nh.bmp
396.00	0.72	541	1	4	24	per	con	mod	low	mod	nt	cr	nh/0551_nh.bmp
396.72	0.72	542	2	3	112	per	con	mod	mod	mod	tg	ms	wh/0841.bmp
397.44	0.72	543	4	3	93	mem	lib	mod	mod	mod	nt	ht	nh/0942_nh.bmp
398.16	0.72	544	5	2	126	per	con	low	mod	low	tg	ms	wh/0997.bmp
398.88	0.72	545	2	3	45	per	lib	mod	mod	mod	nt	fa	nh/0162_nh.bmp
399.60	0.72	546	4	4	85	mem	lib	mod	mod	low	nt	ht	nh/0379_nh.bmp
400.32	0.72	547	5	1	60	per	lib	low	mod	low	nt	cr	nh/0341_nh.bmp
401.04	0.72	548	3	3	45	per	lib	mod	mod	mod	nt	fa	nh/0162_nh.bmp
401.76	0.72	549	6	1	61	per	lib	low	mod	low	nt	fa	nh/0868_nh.bmp
402.48	0.72	550	3	4	43	per	con	low	mod	low	nt	cr	nh/0515_nh.bmp
403.20	0.72	551	1	2	18	per	con	mod	low	mod	tg	ms	wh/0303.bmp
403.92	0.72	552	3	1	109	mem	lib	mod	mod	mod	tg	ht	wh/0627.bmp
404.64	0.72	553	5	4	76	mem	con	mod	mod	low	tg	ht	wh/0455.bmp
405.36	0.72	554	5	2	81	mem	con	mod	mod	low	tg	ht	wh/0514.bmp
406.08	0.72	555	4	1	111	mem	lib	mod	mod	mod	tg	ht	wh/0692.bmp
406.80	0.72	556	5	3	101	per	con	mod	mod	mod	tg	ms	wh/0561.bmp
407.52	0.72	557	4	2	120	per	con	low	mod	low	nt	cr	nh/0529_nh.bmp
408.24	0.72	558	3	2	80	per	lib	mod	mod	mod	nt	fa	nh/0847_nh.bmp
408.96	0.72	559	4	2	37	mem	lib	mod	mod	low	tg	ht	wh/0251.bmp
409.68	0.72	560	1	1	126	per	lib	mod	low	mod	tg	ht	wh/0541.bmp
410.40	0.72	561	5	1	43	mem	con	mod	mod	mod	tg	ht	wh/0981.bmp
411.12	0.72	562	5	2	89	mem	con	mod	mod	low	tg	n/a	wh/0231.bmp
411.84	0.72	563	4	4	44	per	con	low	mod	low	nt	cr	nh/0133_nh.bmp
412.56	0.72	564	4	3	96	mem	lib	mod	mod	mod	nt	ht	nh/0679_nh.bmp
413.28	0.72	565	1	3	25	mem	lib	low	low	low	nt	ht	nh/0432_nh.bmp
414.00	0.72	566	2	4	8	per	lib	low	mod	low	tg	ht	wh/0741.bmp
414.72	0.72	567	1	1	88	mem	lib	low	low	mod	nt	ht	nh/0687_nh.bmp
415.44	0.72	568	3	2	70	per	lib	mod	mod	mod	tg	ht	wh/0938.bmp
416.16	0.72	569	4	3	105	per	con	mod	mod	mod	nt	cr	nh/0965_nh.bmp
416.88	0.72	570	1	4	112	mem	con	low	low	mod	nt	ms	nh/0218_nh.bmp
417.60	0.72	571	5	1	107	mem	lib	mod	mod	mod	tg	ht	wh/0429.bmp
418.32	0.72	572	5	1	80	per	con	mod	mod	mod	tg	ht	wh/0935.bmp
419.04	0.72	573	1	2	25	per	con	mod	low	mod	tg	ht	wh/0712.bmp
419.76	0.72	574	3	2	86	mem	con	mod	mod	low	nt	ht	nh/0766_nh.bmp
420.48	0.72	575	6	2	71	per	lib	mod	mod	mod	tg	ht	wh/0857.bmp
421.20	0.72	576	1	4	61	mem	lib	low	low	mod	tg	ms	wh/0885.bmp
421.92	0.72	577	4	3	111	per	con	mod	mod	mod	nt	cr	nh/0698_nh.bmp
422.64	0.72	578	1	1	117	per	lib	mod	low	mod	tg	ht	wh/0977.bmp
423.36	0.72	579	6	1	107	mem	lib	mod	mod	mod	tg	ht	wh/0429.bmp
424.08	0.72	580	1	3	57	mem	con	low	low	low	nt	ms	nh/1012_nh.bmp
424.80	0.72	581	5	4	70	mem	con	mod	mod	low	nt	ms	nh/0727_nh.bmp
425.52	0.72	582	3	2	39	mem	lib	mod	mod	low	nt	ht	nh/0472_nh.bmp
426.24	0.72	583	4	4	14	per	lib	low	mod	low	tg	ht	wh/0115.bmp
426.96	0.72	584	5	4	40	per	con	low	mod	low	nt	cr	nh/0155_nh.bmp
427.68	0.72	585	5	3	88	mem	lib	mod	mod	mod	tg	ht	wh/0100.bmp
428.40	0.72	586	3	3	112	per	con	mod	mod	mod	tg	ms	wh/0841.bmp
429.12	0.72	587	4	2	86	mem	con	mod	mod	low	nt	ht	nh/0766_nh.bmp
429.84	0.72	588	5	2	114	per	con	low	mod	low	nt	cr	nh/0066_nh.bmp
430.56	0.72	589	5	2	95	mem	con	mod	mod	low	tg	ht	wh/0325.bmp
431.28	0.72	590	4	1	46	mem	con	mod	mod	mod	tg	ht	wh/0681.bmp
432.00	0.72	591	5	1	65	per	con	mod	mod	mod	nt	cr	nh/0955_nh.bmp
432.72	0.72	592	1	1	120	per	lib	mod	low	mod	nt	cr	nh/0326_nh.bmp
433.44	0.72	593	5	2	45	mem	lib	mod	mod	low	nt	ht	nh/0769_nh.bmp
434.16	0.72	594	2	1	48	mem	con	mod	mod	mod	tg	ht	wh/0534.bmp
434.88	0.72	595	4	1	109	mem	lib	mod	mod	mod	tg	ht	wh/0627.bmp
435.60	0.72	596	2	4	74	mem	con	mod	mod	low	nt	ms	nh/0200_nh.bmp
436.32	0.72	597	5	1	59	per	lib	low	mod	low	nt	cr	nh/0733_nh.bmp
437.04	0.72	598	6	1	71	per	con	mod	mod	mod	nt	cr	nh/0425_nh.bmp
437.76	0.72	599	4	4	78	mem	con	mod	mod	low	nt	ht	nh/0116_nh.bmp
438.48	0.72	600	3	4	38	per	con	low	mod	low	nt	cr	nh/0435_nh.bmp
439.20	0.72	601	3	1	101	mem	lib	mod	mod	mod	nt	ht	nh/0289_nh.bmp
439.92	0.72	602	5	3	96	mem	lib	mod	mod	mod	nt	ht	nh/0679_nh.bmp
440.64	0.72	603	2	2	75	per	lib	mod	mod	mod	nt	cr	nh/0580_nh.bmp
441.36	0.72	604	5	1	111	mem	lib	mod	mod	mod	tg	ht	wh/0692.bmp
442.08	0.72	605	4	4	83	mem	lib	mod	mod	low	nt	ht	nh/0298_nh.bmp
442.80	0.72	606	4	1	110	mem	lib	mod	mod	mod	nt	ms	nh/0658_nh.bmp
443.52	0.72	607	5	4	44	per	con	low	mod	low	nt	cr	nh/0133_nh.bmp
444.24	0.72	608	4	3	127	mem	con	mod	mod	mod	tg	ht	wh/0405.bmp
444.96	0.72	609	6	1	43	mem	con	mod	mod	mod	tg	ht	wh/0981.bmp
445.68	0.72	610	5	3	98	per	con	mod	mod	mod	nt	cr	nh/0463_nh.bmp
446.40	0.72	611	4	3	46	per	lib	mod	mod	mod	tg	ms	wh/0724.bmp
447.12	0.72	612	6	1	111	mem	lib	mod	mod	mod	tg	ht	wh/0692.bmp
447.84	0.72	613	1	2	102	mem	con	low	low	mod	tg	ms	wh/0083.bmp
448.56	0.72	614	3	2	75	per	lib	mod	mod	mod	nt	cr	nh/0580_nh.bmp
449.28	0.72	615	5	1	35	mem	con	mod	mod	mod	nt	ht	nh/0414_nh.bmp
450.00	0.72	616	4	3	41	per	lib	mod	mod	mod	nt	fa	nh/0600_nh.bmp
450.72	0.72	617	5	3	83	mem	lib	mod	mod	mod	tg	ht	wh/0183.bmp
451.44	0.72	618	4	4	38	per	con	low	mod	low	nt	cr	nh/0435_nh.bmp
452.16	0.72	619	3	2	94	mem	con	mod	mod	low	nt	ht	nh/0156_nh.bmp
452.88	0.72	620	5	4	38	per	con	low	mod	low	nt	cr	nh/0435_nh.bmp
453.60	0.72	621	6	2	89	mem	con	mod	mod	low	tg	n/a	wh/0231.bmp
454.32	0.72	622	5	1	78	per	con	mod	mod	mod	nt	cr	nh/0001_nh.bmp
455.04	0.72	623	4	3	45	per	lib	mod	mod	mod	nt	fa	nh/0162_nh.bmp
455.76	0.72	624	6	3	96	mem	lib	mod	mod	mod	nt	ht	nh/0679_nh.bmp
456.48	0.72	625	1	2	53	mem	lib	low	low	low	tg	ht	wh/0777.bmp
457.20	0.72	626	3	4	92	mem	lib	mod	mod	low	nt	ht	nh/0704_nh.bmp
457.92	0.72	627	1	4	123	per	lib	mod	low	mod	tg	ht	wh/0322.bmp
458.64	0.72	628	4	2	94	mem	con	mod	mod	low	nt	ht	nh/0156_nh.bmp
459.36	0.72	629	6	2	92	mem	con	mod	mod	low	nt	ht	nh/0745_nh.bmp
460.08	0.72	630	5	1	52	per	lib	low	mod	low	tg	ht	wh/0675.bmp
460.80	0.72	631	5	4	9	per	lib	low	mod	low	nt	cr	nh/0178_nh.bmp
461.52	0.72	632	5	3	93	mem	lib	mod	mod	mod	nt	ht	nh/0942_nh.bmp
462.24	0.72	633	6	3	88	mem	lib	mod	mod	mod	tg	ht	wh/0100.bmp
462.96	0.72	634	1	4	26	per	con	mod	low	mod	tg	ms	wh/0752.bmp
463.68	0.72	635	5	3	127	mem	con	mod	mod	mod	tg	ht	wh/0405.bmp
464.40	0.72	636	1	1	81	mem	lib	low	low	mod	nt	ht	nh/0235_nh.bmp
465.12	0.72	637	4	3	42	per	lib	mod	mod	mod	nt	cr	nh/0596_nh.bmp
465.84	0.72	638	5	4	6	per	lib	low	mod	low	tg	ht	wh/0027.bmp
466.56	0.72	639	4	2	70	per	lib	mod	mod	mod	tg	ht	wh/0938.bmp
467.28	0.72	640	4	4	92	mem	lib	mod	mod	low	nt	ht	nh/0704_nh.bmp
468.00	0.72	641	5	4	3	per	lib	low	mod	low	tg	ht	wh/0040.bmp
468.72	0.72	642	6	1	64	per	lib	low	mod	low	tg	ht	wh/0217.bmp
469.44	0.72	643	4	1	101	mem	lib	mod	mod	mod	nt	ht	nh/0289_nh.bmp
470.16	0.72	644	6	3	48	per	lib	mod	mod	mod	tg	ht	wh/0920.bmp
470.88	0.72	645	1	1	5	per	con	low	low	low	nt	fa	nh/1001_nh.bmp
471.60	0.72	646	6	2	114	per	con	low	mod	low	nt	cr	nh/0066_nh.bmp
472.32	0.72	647	2	4	89	mem	lib	mod	mod	low	nt	ht	nh/0897_nh.bmp
473.04	0.72	648	4	4	15	per	lib	low	mod	low	nt	cr	nh/0926_nh.bmp
473.76	0.72	649	5	3	39	per	lib	mod	mod	mod	tg	ht	wh/0002.bmp
474.48	0.72	650	1	3	10	per	con	low	low	low	nt	cr	nh/0152_nh.bmp
475.20	0.72	651	6	1	59	per	lib	low	mod	low	nt	cr	nh/0733_nh.bmp
475.92	0.72	652	1	2	60	mem	lib	low	low	low	nt	ht	nh/0257_nh.bmp
476.64	0.72	653	5	3	45	per	lib	mod	mod	mod	nt	fa	nh/0162_nh.bmp
477.36	0.72	654	6	3	113	mem	con	mod	mod	mod	tg	ht	wh/0775.bmp
478.08	0.72	655	4	3	112	per	con	mod	mod	mod	tg	ms	wh/0841.bmp
478.80	0.72	656	5	2	86	mem	con	mod	mod	low	nt	ht	nh/0766_nh.bmp
479.52	0.72	657	5	3	111	per	con	mod	mod	mod	nt	cr	nh/0698_nh.bmp
480.24	0.72	658	5	3	112	per	con	mod	mod	mod	tg	ms	wh/0841.bmp
480.96	0.72	659	1	2	10	per	lib	low	low	low	tg	ms	wh/0709.bmp
481.68	0.72	660	5	2	121	per	con	low	mod	low	nt	cr	nh/0128_nh.bmp
482.40	0.72	661	4	4	66	mem	con	mod	mod	low	tg	ht	wh/0755.bmp
483.12	0.72	662	5	1	46	mem	con	mod	mod	mod	tg	ht	wh/0681.bmp
483.84	0.72	663	4	1	79	per	con	mod	mod	mod	tg	ms	wh/0984.bmp
484.56	0.72	664	1	2	3	per	lib	low	low	low	nt	fa	nh/0142_nh.bmp
485.28	0.72	665	5	1	79	per	con	mod	mod	mod	tg	ms	wh/0984.bmp
486.00	0.72	666	4	3	117	mem	con	mod	mod	mod	tg	ms	wh/0274.bmp
486.72	0.72	667	3	4	89	mem	lib	mod	mod	low	nt	ht	nh/0897_nh.bmp
487.44	0.72	668	6	3	38	per	lib	mod	mod	mod	nt	cr	nh/0879_nh.bmp
488.16	0.72	669	5	2	73	per	lib	mod	mod	mod	tg	ht	wh/0919.bmp
488.88	0.72	670	4	2	75	per	lib	mod	mod	mod	nt	cr	nh/0580_nh.bmp
489.60	0.72	671	4	1	70	per	con	mod	mod	mod	tg	ht	wh/0642.bmp
490.32	0.72	672	1	3	72	per	lib	low	low	low	tg	ht	wh/0979.bmp
491.04	0.72	673	3	2	43	mem	lib	mod	mod	low	nt	ht	nh/0853_nh.bmp
491.76	0.72	674	1	4	104	mem	con	low	low	mod	nt	ht	nh/0918_nh.bmp
492.48	0.72	675	4	4	81	mem	lib	mod	mod	low	tg	ht	wh/0648.bmp
493.20	0.72	676	2	1	72	per	con	mod	mod	mod	nt	cr	nh/0700_nh.bmp
493.92	0.72	677	5	1	105	mem	lib	mod	mod	mod	nt	ht	nh/0899_nh.bmp
494.64	0.72	678	6	4	9	per	lib	low	mod	low	nt	cr	nh/0178_nh.bmp
495.36	0.72	679	5	3	117	mem	con	mod	mod	mod	tg	ms	wh/0274.bmp
496.08	0.72	680	4	2	43	mem	lib	mod	mod	low	nt	ht	nh/0853_nh.bmp
496.80	0.72	681	5	4	71	mem	con	mod	mod	low	tg	ms	wh/0205.bmp
497.52	0.72	682	5	1	47	mem	con	mod	mod	mod	tg	ht	wh/0466.bmp
498.24	0.72	683	6	2	66	per	lib	mod	mod	mod	nt	cr	nh/0878_nh.bmp
498.96	0.72	684	6	1	79	per	con	mod	mod	mod	tg	ms	wh/0984.bmp
499.68	0.72	685	5	1	77	per	con	mod	mod	mod	tg	ht	wh/0896.bmp
500.40	0.72	686	3	3	114	mem	con	mod	mod	mod	tg	ms	wh/0189.bmp
501.12	0.72	687	5	4	66	mem	con	mod	mod	low	tg	ht	wh/0755.bmp
501.84	0.72	688	6	3	39	per	lib	mod	mod	mod	tg	ht	wh/0002.bmp
502.56	0.72	689	6	2	123	per	con	low	mod	low	tg	ms	wh/0597.bmp
503.28	0.72	690	5	4	92	mem	lib	mod	mod	low	nt	ht	nh/0704_nh.bmp
504.00	0.72	691	6	2	45	mem	lib	mod	mod	low	nt	ht	nh/0769_nh.bmp
504.72	0.72	692	5	1	39	mem	con	mod	mod	mod	nt	ht	nh/0391_nh.bmp
505.44	0.72	693	5	4	83	mem	lib	mod	mod	low	nt	ht	nh/0298_nh.bmp
506.16	0.72	694	3	1	72	per	con	mod	mod	mod	nt	cr	nh/0700_nh.bmp
506.88	0.72	695	1	1	13	per	con	low	low	low	tg	ht	wh/0140.bmp
507.60	0.72	696	6	3	126	mem	con	mod	mod	mod	nt	ms	nh/0975_nh.bmp
508.32	0.72	697	4	2	128	per	con	low	mod	low	nt	cr	nh/0816_nh.bmp
509.04	0.72	698	1	2	110	mem	con	low	low	mod	tg	ms	wh/0972.bmp
509.76	0.72	699	6	3	82	mem	lib	mod	mod	mod	tg	ht	wh/0473.bmp
510.48	0.72	700	4	4	43	per	con	low	mod	low	nt	cr	nh/0515_nh.bmp
511.20	0.72	701	5	4	14	per	lib	low	mod	low	tg	ht	wh/0115.bmp
511.92	0.72	702	5	4	88	mem	lib	mod	mod	low	tg	ht	wh/0265.bmp
512.64	0.72	703	6	1	105	mem	lib	mod	mod	mod	nt	ht	nh/0899_nh.bmp
513.36	0.72	704	1	2	2	per	lib	low	low	low	nt	fa	nh/0028_nh.bmp
514.08	0.72	705	6	2	95	mem	con	mod	mod	low	tg	ht	wh/0325.bmp
514.80	0.72	706	4	3	114	mem	con	mod	mod	mod	tg	ms	wh/0189.bmp
515.52	0.72	707	6	2	73	per	lib	mod	mod	mod	tg	ht	wh/0919.bmp
516.24	0.72	708	6	4	73	mem	con	mod	mod	low	nt	ms	nh/1021_nh.bmp
516.96	0.72	709	6	4	71	mem	con	mod	mod	low	tg	ms	wh/0205.bmp
517.68	0.72	710	3	4	8	per	lib	low	mod	low	tg	ht	wh/0741.bmp
518.40	0.72	711	5	2	43	mem	lib	mod	mod	low	nt	ht	nh/0853_nh.bmp
519.12	0.72	712	1	4	113	per	lib	mod	low	mod	tg	ht	wh/0974.bmp
519.84	0.72	713	6	4	76	mem	con	mod	mod	low	tg	ht	wh/0455.bmp
520.56	0.72	714	5	1	101	mem	lib	mod	mod	mod	nt	ht	nh/0289_nh.bmp
521.28	0.72	715	5	4	78	mem	con	mod	mod	low	nt	ht	nh/0116_nh.bmp
522.00	0.72	716	3	2	35	mem	lib	mod	mod	low	tg	ht	wh/0624.bmp
522.72	0.72	717	3	4	74	mem	con	mod	mod	low	nt	ms	nh/0200_nh.bmp
523.44	0.72	718	4	1	72	per	con	mod	mod	mod	nt	cr	nh/0700_nh.bmp
524.16	0.72	719	6	1	60	per	lib	low	mod	low	nt	cr	nh/0341_nh.bmp
524.88	0.72	720	3	1	104	mem	lib	mod	mod	mod	tg	ht	wh/0098.bmp
525.60	0.72	721	6	4	78	mem	con	mod	mod	low	nt	ht	nh/0116_nh.bmp
526.32	0.72	722	5	1	70	per	con	mod	mod	mod	tg	ht	wh/0642.bmp
527.04	0.72	723	3	1	48	mem	con	mod	mod	mod	tg	ht	wh/0534.bmp
527.76	0.72	724	5	2	37	mem	lib	mod	mod	low	tg	ht	wh/0251.bmp
528.48	0.72	725	4	2	39	mem	lib	mod	mod	low	nt	ht	nh/0472_nh.bmp
529.20	0.72	726	5	1	109	mem	lib	mod	mod	mod	tg	ht	wh/0627.bmp
529.92	0.72	727	6	4	14	per	lib	low	mod	low	tg	ht	wh/0115.bmp
530.64	0.72	728	5	1	110	mem	lib	mod	mod	mod	nt	ms	nh/0658_nh.bmp
531.36	0.72	729	1	3	70	per	lib	low	low	low	tg	ht	wh/0159.bmp
532.08	0.72	730	4	4	8	per	lib	low	mod	low	tg	ht	wh/0741.bmp
532.80	0.72	731	4	2	35	mem	lib	mod	mod	low	tg	ht	wh/0624.bmp
533.52	0.72	732	1	3	7	per	con	low	low	low	tg	ms	wh/0486.bmp
534.24	0.72	733	5	3	42	per	lib	mod	mod	mod	nt	cr	nh/0596_nh.bmp
534.96	0.72	734	6	4	45	per	con	low	mod	low	tg	ms	wh/0031.bmp
535.68	0.72	735	4	1	48	mem	con	mod	mod	mod	tg	ht	wh/0534.bmp
536.40	0.72	736	4	2	90	mem	con	mod	mod	low	tg	ht	wh/0145.bmp
537.12	0.72	737	3	2	91	mem	con	mod	mod	low	nt	ms	nh/0387_nh.bmp
537.84	0.72	738	4	1	104	mem	lib	mod	mod	mod	tg	ht	wh/0098.bmp
538.56	0.72	739	5	1	41	mem	con	mod	mod	mod	nt	ht	nh/0605_nh.bmp
539.28	0.72	740	4	4	89	mem	lib	mod	mod	low	nt	ht	nh/0897_nh.bmp
540.00	0.72	741	6	3	98	per	con	mod	mod	mod	nt	cr	nh/0463_nh.bmp
540.72	0.72	742	4	2	118	per	con	low	mod	low	tg	ht	wh/0377.bmp
541.44	0.72	743	6	3	117	mem	con	mod	mod	mod	tg	ms	wh/0274.bmp
542.16	0.72	744	6	1	110	mem	lib	mod	mod	mod	nt	ms	nh/0658_nh.bmp
542.88	0.72	745	5	4	85	mem	lib	mod	mod	low	nt	ht	nh/0379_nh.bmp
543.60	0.72	746	6	4	3	per	lib	low	mod	low	tg	ht	wh/0040.bmp
544.32	0.72	747	6	1	78	per	con	mod	mod	mod	nt	cr	nh/0001_nh.bmp
545.04	0.72	748	1	4	57	mem	lib	low	low	mod	nt	ms	nh/0550_nh.bmp
545.76	0.72	749	5	4	91	mem	lib	mod	mod	low	tg	ht	wh/0105.bmp
546.48	0.72	750	5	4	43	per	con	low	mod	low	nt	cr	nh/0515_nh.bmp
547.20	0.72	751	5	2	128	per	con	low	mod	low	nt	cr	nh/0816_nh.bmp
547.92	0.72	752	5	2	90	mem	con	mod	mod	low	tg	ht	wh/0145.bmp
548.64	0.72	753	6	1	65	per	con	mod	mod	mod	nt	cr	nh/0955_nh.bmp
549.36	0.72	754	4	2	91	mem	con	mod	mod	low	nt	ms	nh/0387_nh.bmp
550.08	0.72	755	6	2	126	per	con	low	mod	low	tg	ms	wh/0997.bmp
550.80	0.72	756	6	4	83	mem	lib	mod	mod	low	nt	ht	nh/0298_nh.bmp
551.52	0.72	757	5	1	72	per	con	mod	mod	mod	nt	cr	nh/0700_nh.bmp
552.24	0.72	758	4	4	74	mem	con	mod	mod	low	nt	ms	nh/0200_nh.bmp
552.96	0.72	759	6	3	45	per	lib	mod	mod	mod	nt	fa	nh/0162_nh.bmp
553.68	0.72	760	1	3	74	per	lib	low	low	low	nt	fa	nh/0996_nh.bmp
554.40	0.72	761	5	2	118	per	con	low	mod	low	tg	ht	wh/0377.bmp
555.12	0.72	762	5	4	42	per	con	low	mod	low	tg	ms	wh/0392.bmp
555.84	0.72	763	6	2	128	per	con	low	mod	low	nt	cr	nh/0816_nh.bmp
556.56	0.72	764	6	1	41	mem	con	mod	mod	mod	nt	ht	nh/0605_nh.bmp
557.28	0.72	765	6	4	40	per	con	low	mod	low	nt	cr	nh/0155_nh.bmp
558.00	0.72	766	6	1	101	mem	lib	mod	mod	mod	nt	ht	nh/0289_nh.bmp
558.72	0.72	767	5	2	40	mem	lib	mod	mod	low	nt	ht	nh/0573_nh.bmp
559.44	0.72	768	6	2	40	mem	lib	mod	mod	low	nt	ht	nh/0573_nh.bmp
560.16	0.72	769	5	1	48	mem	con	mod	mod	mod	tg	ht	wh/0534.bmp
560.88	0.72	770	5	2	115	per	con	low	mod	low	tg	ms	wh/0019.bmp
561.60	0.72	771	6	4	43	per	con	low	mod	low	nt	cr	nh/0515_nh.bmp
562.32	0.72	772	5	2	35	mem	lib	mod	mod	low	tg	ht	wh/0624.bmp
563.04	0.72	773	1	2	1	per	lib	low	low	low	tg	ht	wh/0057.bmp
563.76	0.72	774	6	1	46	mem	con	mod	mod	mod	tg	ht	wh/0681.bmp
564.48	0.72	775	5	4	89	mem	lib	mod	mod	low	nt	ht	nh/0897_nh.bmp
565.20	0.72	776	1	1	29	mem	con	low	low	low	tg	ht	wh/0800.bmp
565.92	0.72	777	5	3	114	mem	con	mod	mod	mod	tg	ms	wh/0189.bmp
566.64	0.72	778	5	2	120	per	con	low	mod	low	nt	cr	nh/0529_nh.bmp
567.36	0.72	779	6	3	107	per	con	mod	mod	mod	tg	ht	wh/0204.bmp
568.08	0.72	780	5	3	41	per	lib	mod	mod	mod	nt	fa	nh/0600_nh.bmp
568.80	0.72	781	5	4	15	per	lib	low	mod	low	nt	cr	nh/0926_nh.bmp
569.52	0.72	782	5	1	104	mem	lib	mod	mod	mod	tg	ht	wh/0098.bmp
570.24	0.72	783	6	3	94	mem	lib	mod	mod	mod	tg	ht	wh/0750.bmp
570.96	0.72	784	5	2	94	mem	con	mod	mod	low	nt	ht	nh/0156_nh.bmp
571.68	0.72	785	5	4	84	mem	lib	mod	mod	low	tg	ht	wh/0932.bmp
572.40	0.72	786	6	3	41	per	lib	mod	mod	mod	nt	fa	nh/0600_nh.bmp
573.12	0.72	787	5	2	91	mem	con	mod	mod	low	nt	ms	nh/0387_nh.bmp
573.84	0.72	788	1	2	16	per	lib	low	low	low	tg	ms	wh/0614.bmp
574.56	0.72	789	5	2	70	per	lib	mod	mod	mod	tg	ht	wh/0938.bmp
575.28	0.72	790	4	4	79	mem	con	mod	mod	low	tg	ht	wh/0168.bmp
576.00	0.72	791	6	3	111	per	con	mod	mod	mod	nt	cr	nh/0698_nh.bmp
576.72	0.72	792	1	4	122	per	lib	mod	low	mod	nt	cr	nh/0321_nh.bmp
577.44	0.72	793	4	2	80	per	lib	mod	mod	mod	nt	fa	nh/0847_nh.bmp
578.16	0.72	794	5	4	47	per	con	low	mod	low	tg	ms	wh/0353.bmp
578.88	0.72	795	6	2	37	mem	lib	mod	mod	low	tg	ht	wh/0251.bmp
579.60	0.72	796	5	3	105	per	con	mod	mod	mod	nt	cr	nh/0965_nh.bmp
580.32	0.72	797	5	2	42	mem	lib	mod	mod	low	tg	ht	wh/0233.bmp
581.04	0.72	798	1	4	31	per	con	mod	low	mod	nt	cr	nh/0087_nh.bmp
581.76	0.72	799	6	1	39	mem	con	mod	mod	mod	nt	ht	nh/0391_nh.bmp
582.48	0.72	800	6	3	93	mem	lib	mod	mod	mod	nt	ht	nh/0942_nh.bmp
583.20	0.72	801	6	3	108	per	con	mod	mod	mod	nt	cr	nh/0785_nh.bmp
583.92	0.72	802	5	4	74	mem	con	mod	mod	low	nt	ms	nh/0200_nh.bmp
584.64	0.72	803	6	4	74	mem	con	mod	mod	low	nt	ms	nh/0200_nh.bmp
585.36	0.72	804	6	3	127	mem	con	mod	mod	mod	tg	ht	wh/0405.bmp
586.08	0.72	805	6	4	84	mem	lib	mod	mod	low	tg	ht	wh/0932.bmp
586.80	0.72	806	6	1	62	per	lib	low	mod	low	nt	fa	nh/0421_nh.bmp
587.52	0.72	807	1	1	23	mem	con	low	low	low	nt	ms	nh/0307_nh.bmp
588.24	0.72	808	6	3	105	per	con	mod	mod	mod	nt	cr	nh/0965_nh.bmp
588.96	0.72	809	1	4	62	mem	lib	low	low	mod	nt	ms	nh/0406_nh.bmp
589.68	0.72	810	4	1	40	mem	con	mod	mod	mod	nt	ht	nh/0801_nh.bmp
590.40	0.72	811	6	3	118	mem	con	mod	mod	mod	nt	ms	nh/0959_nh.bmp
591.12	0.72	812	6	2	86	mem	con	mod	mod	low	nt	ht	nh/0766_nh.bmp
591.84	0.72	813	1	3	78	per	lib	low	low	low	nt	cr	nh/0747_nh.bmp
592.56	0.72	814	6	4	85	mem	lib	mod	mod	low	nt	ht	nh/0379_nh.bmp
593.28	0.72	815	5	4	79	mem	con	mod	mod	low	tg	ht	wh/0168.bmp
594.00	0.72	816	6	1	99	mem	lib	mod	mod	mod	nt	ht	nh/0621_nh.bmp
594.72	0.72	817	6	1	80	per	con	mod	mod	mod	tg	ht	wh/0935.bmp
595.44	0.72	818	5	3	116	mem	con	mod	mod	mod	nt	ht	nh/0017_nh.bmp
596.16	0.72	819	1	4	59	mem	lib	low	low	mod	tg	ht	wh/0449.bmp
596.88	0.72	820	5	4	81	mem	lib	mod	mod	low	tg	ht	wh/0648.bmp
597.60	0.72	821	6	3	116	mem	con	mod	mod	mod	nt	ht	nh/0017_nh.bmp
598.32	0.72	822	6	4	16	per	lib	low	mod	low	nt	cr	nh/0014_nh.bmp
599.04	0.72	823	6	2	35	mem	lib	mod	mod	low	tg	ht	wh/0624.bmp
599.76	0.72	824	1	1	12	per	con	low	low	low	nt	fa	nh/0522_nh.bmp
600.48	0.72	825	6	1	77	per	con	mod	mod	mod	tg	ht	wh/0896.bmp
601.20	0.72	826	5	2	80	per	lib	mod	mod	mod	nt	fa	nh/0847_nh.bmp
601.92	0.72	827	6	4	44	per	con	low	mod	low	nt	cr	nh/0133_nh.bmp
602.64	0.72	828	6	4	70	mem	con	mod	mod	low	nt	ms	nh/0727_nh.bmp
603.36	0.72	829	5	2	75	per	lib	mod	mod	mod	nt	cr	nh/0580_nh.bmp
604.08	0.72	830	1	1	121	per	lib	mod	low	mod	nt	cr	nh/0905_nh.bmp
604.80	0.72	831	1	2	22	per	con	mod	low	mod	nt	cr	nh/0850_nh.bmp
605.52	0.72	832	1	4	120	per	lib	mod	low	mod	nt	cr	nh/0527_nh.bmp
606.24	0.72	833	6	4	89	mem	lib	mod	mod	low	nt	ht	nh/0897_nh.bmp
606.96	0.72	834	1	3	17	mem	lib	low	low	low	nt	ht	nh/0015_nh.bmp
607.68	0.72	835	6	4	66	mem	con	mod	mod	low	tg	ht	wh/0755.bmp
608.40	0.72	836	6	3	112	per	con	mod	mod	mod	tg	ms	wh/0841.bmp
609.12	0.72	837	6	2	94	mem	con	mod	mod	low	nt	ht	nh/0156_nh.bmp
609.84	0.72	838	1	1	7	per	con	low	low	low	tg	ht	wh/0685.bmp
610.56	0.72	839	6	2	80	per	lib	mod	mod	mod	nt	fa	nh/0847_nh.bmp
611.28	0.72	840	6	2	75	per	lib	mod	mod	mod	nt	cr	nh/0580_nh.bmp
612.00	0.72	841	6	4	42	per	con	low	mod	low	tg	ms	wh/0392.bmp
612.72	0.72	842	1	1	94	mem	lib	low	low	mod	tg	ht	wh/0844.bmp
613.44	0.72	843	6	2	90	mem	con	mod	mod	low	tg	ht	wh/0145.bmp
614.16	0.72	844	6	1	48	mem	con	mod	mod	mod	tg	ht	wh/0534.bmp
614.88	0.72	845	6	2	70	per	lib	mod	mod	mod	tg	ht	wh/0938.bmp
615.60	0.72	846	6	1	109	mem	lib	mod	mod	mod	tg	ht	wh/0627.bmp
616.32	0.72	847	1	1	125	per	lib	mod	low	mod	tg	ht	wh/0912.bmp
617.04	0.72	848	6	4	47	per	con	low	mod	low	tg	ms	wh/0353.bmp
617.76	0.72	849	5	3	46	per	lib	mod	mod	mod	tg	ms	wh/0724.bmp
618.48	0.72	850	5	1	40	mem	con	mod	mod	mod	nt	ht	nh/0801_nh.bmp
619.20	0.72	851	1	4	109	mem	con	low	low	mod	tg	ms	wh/0589.bmp
619.92	0.72	852	1	3	29	mem	lib	low	low	low	tg	ht	wh/0790.bmp
620.64	0.72	853	6	2	118	per	con	low	mod	low	tg	ht	wh/0377.bmp
621.36	0.72	854	6	1	72	per	con	mod	mod	mod	nt	cr	nh/0700_nh.bmp
622.08	0.72	855	1	3	54	mem	con	low	low	low	tg	ms	wh/0817.bmp
622.80	0.72	856	6	4	38	per	con	low	mod	low	nt	cr	nh/0435_nh.bmp
623.52	0.72	857	1	3	49	mem	con	low	low	low	tg	ht	wh/1022.bmp
624.24	0.72	858	6	4	91	mem	lib	mod	mod	low	tg	ht	wh/0105.bmp
624.96	0.72	859	6	2	115	per	con	low	mod	low	tg	ms	wh/0019.bmp
625.68	0.72	860	6	1	70	per	con	mod	mod	mod	tg	ht	wh/0642.bmp
626.40	0.72	861	6	1	35	mem	con	mod	mod	mod	nt	ht	nh/0414_nh.bmp
627.12	0.72	862	6	4	6	per	lib	low	mod	low	tg	ht	wh/0027.bmp
627.84	0.72	863	6	3	83	mem	lib	mod	mod	mod	tg	ht	wh/0183.bmp
628.56	0.72	864	6	1	104	mem	lib	mod	mod	mod	tg	ht	wh/0098.bmp
629.28	0.72	865	5	4	8	per	lib	low	mod	low	tg	ht	wh/0741.bmp
630.00	0.72	866	5	2	39	mem	lib	mod	mod	low	nt	ht	nh/0472_nh.bmp
630.72	0.72	867	6	2	65	per	lib	mod	mod	mod	nt	cr	nh/0287_nh.bmp
631.44	0.72	868	6	2	81	mem	con	mod	mod	low	tg	ht	wh/0514.bmp
632.16	0.72	869	6	4	8	per	lib	low	mod	low	tg	ht	wh/0741.bmp
632.88	0.72	870	6	2	48	mem	lib	mod	mod	low	tg	ht	wh/0836.bmp
633.60	0.72	871	4	3	120	mem	con	mod	mod	mod	nt	ht	nh/0393_nh.bmp
634.32	0.72	872	6	2	42	mem	lib	mod	mod	low	tg	ht	wh/0233.bmp
635.04	0.72	873	6	3	42	per	lib	mod	mod	mod	nt	cr	nh/0596_nh.bmp
635.76	0.72	874	6	2	121	per	con	low	mod	low	nt	cr	nh/0128_nh.bmp
636.48	0.72	875	6	1	52	per	lib	low	mod	low	tg	ht	wh/0675.bmp
637.20	0.72	876	1	4	64	mem	lib	low	low	mod	tg	ht	wh/0228.bmp
637.92	0.72	877	6	1	40	mem	con	mod	mod	mod	nt	ht	nh/0801_nh.bmp
638.64	0.72	878	6	4	79	mem	con	mod	mod	low	tg	ht	wh/0168.bmp
639.36	0.72	879	6	2	43	mem	lib	mod	mod	low	nt	ht	nh/0853_nh.bmp
640.08	0.72	880	6	4	81	mem	lib	mod	mod	low	tg	ht	wh/0648.bmp
640.80	0.72	881	6	1	47	mem	con	mod	mod	mod	tg	ht	wh/0466.bmp
641.52	0.72	882	6	3	114	mem	con	mod	mod	mod	tg	ms	wh/0189.bmp
642.24	0.72	883	5	4	37	per	con	low	mod	low	tg	ms	wh/0163.bmp
642.96	0.72	884	5	3	120	mem	con	mod	mod	mod	nt	ht	nh/0393_nh.bmp
643.68	0.72	885	6	3	34	per	lib	mod	mod	mod	tg	ht	wh/0526.bmp
644.40	0.72	886	6	2	91	mem	con	mod	mod	low	nt	ms	nh/0387_nh.bmp
645.12	0.72	887	6	4	92	mem	lib	mod	mod	low	nt	ht	nh/0704_nh.bmp
645.84	0.72	888	6	4	37	per	con	low	mod	low	tg	ms	wh/0163.bmp
646.56	0.72	889	6	3	101	per	con	mod	mod	mod	tg	ms	wh/0561.bmp
647.28	0.72	890	6	3	46	per	lib	mod	mod	mod	tg	ms	wh/0724.bmp
648.00	0.72	891	1	2	27	per	con	mod	low	mod	tg	ht	wh/0866.bmp
648.72	0.72	892	6	4	88	mem	lib	mod	mod	low	tg	ht	wh/0265.bmp
649.44	0.72	893	6	2	120	per	con	low	mod	low	nt	cr	nh/0529_nh.bmp
650.16	0.72	894	6	2	39	mem	lib	mod	mod	low	nt	ht	nh/0472_nh.bmp
650.88	0.72	895	6	4	15	per	lib	low	mod	low	nt	cr	nh/0926_nh.bmp
651.60	0.72	896	6	3	120	mem	con	mod	mod	mod	nt	ht	nh/0393_nh.bmp
