onset	duration	trial	pres	ts_blk	ts_trl	task	crit	disc	mem_disc	per_disc	per_type	accuracy	stim_file
7.20	0.72	1	1	3	27	mem	lib	mod	mod	mod	tg	ht	wh/0785.bmp
7.92	0.72	2	1	2	76	per	lib	low	mod	low	nt	cr	nh/0231_nh.bmp
8.64	0.72	3	1	4	90	per	con	mod	mod	mod	tg	ht	wh/0884.bmp
9.36	0.72	4	1	1	85	mem	con	mod	mod	low	tg	ht	wh/0733.bmp
10.08	0.72	5	1	3	34	mem	con	mod	mod	mod	tg	ht	wh/0596.bmp
10.80	0.72	6	1	2	82	per	lib	mod	mod	mod	tg	ms	wh/0414.bmp
11.52	0.72	7	1	2	81	per	lib	mod	mod	mod	tg	ht	wh/0801.bmp
12.24	0.72	8	1	4	27	mem	lib	mod	mod	low	nt	ht	nh/0031_nh.bmp
12.96	0.72	9	1	4	98	mem	lib	low	low	mod	nt	ht	nh/0553_nh.bmp
13.68	0.72	10	1	1	31	per	con	mod	mod	mod	tg	ht	wh/0621.bmp
14.40	0.72	11	1	1	35	mem	lib	low	low	low	nt	ms	nh/0054_nh.bmp
15.12	0.72	12	1	2	47	mem	con	mod	mod	mod	tg	ms	wh/0878.bmp
15.84	0.72	13	1	4	42	per	con	low	mod	low	nt	cr	nh/0265_nh.bmp
16.56	0.72	14	1	2	88	per	lib	mod	mod	mod	tg	ht	wh/0391.bmp
17.28	0.72	15	1	3	85	per	lib	low	mod	low	nt	fa	nh/0205_nh.bmp
18.00	0.72	16	2	4	90	per	con	mod	mod	mod	tg	ht	wh/0884.bmp
18.72	0.72	17	1	4	45	per	con	low	mod	low	nt	cr	nh/0932_nh.bmp
19.44	0.72	18	1	4	24	mem	lib	mod	mod	low	tg	ht	wh/0515.bmp
20.16	0.72	19	1	4	30	mem	lib	mod	mod	low	nt	ms	nh/0163_nh.bmp
20.88	0.72	20	2	4	27	mem	lib	mod	mod	low	nt	ht	nh/0031_nh.bmp
21.60	0.72	21	1	2	1	mem	lib	mod	mod	mod	nt	ht	nh/0896_nh.bmp
22.32	0.72	22	2	3	85	per	lib	low	mod	low	nt	fa	nh/0205_nh.bmp
23.04	0.72	23	1	1	6	per	con	low	mod	low	nt	cr	nh/0624_nh.bmp
23.76	0.72	24	1	1	89	mem	con	mod	mod	low	tg	ms	wh/0868.bmp
24.48	0.72	25	1	3	18	mem	lib	mod	mod	mod	nt	ht	nh/0585_nh.bmp
25.20	0.72	26	1	2	77	per	lib	low	mod	low	nt	n/a	nh/0145_nh.bmp
25.92	0.72	27	1	1	7	per	con	low	mod	low	tg	ms	wh/0769.bmp
26.64	0.72	28	2	1	31	per	con	mod	mod	mod	tg	ht	wh/0621.bmp
27.36	0.72	29	1	1	19	per	con	mod	mod	mod	nt	cr	nh/0098_nh.bmp
28.08	0.72	30	1	2	7	mem	lib	mod	mod	mod	tg	ht	wh/0955.bmp
28.80	0.72	31	1	4	99	mem	lib	low	low	mod	nt	ht	nh/0296_nh.bmp
29.52	0.72	32	2	1	85	mem	con	mod	mod	low	tg	ht	wh/0733.bmp
30.24	0.72	33	3	1	31	per	con	mod	mod	mod	tg	ht	wh/0621.bmp
30.96	0.72	34	1	3	81	per	lib	low	mod	low	tg	ht	wh/0727.bmp
31.68	0.72	35	1	4	26	mem	lib	mod	mod	low	tg	ht	wh/0435.bmp
32.40	0.72	36	1	3	7	mem	con	low	low	low	nt	ms	nh/0979_nh.bmp
33.12	0.72	37	1	3	19	mem	lib	mod	mod	mod	nt	ht	nh/0204_nh.bmp
33.84	0.72	38	1	3	25	mem	lib	mod	mod	mod	tg	ht	wh/0965.bmp
34.56	0.72	39	1	2	94	per	lib	mod	mod	mod	tg	ms	wh/0605.bmp
35.28	0.72	40	1	1	23	per	con	mod	mod	mod	nt	cr	nh/0627_nh.bmp
36.00	0.72	41	1	2	36	mem	con	mod	mod	mod	tg	ht	wh/0287.bmp
36.72	0.72	42	1	4	88	per	con	mod	mod	mod	nt	cr	nh/0750_nh.bmp
37.44	0.72	43	1	1	68	per	lib	mod	low	mod	tg	ht	wh/0103.bmp
38.16	0.72	44	1	2	93	per	lib	mod	mod	mod	nt	fa	nh/0466_nh.bmp
38.88	0.72	45	1	2	11	mem	lib	mod	mod	mod	tg	ht	wh/0425.bmp
39.60	0.72	46	1	1	18	per	con	mod	mod	mod	nt	cr	nh/0429_nh.bmp
40.32	0.72	47	1	1	126	mem	con	low	low	low	tg	ms	wh/0862.bmp
41.04	0.72	48	3	4	90	per	con	mod	mod	mod	tg	ht	wh/0884.bmp
41.76	0.72	49	1	4	114	per	lib	low	low	low	tg	ht	wh/0794.bmp
42.48	0.72	50	1	2	43	mem	con	mod	mod	mod	nt	ms	nh/0938_nh.bmp
43.20	0.72	51	1	4	11	mem	con	low	low	mod	nt	ms	nh/0974_nh.bmp
43.92	0.72	52	1	3	48	mem	con	mod	mod	mod	nt	ht	nh/0920_nh.bmp
44.64	0.72	53	2	4	26	mem	lib	mod	mod	low	tg	ht	wh/0435.bmp
45.36	0.72	54	1	4	91	per	con	mod	mod	mod	tg	ht	wh/0679.bmp
46.08	0.72	55	1	4	34	per	con	low	mod	low	tg	ms	wh/0379.bmp
46.80	0.72	56	1	2	10	mem	lib	mod	mod	mod	nt	ht	nh/0642_nh.bmp
47.52	0.72	57	1	4	39	per	con	low	mod	low	tg	ms	wh/0298.bmp
48.24	0.72	58	1	4	83	per	con	mod	mod	mod	tg	ms	wh/0942.bmp
48.96	0.72	59	1	2	119	mem	con	low	low	mod	tg	ht	wh/0905.bmp
49.68	0.72	60	2	2	94	per	lib	mod	mod	mod	tg	ms	wh/0605.bmp
50.40	0.72	61	2	3	34	mem	con	mod	mod	mod	tg	ht	wh/0596.bmp
51.12	0.72	62	2	2	88	per	lib	mod	mod	mod	tg	ht	wh/0391.bmp
51.84	0.72	63	1	4	53	mem	con	mod	mod	low	nt	ht	nh/0027_nh.bmp
52.56	0.72	64	1	1	14	per	con	low	mod	low	nt	cr	nh/0836_nh.bmp
53.28	0.72	65	1	3	84	per	lib	low	mod	low	nt	fa	nh/0168_nh.bmp
54.00	0.72	66	1	1	11	per	con	low	mod	low	tg	ms	wh/0573.bmp
54.72	0.72	67	2	2	47	mem	con	mod	mod	mod	tg	ms	wh/0878.bmp
55.44	0.72	68	1	1	81	mem	con	mod	mod	low	nt	ms	nh/0675_nh.bmp
56.16	0.72	69	1	3	74	per	lib	mod	mod	mod	tg	ht	wh/0017.bmp
56.88	0.72	70	1	3	95	per	lib	low	mod	low	tg	ht	wh/0116.bmp
57.60	0.72	71	1	4	32	mem	lib	mod	mod	low	tg	ht	wh/0133.bmp
58.32	0.72	72	1	1	9	per	con	low	mod	low	nt	fa	nh/0233_nh.bmp
59.04	0.72	73	1	1	57	mem	lib	mod	mod	low	tg	ht	wh/0529.bmp
59.76	0.72	74	1	2	15	mem	lib	mod	mod	mod	tg	ht	wh/0700.bmp
60.48	0.72	75	2	2	43	mem	con	mod	mod	mod	nt	ms	nh/0938_nh.bmp
61.20	0.72	76	1	3	44	mem	con	mod	mod	mod	tg	ms	wh/0600.bmp
61.92	0.72	77	2	1	81	mem	con	mod	mod	low	nt	ms	nh/0675_nh.bmp
62.64	0.72	78	1	1	91	mem	con	mod	mod	low	tg	ht	wh/0341.bmp
63.36	0.72	79	2	3	81	per	lib	low	mod	low	tg	ht	wh/0727.bmp
64.08	0.72	80	1	3	41	mem	con	mod	mod	mod	nt	ht	nh/0724_nh.bmp
64.80	0.72	81	4	1	31	per	con	mod	mod	mod	tg	ht	wh/0621.bmp
65.52	0.72	82	1	4	21	mem	lib	mod	mod	low	tg	ht	wh/0155.bmp
66.24	0.72	83	1	4	119	per	lib	low	low	low	nt	cr	nh/1022_nh.bmp
66.96	0.72	84	1	3	35	mem	con	mod	mod	mod	nt	ht	nh/0526_nh.bmp
67.68	0.72	85	1	2	113	mem	con	low	low	mod	nt	ht	nh/0541_nh.bmp
68.40	0.72	86	1	2	97	per	con	mod	low	mod	tg	ht	wh/0687.bmp
69.12	0.72	87	2	3	44	mem	con	mod	mod	mod	tg	ms	wh/0600.bmp
69.84	0.72	88	2	1	6	per	con	low	mod	low	nt	cr	nh/0624_nh.bmp
70.56	0.72	89	1	1	84	mem	con	mod	mod	low	nt	ht	nh/0177_nh.bmp
71.28	0.72	90	1	2	8	mem	lib	mod	mod	mod	nt	ms	nh/0984_nh.bmp
72.00	0.72	91	1	1	54	mem	lib	mod	mod	low	tg	ht	wh/0128.bmp
72.72	0.72	92	1	3	43	mem	con	mod	mod	mod	nt	ht	nh/0002_nh.bmp
73.44	0.72	93	1	1	83	mem	con	mod	mod	low	nt	ht	nh/0217_nh.bmp
74.16	0.72	94	1	1	27	per	con	mod	mod	mod	tg	ht	wh/0899.bmp
74.88	0.72	95	2	1	91	mem	con	mod	mod	low	tg	ht	wh/0341.bmp
75.60	0.72	96	2	1	84	mem	con	mod	mod	low	nt	ht	nh/0177_nh.bmp
76.32	0.72	97	1	4	48	per	con	low	mod	low	nt	cr	nh/0105_nh.bmp
77.04	0.72	98	1	3	88	per	lib	low	mod	low	tg	ht	wh/1021.bmp
77.76	0.72	99	1	4	124	per	lib	low	low	low	nt	fa	nh/0121_nh.bmp
78.48	0.72	100	1	3	71	per	lib	mod	mod	mod	tg	ht	wh/0975.bmp
79.20	0.72	101	2	3	35	mem	con	mod	mod	mod	nt	ht	nh/0526_nh.bmp
79.92	0.72	102	2	1	19	per	con	mod	mod	mod	nt	cr	nh/0098_nh.bmp
80.64	0.72	103	1	3	66	per	lib	mod	mod	mod	nt	cr	nh/0405_nh.bmp
81.36	0.72	104	1	1	69	per	lib	mod	low	mod	tg	ms	wh/0311.bmp
82.08	0.72	105	2	3	18	mem	lib	mod	mod	mod	nt	ht	nh/0585_nh.bmp
82.80	0.72	106	2	2	93	per	lib	mod	mod	mod	nt	fa	nh/0466_nh.bmp
83.52	0.72	107	1	3	89	per	lib	low	mod	low	nt	fa	nh/0755_nh.bmp
84.24	0.72	108	1	3	72	per	lib	mod	mod	mod	nt	cr	nh/0189_nh.bmp
84.96	0.72	109	3	3	81	per	lib	low	mod	low	tg	ht	wh/0727.bmp
85.68	0.72	110	1	3	31	mem	lib	mod	mod	mod	nt	ht	nh/0561_nh.bmp
86.40	0.72	111	1	2	83	per	lib	mod	mod	mod	nt	n/a	nh/0534_nh.bmp
87.12	0.72	112	2	3	84	per	lib	low	mod	low	nt	fa	nh/0168_nh.bmp
87.84	0.72	113	1	4	37	per	con	low	mod	low	nt	cr	nh/0648_nh.bmp
88.56	0.72	114	1	3	80	per	lib	mod	mod	mod	nt	fa	nh/0274_nh.bmp
89.28	0.72	115	1	3	26	mem	lib	mod	mod	mod	tg	ht	wh/0698.bmp
90.00	0.72	116	4	4	90	per	con	mod	mod	mod	tg	ht	wh/0884.bmp
90.72	0.72	117	1	4	49	mem	con	mod	mod	low	tg	ms	wh/0178.bmp
91.44	0.72	118	2	3	74	per	lib	mod	mod	mod	tg	ht	wh/0017.bmp
92.16	0.72	119	2	4	91	per	con	mod	mod	mod	tg	ht	wh/0679.bmp
92.88	0.72	120	1	1	113	mem	con	low	low	low	nt	ms	nh/0709_nh.bmp
93.60	0.72	121	1	1	32	per	con	mod	mod	mod	nt	cr	nh/0692_nh.bmp
94.32	0.72	122	1	3	2	mem	con	low	low	low	tg	ms	wh/0119.bmp
95.04	0.72	123	1	1	76	per	lib	mod	low	mod	nt	cr	nh/0873_nh.bmp
95.76	0.72	124	1	1	122	mem	con	low	low	low	nt	ms	nh/0614_nh.bmp
96.48	0.72	125	1	4	29	mem	lib	mod	mod	low	nt	ht	nh/0353_nh.bmp
97.20	0.72	126	2	2	1	mem	lib	mod	mod	mod	nt	ht	nh/0896_nh.bmp
97.92	0.72	127	1	4	12	mem	con	low	low	mod	tg	ht	wh/0272.bmp
98.64	0.72	128	1	2	4	mem	lib	mod	mod	mod	nt	ht	nh/0935_nh.bmp
99.36	0.72	129	1	1	107	per	lib	low	low	low	nt	cr	nh/0800_nh.bmp
100.08	0.72	130	3	2	94	per	lib	mod	mod	mod	tg	ms	wh/0605.bmp
100.80	0.72	131	1	3	82	per	lib	low	mod	low	tg	ht	wh/0200.bmp
101.52	0.72	132	2	1	18	per	con	mod	mod	mod	nt	cr	nh/0429_nh.bmp
102.24	0.72	133	2	3	80	per	lib	mod	mod	mod	nt	fa	nh/0274_nh.bmp
102.96	0.72	134	1	2	38	mem	con	mod	mod	mod	nt	ht	nh/0919_nh.bmp
103.68	0.72	135	2	2	76	per	lib	low	mod	low	nt	cr	nh/0231_nh.bmp
104.40	0.72	136	2	1	7	per	con	low	mod	low	tg	ms	wh/0769.bmp
105.12	0.72	137	1	2	91	per	lib	mod	mod	mod	nt	cr	nh/0681_nh.bmp
105.84	0.72	138	2	4	32	mem	lib	mod	mod	low	tg	ht	wh/0133.bmp
106.56	0.72	139	3	1	19	per	con	mod	mod	mod	nt	cr	nh/0098_nh.bmp
107.28	0.72	140	1	2	27	mem	lib	low	low	mod	tg	ht	wh/0601.bmp
108.00	0.72	141	1	2	46	mem	con	mod	mod	mod	nt	ht	nh/0070_nh.bmp
108.72	0.72	142	3	1	7	per	con	low	mod	low	tg	ms	wh/0769.bmp
109.44	0.72	143	1	4	57	mem	con	mod	mod	low	nt	ht	nh/0115_nh.bmp
110.16	0.72	144	1	1	56	mem	lib	mod	mod	low	nt	ht	nh/0377_nh.bmp
110.88	0.72	145	4	3	81	per	lib	low	mod	low	tg	ht	wh/0727.bmp
111.60	0.72	146	1	1	90	mem	con	mod	mod	low	nt	ms	nh/0739_nh.bmp
112.32	0.72	147	1	4	121	per	lib	low	low	low	nt	fa	nh/0656_nh.bmp
113.04	0.72	148	1	2	65	per	lib	low	mod	low	tg	ms	wh/0156.bmp
113.76	0.72	149	3	1	18	per	con	mod	mod	mod	nt	cr	nh/0429_nh.bmp
114.48	0.72	150	2	1	54	mem	lib	mod	mod	low	tg	ht	wh/0128.bmp
115.20	0.72	151	1	4	51	mem	con	mod	mod	low	tg	ht	wh/0014.bmp
115.92	0.72	152	3	3	34	mem	con	mod	mod	mod	tg	ht	wh/0596.bmp
116.64	0.72	153	1	3	104	per	con	low	low	low	tg	ms	wh/0015.bmp
117.36	0.72	154	2	3	95	per	lib	low	mod	low	tg	ht	wh/0116.bmp
118.08	0.72	155	1	3	53	mem	lib	low	low	low	nt	ht	nh/0486_nh.bmp
118.80	0.72	156	1	2	6	mem	lib	mod	mod	mod	tg	ht	wh/0001.bmp
119.52	0.72	157	2	3	41	mem	con	mod	mod	mod	nt	ht	nh/0724_nh.bmp
120.24	0.72	158	2	2	38	mem	con	mod	mod	mod	nt	ht	nh/0919_nh.bmp
120.96	0.72	159	2	2	11	mem	lib	mod	mod	mod	tg	ht	wh/0425.bmp
121.68	0.72	160	1	2	33	mem	con	mod	mod	mod	tg	ht	wh/0847.bmp
122.40	0.72	161	1	4	66	per	lib	mod	low	mod	nt	fa	nh/0922_nh.bmp
123.12	0.72	162	1	1	13	per	con	low	mod	low	tg	ms	wh/0472.bmp
123.84	0.72	163	2	2	77	per	lib	low	mod	low	nt	n/a	nh/0145_nh.bmp
124.56	0.72	164	2	2	6	mem	lib	mod	mod	mod	tg	ht	wh/0001.bmp
125.28	0.72	165	3	2	1	mem	lib	mod	mod	mod	nt	ht	nh/0896_nh.bmp
126.00	0.72	166	3	2	43	mem	con	mod	mod	mod	nt	ms	nh/0938_nh.bmp
126.72	0.72	167	1	3	100	per	con	low	low	low	nt	cr	nh/0076_nh.bmp
127.44	0.72	168	2	4	42	per	con	low	mod	low	nt	cr	nh/0265_nh.bmp
128.16	0.72	169	2	2	65	per	lib	low	mod	low	tg	ms	wh/0156.bmp
128.88	0.72	170	4	2	43	mem	con	mod	mod	mod	nt	ms	nh/0938_nh.bmp
129.60	0.72	171	1	3	30	mem	lib	mod	mod	mod	tg	ht	wh/0463.bmp
130.32	0.72	172	2	3	72	per	lib	mod	mod	mod	nt	cr	nh/0189_nh.bmp
131.04	0.72	173	1	3	67	per	lib	mod	mod	mod	nt	cr	nh/0775_nh.bmp
131.76	0.72	174	1	2	55	per	con	low	low	low	tg	ms	wh/0654.bmp
132.48	0.72	175	2	3	27	mem	lib	mod	mod	mod	tg	ht	wh/0785.bmp
133.20	0.72	176	1	4	109	mem	lib	low	low	mod	tg	ht	wh/0087.bmp
133.92	0.72	177	2	3	89	per	lib	low	mod	low	nt	fa	nh/0755_nh.bmp
134.64	0.72	178	2	2	15	mem	lib	mod	mod	mod	tg	ht	wh/0700.bmp
135.36	0.72	179	2	3	66	per	lib	mod	mod	mod	nt	cr	nh/0405_nh.bmp
136.08	0.72	180	2	1	14	per	con	low	mod	low	nt	cr	nh/0836_nh.bmp
136.80	0.72	181	1	4	85	per	con	mod	mod	mod	tg	ms	wh/0637.bmp
137.52	0.72	182	1	3	24	mem	lib	mod	mod	mod	nt	ht	nh/0841_nh.bmp
138.24	0.72	183	1	4	31	mem	lib	mod	mod	low	nt	ht	nh/0392_nh.bmp
138.96	0.72	184	2	1	90	mem	con	mod	mod	low	nt	ms	nh/0739_nh.bmp
139.68	0.72	185	3	2	47	mem	con	mod	mod	mod	tg	ms	wh/0878.bmp
140.40	0.72	186	4	2	47	mem	con	mod	mod	mod	tg	ms	wh/0878.bmp
141.12	0.72	187	5	1	31	per	con	mod	mod	mod	tg	ht	wh/0621.bmp
141.84	0.72	188	1	1	98	per	lib	low	low	low	tg	ms	wh/0407.bmp
142.56	0.72	189	4	2	94	per	lib	mod	mod	mod	tg	ms	wh/0605.bmp
143.28	0.72	190	5	2	47	mem	con	mod	mod	mod	tg	ms	wh/0878.bmp
144.00	0.72	191	3	3	84	per	lib	low	mod	low	nt	fa	nh/0168_nh.bmp
144.72	0.72	192	2	2	36	mem	con	mod	mod	mod	tg	ht	wh/0287.bmp
145.44	0.72	193	1	4	58	mem	con	mod	mod	low	tg	ht	wh/0926.bmp
146.16	0.72	194	3	4	91	per	con	mod	mod	mod	tg	ht	wh/0679.bmp
146.88	0.72	195	1	2	85	per	lib	mod	mod	mod	nt	cr	nh/0981_nh.bmp
147.60	0.72	196	3	2	77	per	lib	low	mod	low	nt	n/a	nh/0145_nh.bmp
148.32	0.72	197	3	3	95	per	lib	low	mod	low	tg	ht	wh/0116.bmp
149.04	0.72	198	1	1	2	per	con	low	mod	low	tg	ms	wh/0853.bmp
149.76	0.72	199	4	2	77	per	lib	low	mod	low	nt	n/a	nh/0145_nh.bmp
150.48	0.72	200	2	4	83	per	con	mod	mod	mod	tg	ms	wh/0942.bmp
151.20	0.72	201	2	1	23	per	con	mod	mod	mod	nt	cr	nh/0627_nh.bmp
151.92	0.72	202	1	1	117	mem	con	low	low	low	tg	ms	wh/0028.bmp
152.64	0.72	203	1	1	5	per	con	low	mod	low	nt	cr	nh/0251_nh.bmp
153.36	0.72	204	1	1	114	mem	con	low	low	low	nt	ms	nh/0057_nh.bmp
154.08	0.72	205	3	3	18	mem	lib	mod	mod	mod	nt	ht	nh/0585_nh.bmp
154.80	0.72	206	3	2	93	per	lib	mod	mod	mod	nt	fa	nh/0466_nh.bmp
155.52	0.72	207	2	4	29	mem	lib	mod	mod	low	nt	ht	nh/0353_nh.bmp
156.24	0.72	208	1	3	12	mem	con	low	low	low	nt	ms	nh/0008_nh.bmp
156.96	0.72	209	1	1	97	per	lib	low	low	low	tg	ht	wh/0210.bmp
157.68	0.72	210	3	2	65	per	lib	low	mod	low	tg	ms	wh/0156.bmp
158.40	0.72	211	2	1	2	per	con	low	mod	low	tg	ms	wh/0853.bmp
159.12	0.72	212	2	2	81	per	lib	mod	mod	mod	tg	ht	wh/0801.bmp
159.84	0.72	213	1	3	123	per	con	mod	low	mod	tg	ht	wh/0009.bmp
160.56	0.72	214	2	3	31	mem	lib	mod	mod	mod	nt	ht	nh/0561_nh.bmp
161.28	0.72	215	3	3	44	mem	con	mod	mod	mod	tg	ms	wh/0600.bmp
162.00	0.72	216	3	2	36	mem	con	mod	mod	mod	tg	ht	wh/0287.bmp
162.72	0.72	217	3	1	54	mem	lib	mod	mod	low	tg	ht	wh/0128.bmp
163.44	0.72	218	1	4	54	mem	con	mod	mod	low	nt	ht	nh/0741_nh.bmp
164.16	0.72	219	3	3	35	mem	con	mod	mod	mod	nt	ht	nh/0526_nh.bmp
164.88	0.72	220	3	4	29	mem	lib	mod	mod	low	nt	ht	nh/0353_nh.bmp
165.60	0.72	221	5	2	43	mem	con	mod	mod	mod	nt	ms	nh/0938_nh.bmp
166.32	0.72	222	1	2	69	per	lib	low	mod	low	nt	fa	nh/0325_nh.bmp
167.04	0.72	223	1	1	58	mem	lib	mod	mod	low	tg	ht	wh/0816.bmp
167.76	0.72	224	2	3	24	mem	lib	mod	mod	mod	nt	ht	nh/0841_nh.bmp
168.48	0.72	225	1	3	118	per	con	mod	low	mod	nt	cr	nh/0829_nh.bmp
169.20	0.72	226	4	2	65	per	lib	low	mod	low	tg	ms	wh/0156.bmp
169.92	0.72	227	2	3	67	per	lib	mod	mod	mod	nt	cr	nh/0775_nh.bmp
170.64	0.72	228	2	3	30	mem	lib	mod	mod	mod	tg	ht	wh/0463.bmp
171.36	0.72	229	1	1	28	per	con	mod	mod	mod	tg	ht	wh/0658.bmp
172.08	0.72	230	1	3	13	mem	con	low	low	low	tg	ms	wh/0747.bmp
172.80	0.72	231	1	4	40	per	con	low	mod	low	tg	ms	wh/0897.bmp
173.52	0.72	232	1	4	96	per	con	mod	mod	mod	nt	cr	nh/0183_nh.bmp
174.24	0.72	233	2	4	34	per	con	low	mod	low	tg	ms	wh/0379.bmp
174.96	0.72	234	2	2	91	per	lib	mod	mod	mod	nt	cr	nh/0681_nh.bmp
175.68	0.72	235	2	2	8	mem	lib	mod	mod	mod	nt	ms	nh/0984_nh.bmp
176.40	0.72	236	2	1	28	per	con	mod	mod	mod	tg	ht	wh/0658.bmp
177.12	0.72	237	2	3	43	mem	con	mod	mod	mod	nt	ht	nh/0002_nh.bmp
177.84	0.72	238	2	4	39	per	con	low	mod	low	tg	ms	wh/0298.bmp
178.56	0.72	239	2	4	51	mem	con	mod	mod	low	tg	ht	wh/0014.bmp
179.28	0.72	240	2	2	69	per	lib	low	mod	low	nt	fa	nh/0325_nh.bmp
180.00	0.72	241	1	1	127	mem	con	low	low	low	nt	ms	nh/0682_nh.bmp
180.72	0.72	242	2	4	24	mem	lib	mod	mod	low	tg	ht	wh/0515.bmp
181.44	0.72	243	4	3	95	per	lib	low	mod	low	tg	ht	wh/0116.bmp
182.16	0.72	244	3	1	81	mem	con	mod	mod	low	nt	ms	nh/0675_nh.bmp
182.88	0.72	245	1	2	70	per	lib	low	mod	low	tg	ht	wh/0766.bmp
183.60	0.72	246	2	3	88	per	lib	low	mod	low	tg	ht	wh/1021.bmp
184.32	0.72	247	2	1	89	mem	con	mod	mod	low	tg	ms	wh/0868.bmp
185.04	0.72	248	3	1	28	per	con	mod	mod	mod	tg	ht	wh/0658.bmp
185.76	0.72	249	1	1	25	per	con	mod	mod	mod	tg	ms	wh/0289.bmp
186.48	0.72	250	2	4	31	mem	lib	mod	mod	low	nt	ht	nh/0392_nh.bmp
187.20	0.72	251	2	3	82	per	lib	low	mod	low	tg	ht	wh/0200.bmp
187.92	0.72	252	1	1	49	mem	lib	mod	mod	low	nt	ht	nh/0597_nh.bmp
188.64	0.72	253	1	1	88	mem	con	mod	mod	low	tg	ms	wh/0421.bmp
189.36	0.72	254	2	1	11	per	con	low	mod	low	tg	ms	wh/0573.bmp
190.08	0.72	255	2	2	70	per	lib	low	mod	low	tg	ht	wh/0766.bmp
190.80	0.72	256	3	4	32	mem	lib	mod	mod	low	tg	ht	wh/0133.bmp
191.52	0.72	257	3	4	39	per	con	low	mod	low	tg	ms	wh/0298.bmp
192.24	0.72	258	1	3	79	per	lib	mod	mod	mod	tg	ht	wh/0959.bmp
192.96	0.72	259	2	4	58	mem	con	mod	mod	low	tg	ht	wh/0926.bmp
193.68	0.72	260	4	3	84	per	lib	low	mod	low	nt	fa	nh/0168_nh.bmp
194.40	0.72	261	3	3	31	mem	lib	mod	mod	mod	nt	ht	nh/0561_nh.bmp
195.12	0.72	262	2	4	40	per	con	low	mod	low	tg	ms	wh/0897.bmp
195.84	0.72	263	2	3	79	per	lib	mod	mod	mod	tg	ht	wh/0959.bmp
196.56	0.72	264	1	4	86	per	con	mod	mod	mod	nt	cr	nh/0100_nh.bmp
197.28	0.72	265	4	4	29	mem	lib	mod	mod	low	nt	ht	nh/0353_nh.bmp
198.00	0.72	266	3	1	6	per	con	low	mod	low	nt	cr	nh/0624_nh.bmp
198.72	0.72	267	3	2	81	per	lib	mod	mod	mod	tg	ht	wh/0801.bmp
199.44	0.72	268	1	2	75	per	lib	low	mod	low	nt	cr	nh/0514_nh.bmp
200.16	0.72	269	2	1	57	mem	lib	mod	mod	low	tg	ht	wh/0529.bmp
200.88	0.72	270	3	4	31	mem	lib	mod	mod	low	nt	ht	nh/0392_nh.bmp
201.60	0.72	271	3	1	23	per	con	mod	mod	mod	nt	cr	nh/0627_nh.bmp
202.32	0.72	272	3	2	6	mem	lib	mod	mod	mod	tg	ht	wh/0001.bmp
203.04	0.72	273	4	1	6	per	con	low	mod	low	nt	cr	nh/0624_nh.bmp
203.76	0.72	274	2	4	57	mem	con	mod	mod	low	nt	ht	nh/0115_nh.bmp
204.48	0.72	275	2	1	9	per	con	low	mod	low	nt	fa	nh/0233_nh.bmp
205.20	0.72	276	3	3	67	per	lib	mod	mod	mod	nt	cr	nh/0775_nh.bmp
205.92	0.72	277	2	2	82	per	lib	mod	mod	mod	tg	ms	wh/0414.bmp
206.64	0.72	278	4	4	31	mem	lib	mod	mod	low	nt	ht	nh/0392_nh.bmp
207.36	0.72	279	3	3	43	mem	con	mod	mod	mod	nt	ht	nh/0002_nh.bmp
208.08	0.72	280	4	1	18	per	con	mod	mod	mod	nt	cr	nh/0429_nh.bmp
208.80	0.72	281	3	1	14	per	con	low	mod	low	nt	cr	nh/0836_nh.bmp
209.52	0.72	282	2	1	25	per	con	mod	mod	mod	tg	ms	wh/0289.bmp
210.24	0.72	283	1	2	78	per	lib	low	mod	low	tg	ht	wh/0745.bmp
210.96	0.72	284	3	2	70	per	lib	low	mod	low	tg	ht	wh/0766.bmp
211.68	0.72	285	2	4	45	per	con	low	mod	low	nt	cr	nh/0932_nh.bmp
212.40	0.72	286	3	3	24	mem	lib	mod	mod	mod	nt	ht	nh/0841_nh.bmp
213.12	0.72	287	3	2	76	per	lib	low	mod	low	nt	cr	nh/0231_nh.bmp
213.84	0.72	288	4	2	76	per	lib	low	mod	low	nt	cr	nh/0231_nh.bmp
214.56	0.72	289	3	3	30	mem	lib	mod	mod	mod	tg	ht	wh/0463.bmp
215.28	0.72	290	1	3	108	per	con	low	low	low	tg	ms	wh/0006.bmp
216.00	0.72	291	4	2	6	mem	lib	mod	mod	mod	tg	ht	wh/0001.bmp
216.72	0.72	292	4	1	19	per	con	mod	mod	mod	nt	cr	nh/0098_nh.bmp
217.44	0.72	293	2	4	30	mem	lib	mod	mod	low	nt	ms	nh/0163_nh.bmp
218.16	0.72	294	1	3	57	mem	lib	low	low	low	nt	ht	nh/0109_nh.bmp
218.88	0.72	295	1	1	124	mem	con	low	low	low	tg	ms	wh/0142.bmp
219.60	0.72	296	2	4	21	mem	lib	mod	mod	low	tg	ht	wh/0155.bmp
220.32	0.72	297	1	3	47	mem	con	mod	mod	mod	tg	ms	wh/0879.bmp
221.04	0.72	298	3	4	30	mem	lib	mod	mod	low	nt	ms	nh/0163_nh.bmp
221.76	0.72	299	2	3	26	mem	lib	mod	mod	mod	tg	ht	wh/0698.bmp
222.48	0.72	300	2	2	4	mem	lib	mod	mod	mod	nt	ht	nh/0935_nh.bmp
223.20	0.72	301	1	4	14	mem	con	low	low	mod	nt	ms	nh/0887_nh.bmp
223.92	0.72	302	1	4	100	mem	lib	low	low	mod	tg	ht	wh/0551.bmp
224.64	0.72	303	3	3	85	per	lib	low	mod	low	nt	fa	nh/0205_nh.bmp
225.36	0.72	304	2	4	49	mem	con	mod	mod	low	tg	ms	wh/0178.bmp
226.08	0.72	305	2	3	47	mem	con	mod	mod	mod	tg	ms	wh/0879.bmp
226.80	0.72	306	4	2	93	per	lib	mod	mod	mod	nt	fa	nh/0466_nh.bmp
227.52	0.72	307	3	1	9	per	con	low	mod	low	nt	fa	nh/0233_nh.bmp
228.24	0.72	308	3	2	88	per	lib	mod	mod	mod	tg	ht	wh/0391.bmp
228.96	0.72	309	3	1	84	mem	con	mod	mod	low	nt	ht	nh/0177_nh.bmp
229.68	0.72	310	1	4	62	mem	con	mod	mod	low	nt	ms	nh/0040_nh.bmp
230.40	0.72	311	3	4	42	per	con	low	mod	low	nt	cr	nh/0265_nh.bmp
231.12	0.72	312	3	1	89	mem	con	mod	mod	low	tg	ms	wh/0868.bmp
231.84	0.72	313	1	2	45	mem	con	mod	mod	mod	nt	ht	nh/0857_nh.bmp
232.56	0.72	314	2	2	85	per	lib	mod	mod	mod	nt	cr	nh/0981_nh.bmp
233.28	0.72	315	1	4	1	mem	con	low	low	mod	tg	ms	wh/0527.bmp
234.00	0.72	316	5	2	94	per	lib	mod	mod	mod	tg	ms	wh/0605.bmp
234.72	0.72	317	1	4	111	mem	lib	low	low	mod	tg	ht	wh/0324.bmp
235.44	0.72	318	2	1	5	per	con	low	mod	low	nt	cr	nh/0251_nh.bmp
236.16	0.72	319	1	3	93	per	lib	low	mod	low	nt	cr	nh/0455_nh.bmp
236.88	0.72	320	3	1	5	per	con	low	mod	low	nt	cr	nh/0251_nh.bmp
237.60	0.72	321	1	2	41	mem	con	mod	mod	mod	tg	ht	wh/0580.bmp
238.32	0.72	322	4	1	54	mem	lib	mod	mod	low	tg	ht	wh/0128.bmp
239.04	0.72	323	1	4	120	per	lib	low	low	low	tg	ht	wh/0126.bmp
239.76	0.72	324	3	4	57	mem	con	mod	mod	low	nt	ht	nh/0115_nh.bmp
240.48	0.72	325	3	2	69	per	lib	low	mod	low	nt	fa	nh/0325_nh.bmp
241.20	0.72	326	2	3	93	per	lib	low	mod	low	nt	cr	nh/0455_nh.bmp
241.92	0.72	327	1	4	52	mem	con	mod	mod	low	tg	ht	wh/0649.bmp
242.64	0.72	328	3	3	41	mem	con	mod	mod	mod	nt	ht	nh/0724_nh.bmp
243.36	0.72	329	3	4	24	mem	lib	mod	mod	low	tg	ht	wh/0515.bmp
244.08	0.72	330	2	4	85	per	con	mod	mod	mod	tg	ms	wh/0637.bmp
244.80	0.72	331	3	1	57	mem	lib	mod	mod	low	tg	ht	wh/0529.bmp
245.52	0.72	332	4	1	7	per	con	low	mod	low	tg	ms	wh/0769.bmp
246.24	0.72	333	2	1	56	mem	lib	mod	mod	low	nt	ht	nh/0377_nh.bmp
246.96	0.72	334	1	3	14	mem	con	low	low	low	nt	ht	nh/0485_nh.bmp
247.68	0.72	335	1	3	52	mem	lib	low	low	low	nt	ms	nh/0481_nh.bmp
248.40	0.72	336	4	2	81	per	lib	mod	mod	mod	tg	ht	wh/0801.bmp
249.12	0.72	337	5	3	81	per	lib	low	mod	low	tg	ht	wh/0727.bmp
249.84	0.72	338	3	4	58	mem	con	mod	mod	low	tg	ht	wh/0926.bmp
250.56	0.72	339	2	3	19	mem	lib	mod	mod	mod	nt	ht	nh/0204_nh.bmp
251.28	0.72	340	2	4	62	mem	con	mod	mod	low	nt	ms	nh/0040_nh.bmp
252.00	0.72	341	1	2	103	per	con	mod	low	mod	nt	cr	nh/0725_nh.bmp
252.72	0.72	342	1	3	10	mem	con	low	low	low	tg	ms	wh/0330.bmp
253.44	0.72	343	4	3	34	mem	con	mod	mod	mod	tg	ht	wh/0596.bmp
254.16	0.72	344	3	1	91	mem	con	mod	mod	low	tg	ht	wh/0341.bmp
254.88	0.72	345	1	1	60	mem	lib	mod	mod	low	nt	ms	nh/0019_nh.bmp
255.60	0.72	346	2	4	86	per	con	mod	mod	mod	nt	cr	nh/0100_nh.bmp
256.32	0.72	347	2	2	46	mem	con	mod	mod	mod	nt	ht	nh/0070_nh.bmp
257.04	0.72	348	2	1	32	per	con	mod	mod	mod	nt	cr	nh/0692_nh.bmp
257.76	0.72	349	5	2	93	per	lib	mod	mod	mod	nt	fa	nh/0466_nh.bmp
258.48	0.72	350	1	4	84	per	con	mod	mod	mod	nt	cr	nh/0473_nh.bmp
259.20	0.72	351	1	1	112	per	lib	low	low	low	nt	fa	nh/0464_nh.bmp
259.92	0.72	352	4	3	18	mem	lib	mod	mod	mod	nt	ht	nh/0585_nh.bmp
260.64	0.72	353	4	1	5	per	con	low	mod	low	nt	cr	nh/0251_nh.bmp
261.36	0.72	354	3	2	91	per	lib	mod	mod	mod	nt	cr	nh/0681_nh.bmp
262.08	0.72	355	2	4	52	mem	con	mod	mod	low	tg	ht	wh/0649.bmp
262.80	0.72	356	1	2	61	per	con	low	low	low	tg	ms	wh/0257.bmp
263.52	0.72	357	4	3	85	per	lib	low	mod	low	nt	fa	nh/0205_nh.bmp
264.24	0.72	358	3	3	27	mem	lib	mod	mod	mod	tg	ht	wh/0785.bmp
264.96	0.72	359	1	4	69	per	lib	mod	low	mod	nt	cr	nh/0589_nh.bmp
265.68	0.72	360	1	3	68	per	lib	mod	mod	mod	tg	ht	wh/0393.bmp
266.40	0.72	361	2	2	78	per	lib	low	mod	low	tg	ht	wh/0745.bmp
267.12	0.72	362	3	2	46	mem	con	mod	mod	mod	nt	ht	nh/0070_nh.bmp
267.84	0.72	363	2	2	7	mem	lib	mod	mod	mod	tg	ht	wh/0955.bmp
268.56	0.72	364	1	3	114	per	con	mod	low	mod	nt	cr	nh/0449_nh.bmp
269.28	0.72	365	2	2	75	per	lib	low	mod	low	nt	cr	nh/0514_nh.bmp
270.00	0.72	366	4	2	36	mem	con	mod	mod	mod	tg	ht	wh/0287.bmp
270.72	0.72	367	4	4	58	mem	con	mod	mod	low	tg	ht	wh/0926.bmp
271.44	0.72	368	3	4	83	per	con	mod	mod	mod	tg	ms	wh/0942.bmp
272.16	0.72	369	3	2	8	mem	lib	mod	mod	mod	nt	ms	nh/0984_nh.bmp
272.88	0.72	370	1	3	115	per	con	mod	low	mod	nt	cr	nh/0885_nh.bmp
273.60	0.72	371	4	3	31	mem	lib	mod	mod	mod	nt	ht	nh/0561_nh.bmp
274.32	0.72	372	4	2	69	per	lib	low	mod	low	nt	fa	nh/0325_nh.bmp
275.04	0.72	373	1	1	44	mem	lib	low	low	low	nt	ms	nh/0362_nh.bmp
275.76	0.72	374	4	4	91	per	con	mod	mod	mod	tg	ht	wh/0679.bmp
276.48	0.72	375	3	2	11	mem	lib	mod	mod	mod	tg	ht	wh/0425.bmp
277.20	0.72	376	5	2	6	mem	lib	mod	mod	mod	tg	ht	wh/0001.bmp
277.92	0.72	377	3	2	78	per	lib	low	mod	low	tg	ht	wh/0745.bmp
278.64	0.72	378	3	2	4	mem	lib	mod	mod	mod	nt	ht	nh/0935_nh.bmp
279.36	0.72	379	4	2	78	per	lib	low	mod	low	tg	ht	wh/0745.bmp
280.08	0.72	380	3	1	32	per	con	mod	mod	mod	nt	cr	nh/0692_nh.bmp
280.80	0.72	381	2	2	33	mem	con	mod	mod	mod	tg	ht	wh/0847.bmp
281.52	0.72	382	3	2	38	mem	con	mod	mod	mod	nt	ht	nh/0919_nh.bmp
282.24	0.72	383	5	1	7	per	con	low	mod	low	tg	ms	wh/0769.bmp
282.96	0.72	384	4	2	38	mem	con	mod	mod	mod	nt	ht	nh/0919_nh.bmp
283.68	0.72	385	2	3	68	per	lib	mod	mod	mod	tg	ht	wh/0393.bmp
284.40	0.72	386	1	2	106	per	con	mod	low	mod	nt	cr	nh/0960_nh.bmp
285.12	0.72	387	1	3	107	per	con	low	low	low	nt	cr	nh/0786_nh.bmp
285.84	0.72	388	3	1	90	mem	con	mod	mod	low	nt	ms	nh/0739_nh.bmp
286.56	0.72	389	5	1	18	per	con	mod	mod	mod	nt	cr	nh/0429_nh.bmp
287.28	0.72	390	1	3	38	mem	con	mod	mod	mod	tg	ht	wh/0162.bmp
288.00	0.72	391	3	4	40	per	con	low	mod	low	tg	ms	wh/0897.bmp
288.72	0.72	392	3	3	47	mem	con	mod	mod	mod	tg	ms	wh/0879.bmp
289.44	0.72	393	3	4	45	per	con	low	mod	low	nt	cr	nh/0932_nh.bmp
290.16	0.72	394	4	4	24	mem	lib	mod	mod	low	tg	ht	wh/0515.bmp
290.88	0.72	395	2	1	49	mem	lib	mod	mod	low	nt	ht	nh/0597_nh.bmp
291.60	0.72	396	3	2	33	mem	con	mod	mod	mod	tg	ht	wh/0847.bmp
292.32	0.72	397	5	1	5	per	con	low	mod	low	nt	cr	nh/0251_nh.bmp
293.04	0.72	398	4	4	32	mem	lib	mod	mod	low	tg	ht	wh/0133.bmp
293.76	0.72	399	5	4	29	mem	lib	mod	mod	low	nt	ht	nh/0353_nh.bmp
294.48	0.72	400	1	3	1	mem	con	low	low	low	tg	ms	wh/0996.bmp
295.20	0.72	401	3	4	21	mem	lib	mod	mod	low	tg	ht	wh/0155.bmp
295.92	0.72	402	4	1	81	mem	con	mod	mod	low	nt	ms	nh/0675_nh.bmp
296.64	0.72	403	3	1	11	per	con	low	mod	low	tg	ms	wh/0573.bmp
297.36	0.72	404	4	1	9	per	con	low	mod	low	nt	fa	nh/0233_nh.bmp
298.08	0.72	405	4	2	33	mem	con	mod	mod	mod	tg	ht	wh/0847.bmp
298.80	0.72	406	1	2	17	mem	lib	low	low	mod	nt	ht	nh/0740_nh.bmp
299.52	0.72	407	2	1	58	mem	lib	mod	mod	low	tg	ht	wh/0816.bmp
300.24	0.72	408	2	4	54	mem	con	mod	mod	low	nt	ht	nh/0741_nh.bmp
300.96	0.72	409	2	2	41	mem	con	mod	mod	mod	tg	ht	wh/0580.bmp
301.68	0.72	410	1	2	100	per	con	mod	low	mod	nt	cr	nh/0898_nh.bmp
302.40	0.72	411	3	3	72	per	lib	mod	mod	mod	nt	cr	nh/0189_nh.bmp
303.12	0.72	412	3	3	68	per	lib	mod	mod	mod	tg	ht	wh/0393.bmp
303.84	0.72	413	3	4	86	per	con	mod	mod	mod	nt	cr	nh/0100_nh.bmp
304.56	0.72	414	2	3	48	mem	con	mod	mod	mod	nt	ht	nh/0920_nh.bmp
305.28	0.72	415	4	3	68	per	lib	mod	mod	mod	tg	ht	wh/0393.bmp
306.00	0.72	416	5	2	81	per	lib	mod	mod	mod	tg	ht	wh/0801.bmp
306.72	0.72	417	3	3	48	mem	con	mod	mod	mod	nt	ht	nh/0920_nh.bmp
307.44	0.72	418	4	1	14	per	con	low	mod	low	nt	cr	nh/0836_nh.bmp
308.16	0.72	419	1	2	62	per	con	low	low	low	nt	cr	nh/0777_nh.bmp
308.88	0.72	420	4	1	57	mem	lib	mod	mod	low	tg	ht	wh/0529.bmp
309.60	0.72	421	4	1	90	mem	con	mod	mod	low	nt	ms	nh/0739_nh.bmp
310.32	0.72	422	3	4	52	mem	con	mod	mod	low	tg	ht	wh/0649.bmp
311.04	0.72	423	4	4	42	per	con	low	mod	low	nt	cr	nh/0265_nh.bmp
311.76	0.72	424	1	4	68	per	lib	mod	low	mod	tg	ht	wh/0218.bmp
312.48	0.72	425	4	2	4	mem	lib	mod	mod	mod	nt	ht	nh/0935_nh.bmp
313.20	0.72	426	3	4	49	mem	con	mod	mod	low	tg	ms	wh/0178.bmp
313.92	0.72	427	1	2	73	per	lib	low	mod	low	tg	ht	wh/0387.bmp
314.64	0.72	428	3	1	85	mem	con	mod	mod	low	tg	ht	wh/0733.bmp
315.36	0.72	429	3	3	93	per	lib	low	mod	low	nt	cr	nh/0455_nh.bmp
316.08	0.72	430	4	4	21	mem	lib	mod	mod	low	tg	ht	wh/0155.bmp
316.80	0.72	431	3	3	88	per	lib	low	mod	low	tg	ht	wh/1021.bmp
317.52	0.72	432	4	2	8	mem	lib	mod	mod	mod	nt	ms	nh/0984_nh.bmp
318.24	0.72	433	4	3	67	per	lib	mod	mod	mod	nt	cr	nh/0775_nh.bmp
318.96	0.72	434	5	1	81	mem	con	mod	mod	low	nt	ms	nh/0675_nh.bmp
319.68	0.72	435	2	4	48	per	con	low	mod	low	nt	cr	nh/0105_nh.bmp
320.40	0.72	436	4	3	43	mem	con	mod	mod	mod	nt	ht	nh/0002_nh.bmp
321.12	0.72	437	2	4	53	mem	con	mod	mod	low	nt	ht	nh/0027_nh.bmp
321.84	0.72	438	4	4	83	per	con	mod	mod	mod	tg	ms	wh/0942.bmp
322.56	0.72	439	4	3	47	mem	con	mod	mod	mod	tg	ms	wh/0879.bmp
323.28	0.72	440	2	3	25	mem	lib	mod	mod	mod	tg	ht	wh/0965.bmp
324.00	0.72	441	3	4	85	per	con	mod	mod	mod	tg	ms	wh/0637.bmp
324.72	0.72	442	1	2	29	mem	lib	low	low	mod	tg	ht	wh/0850.bmp
325.44	0.72	443	1	3	60	mem	lib	low	low	low	tg	ms	wh/0903.bmp
326.16	0.72	444	1	1	103	per	lib	low	low	low	tg	ms	wh/0065.bmp
326.88	0.72	445	3	2	41	mem	con	mod	mod	mod	tg	ht	wh/0580.bmp
327.60	0.72	446	1	4	35	per	con	low	mod	low	tg	ms	wh/0704.bmp
328.32	0.72	447	1	1	79	per	lib	mod	low	mod	tg	ht	wh/0288.bmp
329.04	0.72	448	1	2	117	mem	con	low	low	mod	tg	ht	wh/0478.bmp
329.76	0.72	449	5	2	4	mem	lib	mod	mod	mod	nt	ht	nh/0935_nh.bmp
330.48	0.72	450	2	4	37	per	con	low	mod	low	nt	cr	nh/0648_nh.bmp
331.20	0.72	451	3	3	79	per	lib	mod	mod	mod	tg	ht	wh/0959.bmp
331.92	0.72	452	2	2	73	per	lib	low	mod	low	tg	ht	wh/0387.bmp
332.64	0.72	453	5	3	18	mem	lib	mod	mod	mod	nt	ht	nh/0585_nh.bmp
333.36	0.72	454	4	1	32	per	con	mod	mod	mod	nt	cr	nh/0692_nh.bmp
334.08	0.72	455	3	4	48	per	con	low	mod	low	nt	cr	nh/0105_nh.bmp
334.80	0.72	456	2	4	88	per	con	mod	mod	mod	nt	cr	nh/0750_nh.bmp
335.52	0.72	457	4	4	86	per	con	mod	mod	mod	nt	cr	nh/0100_nh.bmp
336.24	0.72	458	3	4	53	mem	con	mod	mod	low	nt	ht	nh/0027_nh.bmp
336.96	0.72	459	4	3	30	mem	lib	mod	mod	mod	tg	ht	wh/0463.bmp
337.68	0.72	460	2	1	60	mem	lib	mod	mod	low	nt	ms	nh/0019_nh.bmp
338.40	0.72	461	3	1	2	per	con	low	mod	low	tg	ms	wh/0853.bmp
339.12	0.72	462	1	1	59	mem	lib	mod	mod	low	nt	ht	nh/0997_nh.bmp
339.84	0.72	463	3	1	58	mem	lib	mod	mod	low	tg	ht	wh/0816.bmp
340.56	0.72	464	4	1	89	mem	con	mod	mod	low	tg	ms	wh/0868.bmp
341.28	0.72	465	4	3	48	mem	con	mod	mod	mod	nt	ht	nh/0920_nh.bmp
342.00	0.72	466	4	1	2	per	con	low	mod	low	tg	ms	wh/0853.bmp
342.72	0.72	467	5	4	90	per	con	mod	mod	mod	tg	ht	wh/0884.bmp
343.44	0.72	468	4	2	1	mem	lib	mod	mod	mod	nt	ht	nh/0896_nh.bmp
344.16	0.72	469	3	3	82	per	lib	low	mod	low	tg	ht	wh/0200.bmp
344.88	0.72	470	3	3	89	per	lib	low	mod	low	nt	fa	nh/0755_nh.bmp
345.60	0.72	471	5	2	69	per	lib	low	mod	low	nt	fa	nh/0325_nh.bmp
346.32	0.72	472	4	4	85	per	con	mod	mod	mod	tg	ms	wh/0637.bmp
347.04	0.72	473	5	1	19	per	con	mod	mod	mod	nt	cr	nh/0098_nh.bmp
347.76	0.72	474	1	2	122	mem	con	low	low	mod	tg	ms	wh/0326.bmp
348.48	0.72	475	1	4	108	mem	lib	low	low	mod	nt	ms	nh/0286_nh.bmp
349.20	0.72	476	4	1	23	per	con	mod	mod	mod	nt	cr	nh/0627_nh.bmp
349.92	0.72	477	3	4	62	mem	con	mod	mod	low	nt	ms	nh/0040_nh.bmp
350.64	0.72	478	6	1	31	per	con	mod	mod	mod	tg	ht	wh/0621.bmp
351.36	0.72	479	5	3	67	per	lib	mod	mod	mod	nt	cr	nh/0775_nh.bmp
352.08	0.72	480	1	1	38	mem	lib	low	low	low	tg	ht	wh/0522.bmp
352.80	0.72	481	1	1	50	mem	lib	mod	mod	low	tg	ht	wh/0066.bmp
353.52	0.72	482	3	2	73	per	lib	low	mod	low	tg	ht	wh/0387.bmp
354.24	0.72	483	2	2	83	per	lib	mod	mod	mod	nt	n/a	nh/0534_nh.bmp
354.96	0.72	484	5	1	32	per	con	mod	mod	mod	nt	cr	nh/0692_nh.bmp
355.68	0.72	485	2	1	27	per	con	mod	mod	mod	tg	ht	wh/0899.bmp
356.40	0.72	486	6	1	81	mem	con	mod	mod	low	nt	ms	nh/0675_nh.bmp
357.12	0.72	487	2	4	84	per	con	mod	mod	mod	nt	cr	nh/0473_nh.bmp
357.84	0.72	488	4	2	73	per	lib	low	mod	low	tg	ht	wh/0387.bmp
358.56	0.72	489	5	2	8	mem	lib	mod	mod	mod	nt	ms	nh/0984_nh.bmp
359.28	0.72	490	5	2	73	per	lib	low	mod	low	tg	ht	wh/0387.bmp
360.00	0.72	491	2	1	13	per	con	low	mod	low	tg	ms	wh/0472.bmp
360.72	0.72	492	1	1	100	per	lib	low	low	low	tg	ht	wh/0307.bmp
361.44	0.72	493	5	1	54	mem	lib	mod	mod	low	tg	ht	wh/0128.bmp
362.16	0.72	494	1	1	102	per	lib	low	low	low	nt	cr	nh/0889_nh.bmp
362.88	0.72	495	3	2	85	per	lib	mod	mod	mod	nt	cr	nh/0981_nh.bmp
363.60	0.72	496	3	2	7	mem	lib	mod	mod	mod	tg	ht	wh/0955.bmp
364.32	0.72	497	1	4	76	per	lib	mod	low	mod	tg	ht	wh/0918.bmp
365.04	0.72	498	2	4	96	per	con	mod	mod	mod	nt	cr	nh/0183_nh.bmp
365.76	0.72	499	5	3	85	per	lib	low	mod	low	nt	fa	nh/0205_nh.bmp
366.48	0.72	500	5	3	31	mem	lib	mod	mod	mod	nt	ht	nh/0561_nh.bmp
367.20	0.72	501	5	1	90	mem	con	mod	mod	low	nt	ms	nh/0739_nh.bmp
367.92	0.72	502	5	1	2	per	con	low	mod	low	tg	ms	wh/0853.bmp
368.64	0.72	503	3	3	80	per	lib	mod	mod	mod	nt	fa	nh/0274_nh.bmp
369.36	0.72	504	4	3	89	per	lib	low	mod	low	nt	fa	nh/0755_nh.bmp
370.08	0.72	505	4	4	49	mem	con	mod	mod	low	tg	ms	wh/0178.bmp
370.80	0.72	506	5	3	48	mem	con	mod	mod	mod	nt	ht	nh/0920_nh.bmp
371.52	0.72	507	1	3	101	per	con	low	low	low	nt	cr	nh/0790_nh.bmp
372.24	0.72	508	4	2	88	per	lib	mod	mod	mod	tg	ht	wh/0391.bmp
372.96	0.72	509	4	4	57	mem	con	mod	mod	low	nt	ht	nh/0115_nh.bmp
373.68	0.72	510	5	4	91	per	con	mod	mod	mod	tg	ht	wh/0679.bmp
374.40	0.72	511	2	3	38	mem	con	mod	mod	mod	tg	ht	wh/0162.bmp
375.12	0.72	512	5	2	36	mem	con	mod	mod	mod	tg	ht	wh/0287.bmp
375.84	0.72	513	1	1	33	mem	lib	low	low	low	nt	ms	nh/0685_nh.bmp
376.56	0.72	514	3	1	27	per	con	mod	mod	mod	tg	ht	wh/0899.bmp
377.28	0.72	515	5	4	86	per	con	mod	mod	mod	nt	cr	nh/0100_nh.bmp
378.00	0.72	516	3	1	25	per	con	mod	mod	mod	tg	ms	wh/0289.bmp
378.72	0.72	517	4	1	91	mem	con	mod	mod	low	tg	ht	wh/0341.bmp
379.44	0.72	518	4	3	93	per	lib	low	mod	low	nt	cr	nh/0455_nh.bmp
380.16	0.72	519	5	2	76	per	lib	low	mod	low	nt	cr	nh/0231_nh.bmp
380.88	0.72	520	3	4	96	per	con	mod	mod	mod	nt	cr	nh/0183_nh.bmp
381.60	0.72	521	4	1	25	per	con	mod	mod	mod	tg	ms	wh/0289.bmp
382.32	0.72	522	1	2	98	per	con	mod	low	mod	tg	ms	wh/0047.bmp
383.04	0.72	523	1	3	117	per	con	mod	low	mod	tg	ht	wh/0550.bmp
383.76	0.72	524	5	3	47	mem	con	mod	mod	mod	tg	ms	wh/0879.bmp
384.48	0.72	525	4	4	96	per	con	mod	mod	mod	nt	cr	nh/0183_nh.bmp
385.20	0.72	526	2	2	45	mem	con	mod	mod	mod	nt	ht	nh/0857_nh.bmp
385.92	0.72	527	1	1	40	mem	lib	low	low	low	tg	ht	wh/0456.bmp
386.64	0.72	528	4	2	7	mem	lib	mod	mod	mod	tg	ht	wh/0955.bmp
387.36	0.72	529	3	3	74	per	lib	mod	mod	mod	tg	ht	wh/0017.bmp
388.08	0.72	530	3	1	56	mem	lib	mod	mod	low	nt	ht	nh/0377_nh.bmp
388.80	0.72	531	1	2	120	mem	con	low	low	mod	tg	ht	wh/0501.bmp
389.52	0.72	532	5	4	31	mem	lib	mod	mod	low	nt	ht	nh/0392_nh.bmp
390.24	0.72	533	5	1	6	per	con	low	mod	low	nt	cr	nh/0624_nh.bmp
390.96	0.72	534	5	2	77	per	lib	low	mod	low	nt	n/a	nh/0145_nh.bmp
391.68	0.72	535	3	3	25	mem	lib	mod	mod	mod	tg	ht	wh/0965.bmp
392.40	0.72	536	3	4	51	mem	con	mod	mod	low	tg	ht	wh/0014.bmp
393.12	0.72	537	4	1	27	per	con	mod	mod	mod	tg	ht	wh/0899.bmp
393.84	0.72	538	3	4	34	per	con	low	mod	low	tg	ms	wh/0379.bmp
394.56	0.72	539	3	1	60	mem	lib	mod	mod	low	nt	ms	nh/0019_nh.bmp
395.28	0.72	540	1	1	66	per	lib	mod	low	mod	nt	cr	nh/0906_nh.bmp
396.00	0.72	541	4	2	85	per	lib	mod	mod	mod	nt	cr	nh/0981_nh.bmp
396.72	0.72	542	1	4	2	mem	con	low	low	mod	tg	ms	wh/0696.bmp
397.44	0.72	543	6	4	91	per	con	mod	mod	mod	tg	ht	wh/0679.bmp
398.16	0.72	544	3	4	54	mem	con	mod	mod	low	nt	ht	nh/0741_nh.bmp
398.88	0.72	545	1	2	109	per	con	mod	low	mod	nt	cr	nh/0844_nh.bmp
399.60	0.72	546	4	1	84	mem	con	mod	mod	low	nt	ht	nh/0177_nh.bmp
400.32	0.72	547	4	4	40	per	con	low	mod	low	tg	ms	wh/0897.bmp
401.04	0.72	548	5	1	9	per	con	low	mod	low	nt	fa	nh/0233_nh.bmp
401.76	0.72	549	1	2	114	mem	con	low	low	mod	nt	ms	nh/0912_nh.bmp
402.48	0.72	550	3	2	45	mem	con	mod	mod	mod	nt	ht	nh/0857_nh.bmp
403.20	0.72	551	4	1	56	mem	lib	mod	mod	low	nt	ht	nh/0377_nh.bmp
403.92	0.72	552	4	2	91	per	lib	mod	mod	mod	nt	cr	nh/0681_nh.bmp
404.64	0.72	553	5	1	84	mem	con	mod	mod	low	nt	ht	nh/0177_nh.bmp
405.36	0.72	554	4	1	85	mem	con	mod	mod	low	tg	ht	wh/0733.bmp
406.08	0.72	555	5	4	85	per	con	mod	mod	mod	tg	ms	wh/0637.bmp
406.80	0.72	556	4	3	41	mem	con	mod	mod	mod	nt	ht	nh/0724_nh.bmp
407.52	0.72	557	5	1	89	mem	con	mod	mod	low	tg	ms	wh/0868.bmp
408.24	0.72	558	6	3	67	per	lib	mod	mod	mod	nt	cr	nh/0775_nh.bmp
408.96	0.72	559	2	1	88	mem	con	mod	mod	low	tg	ms	wh/0421.bmp
409.68	0.72	560	3	1	49	mem	lib	mod	mod	low	nt	ht	nh/0597_nh.bmp
410.40	0.72	561	5	1	25	per	con	mod	mod	mod	tg	ms	wh/0289.bmp
411.12	0.72	562	1	1	111	per	lib	low	low	low	nt	fa	nh/0634_nh.bmp
411.84	0.72	563	2	1	83	mem	con	mod	mod	low	nt	ht	nh/0217_nh.bmp
412.56	0.72	564	4	4	54	mem	con	mod	mod	low	nt	ht	nh/0741_nh.bmp
413.28	0.72	565	3	3	19	mem	lib	mod	mod	mod	nt	ht	nh/0204_nh.bmp
414.00	0.72	566	4	2	46	mem	con	mod	mod	mod	nt	ht	nh/0070_nh.bmp
414.72	0.72	567	4	3	80	per	lib	mod	mod	mod	nt	fa	nh/0274_nh.bmp
415.44	0.72	568	6	4	86	per	con	mod	mod	mod	nt	cr	nh/0100_nh.bmp
416.16	0.72	569	5	2	7	mem	lib	mod	mod	mod	tg	ht	wh/0955.bmp
416.88	0.72	570	4	4	30	mem	lib	mod	mod	low	nt	ms	nh/0163_nh.bmp
417.60	0.72	571	2	1	59	mem	lib	mod	mod	low	nt	ht	nh/0997_nh.bmp
418.32	0.72	572	4	3	72	per	lib	mod	mod	mod	nt	cr	nh/0189_nh.bmp
419.04	0.72	573	5	3	72	per	lib	mod	mod	mod	nt	cr	nh/0189_nh.bmp
419.76	0.72	574	5	1	23	per	con	mod	mod	mod	nt	cr	nh/0627_nh.bmp
420.48	0.72	575	4	1	28	per	con	mod	mod	mod	tg	ht	wh/0658.bmp
421.20	0.72	576	3	3	26	mem	lib	mod	mod	mod	tg	ht	wh/0698.bmp
421.92	0.72	577	6	3	18	mem	lib	mod	mod	mod	nt	ht	nh/0585_nh.bmp
422.64	0.72	578	6	3	31	mem	lib	mod	mod	mod	nt	ht	nh/0561_nh.bmp
423.36	0.72	579	4	4	62	mem	con	mod	mod	low	nt	ms	nh/0040_nh.bmp
424.08	0.72	580	5	4	21	mem	lib	mod	mod	low	tg	ht	wh/0155.bmp
424.80	0.72	581	5	4	96	per	con	mod	mod	mod	nt	cr	nh/0183_nh.bmp
425.52	0.72	582	4	3	27	mem	lib	mod	mod	mod	tg	ht	wh/0785.bmp
426.24	0.72	583	4	2	11	mem	lib	mod	mod	mod	tg	ht	wh/0425.bmp
426.96	0.72	584	3	2	75	per	lib	low	mod	low	nt	cr	nh/0514_nh.bmp
427.68	0.72	585	5	3	43	mem	con	mod	mod	mod	nt	ht	nh/0002_nh.bmp
428.40	0.72	586	6	2	76	per	lib	low	mod	low	nt	cr	nh/0231_nh.bmp
429.12	0.72	587	4	1	11	per	con	low	mod	low	tg	ms	wh/0573.bmp
429.84	0.72	588	4	3	24	mem	lib	mod	mod	mod	nt	ht	nh/0841_nh.bmp
430.56	0.72	589	5	3	93	per	lib	low	mod	low	nt	cr	nh/0455_nh.bmp
431.28	0.72	590	1	2	60	per	con	low	low	low	nt	fa	nh/0788_nh.bmp
432.00	0.72	591	5	4	24	mem	lib	mod	mod	low	tg	ht	wh/0515.bmp
432.72	0.72	592	4	4	52	mem	con	mod	mod	low	tg	ht	wh/0649.bmp
433.44	0.72	593	3	1	13	per	con	low	mod	low	tg	ms	wh/0472.bmp
434.16	0.72	594	1	2	23	mem	lib	low	low	mod	tg	ht	wh/0702.bmp
434.88	0.72	595	4	2	75	per	lib	low	mod	low	nt	cr	nh/0514_nh.bmp
435.60	0.72	596	4	3	44	mem	con	mod	mod	mod	tg	ms	wh/0600.bmp
436.32	0.72	597	5	3	95	per	lib	low	mod	low	tg	ht	wh/0116.bmp
437.04	0.72	598	4	3	25	mem	lib	mod	mod	mod	tg	ht	wh/0965.bmp
437.76	0.72	599	5	4	83	per	con	mod	mod	mod	tg	ms	wh/0942.bmp
438.48	0.72	600	4	4	45	per	con	low	mod	low	nt	cr	nh/0932_nh.bmp
439.20	0.72	601	5	4	30	mem	lib	mod	mod	low	nt	ms	nh/0163_nh.bmp
439.92	0.72	602	6	2	73	per	lib	low	mod	low	tg	ht	wh/0387.bmp
440.64	0.72	603	5	2	33	mem	con	mod	mod	mod	tg	ht	wh/0847.bmp
441.36	0.72	604	6	1	18	per	con	mod	mod	mod	nt	cr	nh/0429_nh.bmp
442.08	0.72	605	4	3	35	mem	con	mod	mod	mod	nt	ht	nh/0526_nh.bmp
442.80	0.72	606	6	1	54	mem	lib	mod	mod	low	tg	ht	wh/0128.bmp
443.52	0.72	607	1	4	8	mem	con	low	low	mod	nt	ms	nh/0322_nh.bmp
444.24	0.72	608	6	1	32	per	con	mod	mod	mod	nt	cr	nh/0692_nh.bmp
444.96	0.72	609	3	1	83	mem	con	mod	mod	low	nt	ht	nh/0217_nh.bmp
445.68	0.72	610	1	1	77	per	lib	mod	low	mod	tg	ht	wh/0367.bmp
446.40	0.72	611	5	3	34	mem	con	mod	mod	mod	tg	ht	wh/0596.bmp
447.12	0.72	612	5	4	40	per	con	low	mod	low	tg	ms	wh/0897.bmp
447.84	0.72	613	5	1	14	per	con	low	mod	low	nt	cr	nh/0836_nh.bmp
448.56	0.72	614	3	2	82	per	lib	mod	mod	mod	tg	ms	wh/0414.bmp
449.28	0.72	615	6	2	69	per	lib	low	mod	low	nt	fa	nh/0325_nh.bmp
450.00	0.72	616	6	3	48	mem	con	mod	mod	mod	nt	ht	nh/0920_nh.bmp
450.72	0.72	617	6	4	30	mem	lib	mod	mod	low	nt	ms	nh/0163_nh.bmp
451.44	0.72	618	2	1	50	mem	lib	mod	mod	low	tg	ht	wh/0066.bmp
452.16	0.72	619	3	4	26	mem	lib	mod	mod	low	tg	ht	wh/0435.bmp
452.88	0.72	620	2	3	71	per	lib	mod	mod	mod	tg	ht	wh/0975.bmp
453.60	0.72	621	5	4	49	mem	con	mod	mod	low	tg	ms	wh/0178.bmp
454.32	0.72	622	6	2	47	mem	con	mod	mod	mod	tg	ms	wh/0878.bmp
455.04	0.72	623	5	3	84	per	lib	low	mod	low	nt	fa	nh/0168_nh.bmp
455.76	0.72	624	4	3	82	per	lib	low	mod	low	tg	ht	wh/0200.bmp
456.48	0.72	625	5	1	27	per	con	mod	mod	mod	tg	ht	wh/0899.bmp
457.20	0.72	626	6	4	83	per	con	mod	mod	mod	tg	ms	wh/0942.bmp
457.92	0.72	627	6	4	40	per	con	low	mod	low	tg	ms	wh/0897.bmp
458.64	0.72	628	3	2	15	mem	lib	mod	mod	mod	tg	ht	wh/0700.bmp
459.36	0.72	629	5	3	68	per	lib	mod	mod	mod	tg	ht	wh/0393.bmp
460.08	0.72	630	3	4	37	per	con	low	mod	low	nt	cr	nh/0648_nh.bmp
460.80	0.72	631	5	3	25	mem	lib	mod	mod	mod	tg	ht	wh/0965.bmp
461.52	0.72	632	5	1	57	mem	lib	mod	mod	low	tg	ht	wh/0529.bmp
462.24	0.72	633	5	2	46	mem	con	mod	mod	mod	nt	ht	nh/0070_nh.bmp
462.96	0.72	634	2	2	10	mem	lib	mod	mod	mod	nt	ht	nh/0642_nh.bmp
463.68	0.72	635	3	2	10	mem	lib	mod	mod	mod	nt	ht	nh/0642_nh.bmp
464.40	0.72	636	4	1	13	per	con	low	mod	low	tg	ms	wh/0472.bmp
465.12	0.72	637	6	4	90	per	con	mod	mod	mod	tg	ht	wh/0884.bmp
465.84	0.72	638	6	2	46	mem	con	mod	mod	mod	nt	ht	nh/0070_nh.bmp
466.56	0.72	639	4	3	88	per	lib	low	mod	low	tg	ht	wh/1021.bmp
467.28	0.72	640	4	4	26	mem	lib	mod	mod	low	tg	ht	wh/0435.bmp
468.00	0.72	641	5	1	56	mem	lib	mod	mod	low	nt	ht	nh/0377_nh.bmp
468.72	0.72	642	6	1	27	per	con	mod	mod	mod	tg	ht	wh/0899.bmp
469.44	0.72	643	5	1	13	per	con	low	mod	low	tg	ms	wh/0472.bmp
470.16	0.72	644	5	4	57	mem	con	mod	mod	low	nt	ht	nh/0115_nh.bmp
470.88	0.72	645	3	1	59	mem	lib	mod	mod	low	nt	ht	nh/0997_nh.bmp
471.60	0.72	646	5	3	24	mem	lib	mod	mod	mod	nt	ht	nh/0841_nh.bmp
472.32	0.72	647	4	2	70	per	lib	low	mod	low	tg	ht	wh/0766.bmp
473.04	0.72	648	6	4	21	mem	lib	mod	mod	low	tg	ht	wh/0155.bmp
473.76	0.72	649	3	4	84	per	con	mod	mod	mod	nt	cr	nh/0473_nh.bmp
474.48	0.72	650	5	3	35	mem	con	mod	mod	mod	nt	ht	nh/0526_nh.bmp
475.20	0.72	651	4	2	15	mem	lib	mod	mod	mod	tg	ht	wh/0700.bmp
475.92	0.72	652	5	3	41	mem	con	mod	mod	mod	nt	ht	nh/0724_nh.bmp
476.64	0.72	653	6	2	77	per	lib	low	mod	low	nt	n/a	nh/0145_nh.bmp
477.36	0.72	654	4	4	39	per	con	low	mod	low	tg	ms	wh/0298.bmp
478.08	0.72	655	3	3	66	per	lib	mod	mod	mod	nt	cr	nh/0405_nh.bmp
478.80	0.72	656	4	4	84	per	con	mod	mod	mod	nt	cr	nh/0473_nh.bmp
479.52	0.72	657	3	4	88	per	con	mod	mod	mod	nt	cr	nh/0750_nh.bmp
480.24	0.72	658	1	3	121	per	con	mod	low	mod	tg	ms	wh/0406.bmp
480.96	0.72	659	1	2	116	mem	con	low	low	mod	nt	ms	nh/1017_nh.bmp
481.68	0.72	660	6	3	25	mem	lib	mod	mod	mod	tg	ht	wh/0965.bmp
482.40	0.72	661	6	4	29	mem	lib	mod	mod	low	nt	ht	nh/0353_nh.bmp
483.12	0.72	662	6	1	89	mem	con	mod	mod	low	tg	ms	wh/0868.bmp
483.84	0.72	663	1	3	50	mem	lib	low	low	low	tg	ht	wh/0152.bmp
484.56	0.72	664	3	1	88	mem	con	mod	mod	low	tg	ms	wh/0421.bmp
485.28	0.72	665	1	2	51	per	con	low	low	low	tg	ms	wh/0191.bmp
486.00	0.72	666	4	2	45	mem	con	mod	mod	mod	nt	ht	nh/0857_nh.bmp
486.72	0.72	667	4	1	58	mem	lib	mod	mod	low	tg	ht	wh/0816.bmp
487.44	0.72	668	5	2	78	per	lib	low	mod	low	tg	ht	wh/0745.bmp
488.16	0.72	669	5	3	82	per	lib	low	mod	low	tg	ht	wh/0200.bmp
488.88	0.72	670	5	4	26	mem	lib	mod	mod	low	tg	ht	wh/0435.bmp
489.60	0.72	671	5	3	80	per	lib	mod	mod	mod	nt	fa	nh/0274_nh.bmp
490.32	0.72	672	5	2	70	per	lib	low	mod	low	tg	ht	wh/0766.bmp
491.04	0.72	673	3	3	38	mem	con	mod	mod	mod	tg	ht	wh/0162.bmp
491.76	0.72	674	5	3	44	mem	con	mod	mod	mod	tg	ms	wh/0600.bmp
492.48	0.72	675	1	2	18	mem	lib	low	low	mod	nt	ht	nh/0866_nh.bmp
493.20	0.72	676	6	1	7	per	con	low	mod	low	tg	ms	wh/0769.bmp
493.92	0.72	677	6	2	7	mem	lib	mod	mod	mod	tg	ht	wh/0955.bmp
494.64	0.72	678	3	1	50	mem	lib	mod	mod	low	tg	ht	wh/0066.bmp
495.36	0.72	679	1	3	54	mem	lib	low	low	low	tg	ht	wh/0499.bmp
496.08	0.72	680	1	1	75	per	lib	mod	low	mod	nt	cr	nh/0083_nh.bmp
496.80	0.72	681	6	2	70	per	lib	low	mod	low	tg	ht	wh/0766.bmp
497.52	0.72	682	5	2	75	per	lib	low	mod	low	nt	cr	nh/0514_nh.bmp
498.24	0.72	683	6	3	81	per	lib	low	mod	low	tg	ht	wh/0727.bmp
498.96	0.72	684	1	2	19	mem	lib	low	low	mod	nt	ht	nh/0303_nh.bmp
499.68	0.72	685	4	3	19	mem	lib	mod	mod	mod	nt	ht	nh/0204_nh.bmp
500.40	0.72	686	5	3	19	mem	lib	mod	mod	mod	nt	ht	nh/0204_nh.bmp
501.12	0.72	687	4	1	88	mem	con	mod	mod	low	tg	ms	wh/0421.bmp
501.84	0.72	688	6	3	41	mem	con	mod	mod	mod	nt	ht	nh/0724_nh.bmp
502.56	0.72	689	6	1	2	per	con	low	mod	low	tg	ms	wh/0853.bmp
503.28	0.72	690	6	3	95	per	lib	low	mod	low	tg	ht	wh/0116.bmp
504.00	0.72	691	4	3	66	per	lib	mod	mod	mod	nt	cr	nh/0405_nh.bmp
504.72	0.72	692	6	2	4	mem	lib	mod	mod	mod	nt	ht	nh/0935_nh.bmp
505.44	0.72	693	5	2	38	mem	con	mod	mod	mod	nt	ht	nh/0919_nh.bmp
506.16	0.72	694	1	4	3	mem	con	low	low	mod	tg	ms	wh/0321.bmp
506.88	0.72	695	5	3	88	per	lib	low	mod	low	tg	ht	wh/1021.bmp
507.60	0.72	696	6	2	8	mem	lib	mod	mod	mod	nt	ms	nh/0984_nh.bmp
508.32	0.72	697	5	1	28	per	con	mod	mod	mod	tg	ht	wh/0658.bmp
509.04	0.72	698	5	2	45	mem	con	mod	mod	mod	nt	ht	nh/0857_nh.bmp
509.76	0.72	699	3	4	27	mem	lib	mod	mod	low	nt	ht	nh/0031_nh.bmp
510.48	0.72	700	4	2	41	mem	con	mod	mod	mod	tg	ht	wh/0580.bmp
511.20	0.72	701	5	2	85	per	lib	mod	mod	mod	nt	cr	nh/0981_nh.bmp
511.92	0.72	702	4	4	51	mem	con	mod	mod	low	tg	ht	wh/0014.bmp
512.64	0.72	703	4	1	60	mem	lib	mod	mod	low	nt	ms	nh/0019_nh.bmp
513.36	0.72	704	5	4	54	mem	con	mod	mod	low	nt	ht	nh/0741_nh.bmp
514.08	0.72	705	6	3	72	per	lib	mod	mod	mod	nt	cr	nh/0189_nh.bmp
514.80	0.72	706	5	1	60	mem	lib	mod	mod	low	nt	ms	nh/0019_nh.bmp
515.52	0.72	707	3	3	71	per	lib	mod	mod	mod	tg	ht	wh/0975.bmp
516.24	0.72	708	5	4	32	mem	lib	mod	mod	low	tg	ht	wh/0133.bmp
516.96	0.72	709	4	2	10	mem	lib	mod	mod	mod	nt	ht	nh/0642_nh.bmp
517.68	0.72	710	4	3	79	per	lib	mod	mod	mod	tg	ht	wh/0959.bmp
518.40	0.72	711	1	1	78	per	lib	mod	low	mod	nt	cr	nh/0972_nh.bmp
519.12	0.72	712	5	3	66	per	lib	mod	mod	mod	nt	cr	nh/0405_nh.bmp
519.84	0.72	713	6	4	54	mem	con	mod	mod	low	nt	ht	nh/0741_nh.bmp
520.56	0.72	714	5	4	84	per	con	mod	mod	mod	nt	cr	nh/0473_nh.bmp
521.28	0.72	715	5	3	27	mem	lib	mod	mod	mod	tg	ht	wh/0785.bmp
522.00	0.72	716	6	3	85	per	lib	low	mod	low	nt	fa	nh/0205_nh.bmp
522.72	0.72	717	4	4	34	per	con	low	mod	low	tg	ms	wh/0379.bmp
523.44	0.72	718	4	3	38	mem	con	mod	mod	mod	tg	ht	wh/0162.bmp
524.16	0.72	719	6	2	75	per	lib	low	mod	low	nt	cr	nh/0514_nh.bmp
524.88	0.72	720	4	4	37	per	con	low	mod	low	nt	cr	nh/0648_nh.bmp
525.60	0.72	721	4	1	83	mem	con	mod	mod	low	nt	ht	nh/0217_nh.bmp
526.32	0.72	722	5	4	42	per	con	low	mod	low	nt	cr	nh/0265_nh.bmp
527.04	0.72	723	4	3	26	mem	lib	mod	mod	mod	tg	ht	wh/0698.bmp
527.76	0.72	724	5	1	58	mem	lib	mod	mod	low	tg	ht	wh/0816.bmp
528.48	0.72	725	1	4	79	per	lib	mod	low	mod	tg	ht	wh/0856.bmp
529.20	0.72	726	6	2	33	mem	con	mod	mod	mod	tg	ht	wh/0847.bmp
529.92	0.72	727	5	2	15	mem	lib	mod	mod	mod	tg	ht	wh/0700.bmp
530.64	0.72	728	6	4	31	mem	lib	mod	mod	low	nt	ht	nh/0392_nh.bmp
531.36	0.72	729	1	4	5	mem	con	low	low	mod	nt	ht	nh/0476_nh.bmp
532.08	0.72	730	5	4	52	mem	con	mod	mod	low	tg	ht	wh/0649.bmp
532.80	0.72	731	6	1	57	mem	lib	mod	mod	low	tg	ht	wh/0529.bmp
533.52	0.72	732	4	1	49	mem	lib	mod	mod	low	nt	ht	nh/0597_nh.bmp
534.24	0.72	733	5	2	1	mem	lib	mod	mod	mod	nt	ht	nh/0896_nh.bmp
534.96	0.72	734	6	4	52	mem	con	mod	mod	low	tg	ht	wh/0649.bmp
535.68	0.72	735	4	1	50	mem	lib	mod	mod	low	tg	ht	wh/0066.bmp
536.40	0.72	736	5	3	79	per	lib	mod	mod	mod	tg	ht	wh/0959.bmp
537.12	0.72	737	6	2	15	mem	lib	mod	mod	mod	tg	ht	wh/0700.bmp
537.84	0.72	738	4	4	88	per	con	mod	mod	mod	nt	cr	nh/0750_nh.bmp
538.56	0.72	739	6	3	68	per	lib	mod	mod	mod	tg	ht	wh/0393.bmp
539.28	0.72	740	5	2	91	per	lib	mod	mod	mod	nt	cr	nh/0681_nh.bmp
540.00	0.72	741	6	1	6	per	con	low	mod	low	nt	cr	nh/0624_nh.bmp
540.72	0.72	742	5	2	11	mem	lib	mod	mod	mod	tg	ht	wh/0425.bmp
541.44	0.72	743	1	3	3	mem	con	low	low	low	nt	ms	nh/0159_nh.bmp
542.16	0.72	744	6	1	9	per	con	low	mod	low	nt	fa	nh/0233_nh.bmp
542.88	0.72	745	5	2	41	mem	con	mod	mod	mod	tg	ht	wh/0580.bmp
543.60	0.72	746	6	2	85	per	lib	mod	mod	mod	nt	cr	nh/0981_nh.bmp
544.32	0.72	747	5	4	88	per	con	mod	mod	mod	nt	cr	nh/0750_nh.bmp
545.04	0.72	748	1	4	70	per	lib	mod	low	mod	tg	ht	wh/0270.bmp
545.76	0.72	749	4	3	74	per	lib	mod	mod	mod	tg	ht	wh/0017.bmp
546.48	0.72	750	5	4	34	per	con	low	mod	low	tg	ms	wh/0379.bmp
547.20	0.72	751	1	2	108	per	con	mod	low	mod	tg	ms	wh/0332.bmp
547.92	0.72	752	6	4	49	mem	con	mod	mod	low	tg	ms	wh/0178.bmp
548.64	0.72	753	2	4	35	per	con	low	mod	low	tg	ms	wh/0704.bmp
549.36	0.72	754	6	1	84	mem	con	mod	mod	low	nt	ht	nh/0177_nh.bmp
550.08	0.72	755	4	2	82	per	lib	mod	mod	mod	tg	ms	wh/0414.bmp
550.80	0.72	756	6	2	94	per	lib	mod	mod	mod	tg	ms	wh/0605.bmp
551.52	0.72	757	6	1	60	mem	lib	mod	mod	low	nt	ms	nh/0019_nh.bmp
552.24	0.72	758	5	1	83	mem	con	mod	mod	low	nt	ht	nh/0217_nh.bmp
552.96	0.72	759	6	1	14	per	con	low	mod	low	nt	cr	nh/0836_nh.bmp
553.68	0.72	760	6	1	90	mem	con	mod	mod	low	nt	ms	nh/0739_nh.bmp
554.40	0.72	761	5	2	65	per	lib	low	mod	low	tg	ms	wh/0156.bmp
555.12	0.72	762	1	1	121	mem	con	low	low	low	tg	ms	wh/0771.bmp
555.84	0.72	763	4	3	71	per	lib	mod	mod	mod	tg	ht	wh/0975.bmp
556.56	0.72	764	1	3	97	per	con	low	low	low	tg	ms	wh/0141.bmp
557.28	0.72	765	6	2	43	mem	con	mod	mod	mod	nt	ms	nh/0938_nh.bmp
558.00	0.72	766	1	2	104	per	con	mod	low	mod	tg	ht	wh/0235.bmp
558.72	0.72	767	5	1	11	per	con	low	mod	low	tg	ms	wh/0573.bmp
559.44	0.72	768	5	3	38	mem	con	mod	mod	mod	tg	ht	wh/0162.bmp
560.16	0.72	769	6	4	57	mem	con	mod	mod	low	nt	ht	nh/0115_nh.bmp
560.88	0.72	770	5	2	82	per	lib	mod	mod	mod	tg	ms	wh/0414.bmp
561.60	0.72	771	1	4	105	mem	lib	low	low	mod	tg	ms	wh/0659.bmp
562.32	0.72	772	1	3	110	per	con	low	low	low	nt	cr	nh/0533_nh.bmp
563.04	0.72	773	6	3	79	per	lib	mod	mod	mod	tg	ht	wh/0959.bmp
563.76	0.72	774	3	2	83	per	lib	mod	mod	mod	nt	n/a	nh/0534_nh.bmp
564.48	0.72	775	4	4	27	mem	lib	mod	mod	low	nt	ht	nh/0031_nh.bmp
565.20	0.72	776	1	1	39	mem	lib	low	low	low	nt	ht	nh/0140_nh.bmp
565.92	0.72	777	5	4	51	mem	con	mod	mod	low	tg	ht	wh/0014.bmp
566.64	0.72	778	5	3	74	per	lib	mod	mod	mod	tg	ht	wh/0017.bmp
567.36	0.72	779	6	4	34	per	con	low	mod	low	tg	ms	wh/0379.bmp
568.08	0.72	780	6	2	6	mem	lib	mod	mod	mod	tg	ht	wh/0001.bmp
568.80	0.72	781	6	3	84	per	lib	low	mod	low	nt	fa	nh/0168_nh.bmp
569.52	0.72	782	6	3	47	mem	con	mod	mod	mod	tg	ms	wh/0879.bmp
570.24	0.72	783	4	2	83	per	lib	mod	mod	mod	nt	n/a	nh/0534_nh.bmp
570.96	0.72	784	4	4	53	mem	con	mod	mod	low	nt	ht	nh/0027_nh.bmp
571.68	0.72	785	6	1	5	per	con	low	mod	low	nt	cr	nh/0251_nh.bmp
572.40	0.72	786	1	3	98	per	con	low	low	low	tg	ms	wh/0432.bmp
573.12	0.72	787	6	2	38	mem	con	mod	mod	mod	nt	ht	nh/0919_nh.bmp
573.84	0.72	788	3	4	35	per	con	low	mod	low	tg	ms	wh/0704.bmp
574.56	0.72	789	5	4	39	per	con	low	mod	low	tg	ms	wh/0298.bmp
575.28	0.72	790	1	3	62	mem	lib	low	low	low	nt	ht	nh/0411_nh.bmp
576.00	0.72	791	5	1	85	mem	con	mod	mod	low	tg	ht	wh/0733.bmp
576.72	0.72	792	5	4	53	mem	con	mod	mod	low	nt	ht	nh/0027_nh.bmp
577.44	0.72	793	5	1	50	mem	lib	mod	mod	low	tg	ht	wh/0066.bmp
578.16	0.72	794	5	4	27	mem	lib	mod	mod	low	nt	ht	nh/0031_nh.bmp
578.88	0.72	795	6	4	53	mem	con	mod	mod	low	nt	ht	nh/0027_nh.bmp
579.60	0.72	796	1	3	113	per	con	mod	low	mod	tg	ms	wh/0910.bmp
580.32	0.72	797	6	2	93	per	lib	mod	mod	mod	nt	fa	nh/0466_nh.bmp
581.04	0.72	798	4	4	48	per	con	low	mod	low	nt	cr	nh/0105_nh.bmp
581.76	0.72	799	1	3	122	per	con	mod	low	mod	nt	cr	nh/0228_nh.bmp
582.48	0.72	800	6	4	32	mem	lib	mod	mod	low	tg	ht	wh/0133.bmp
583.20	0.72	801	6	3	19	mem	lib	mod	mod	mod	nt	ht	nh/0204_nh.bmp
583.92	0.72	802	5	4	62	mem	con	mod	mod	low	nt	ms	nh/0040_nh.bmp
584.64	0.72	803	6	1	19	per	con	mod	mod	mod	nt	cr	nh/0098_nh.bmp
585.36	0.72	804	1	2	54	per	con	low	low	low	tg	ms	wh/0722.bmp
586.08	0.72	805	5	3	89	per	lib	low	mod	low	nt	fa	nh/0755_nh.bmp
586.80	0.72	806	5	1	91	mem	con	mod	mod	low	tg	ht	wh/0341.bmp
587.52	0.72	807	5	1	88	mem	con	mod	mod	low	tg	ms	wh/0421.bmp
588.24	0.72	808	6	1	56	mem	lib	mod	mod	low	nt	ht	nh/0377_nh.bmp
588.96	0.72	809	6	1	23	per	con	mod	mod	mod	nt	cr	nh/0627_nh.bmp
589.68	0.72	810	6	1	85	mem	con	mod	mod	low	tg	ht	wh/0733.bmp
590.40	0.72	811	6	4	84	per	con	mod	mod	mod	nt	cr	nh/0473_nh.bmp
591.12	0.72	812	5	3	71	per	lib	mod	mod	mod	tg	ht	wh/0975.bmp
591.84	0.72	813	6	4	88	per	con	mod	mod	mod	nt	cr	nh/0750_nh.bmp
592.56	0.72	814	5	2	10	mem	lib	mod	mod	mod	nt	ht	nh/0642_nh.bmp
593.28	0.72	815	6	3	66	per	lib	mod	mod	mod	nt	cr	nh/0405_nh.bmp
594.00	0.72	816	5	4	45	per	con	low	mod	low	nt	cr	nh/0932_nh.bmp
594.72	0.72	817	1	1	37	mem	lib	low	low	low	tg	ht	wh/0354.bmp
595.44	0.72	818	5	4	58	mem	con	mod	mod	low	tg	ht	wh/0926.bmp
596.16	0.72	819	1	2	20	mem	lib	low	low	mod	tg	ht	wh/0213.bmp
596.88	0.72	820	5	2	83	per	lib	mod	mod	mod	nt	n/a	nh/0534_nh.bmp
597.60	0.72	821	6	3	38	mem	con	mod	mod	mod	tg	ht	wh/0162.bmp
598.32	0.72	822	6	3	27	mem	lib	mod	mod	mod	tg	ht	wh/0785.bmp
599.04	0.72	823	5	1	49	mem	lib	mod	mod	low	nt	ht	nh/0597_nh.bmp
599.76	0.72	824	6	2	10	mem	lib	mod	mod	mod	nt	ht	nh/0642_nh.bmp
600.48	0.72	825	6	4	27	mem	lib	mod	mod	low	nt	ht	nh/0031_nh.bmp
601.20	0.72	826	6	2	81	per	lib	mod	mod	mod	tg	ht	wh/0801.bmp
601.92	0.72	827	5	4	48	per	con	low	mod	low	nt	cr	nh/0105_nh.bmp
602.64	0.72	828	5	3	26	mem	lib	mod	mod	mod	tg	ht	wh/0698.bmp
603.36	0.72	829	6	2	91	per	lib	mod	mod	mod	nt	cr	nh/0681_nh.bmp
604.08	0.72	830	6	1	13	per	con	low	mod	low	tg	ms	wh/0472.bmp
604.80	0.72	831	1	2	56	per	con	low	low	low	nt	cr	nh/0122_nh.bmp
605.52	0.72	832	5	3	30	mem	lib	mod	mod	mod	tg	ht	wh/0463.bmp
606.24	0.72	833	6	3	34	mem	con	mod	mod	mod	tg	ht	wh/0596.bmp
606.96	0.72	834	4	1	59	mem	lib	mod	mod	low	nt	ht	nh/0997_nh.bmp
607.68	0.72	835	1	4	80	per	lib	mod	low	mod	nt	fa	nh/0149_nh.bmp
608.40	0.72	836	1	4	72	per	lib	mod	low	mod	nt	cr	nh/0776_nh.bmp
609.12	0.72	837	6	4	96	per	con	mod	mod	mod	nt	cr	nh/0183_nh.bmp
609.84	0.72	838	6	4	58	mem	con	mod	mod	low	tg	ht	wh/0926.bmp
610.56	0.72	839	5	1	59	mem	lib	mod	mod	low	nt	ht	nh/0997_nh.bmp
611.28	0.72	840	4	4	35	per	con	low	mod	low	tg	ms	wh/0704.bmp
612.00	0.72	841	6	4	39	per	con	low	mod	low	tg	ms	wh/0298.bmp
612.72	0.72	842	6	3	35	mem	con	mod	mod	mod	nt	ht	nh/0526_nh.bmp
613.44	0.72	843	1	4	116	per	lib	low	low	low	tg	ms	wh/0423.bmp
614.16	0.72	844	6	3	89	per	lib	low	mod	low	nt	fa	nh/0755_nh.bmp
614.88	0.72	845	6	3	74	per	lib	mod	mod	mod	tg	ht	wh/0017.bmp
615.60	0.72	846	6	4	51	mem	con	mod	mod	low	tg	ht	wh/0014.bmp
616.32	0.72	847	5	4	35	per	con	low	mod	low	tg	ms	wh/0704.bmp
617.04	0.72	848	6	2	82	per	lib	mod	mod	mod	tg	ms	wh/0414.bmp
617.76	0.72	849	6	3	43	mem	con	mod	mod	mod	nt	ht	nh/0002_nh.bmp
618.48	0.72	850	1	2	63	per	con	low	low	low	nt	cr	nh/0662_nh.bmp
619.20	0.72	851	1	4	118	per	lib	low	low	low	tg	ms	wh/1012.bmp
619.92	0.72	852	6	1	58	mem	lib	mod	mod	low	tg	ht	wh/0816.bmp
620.64	0.72	853	6	4	45	per	con	low	mod	low	nt	cr	nh/0932_nh.bmp
621.36	0.72	854	6	4	62	mem	con	mod	mod	low	nt	ms	nh/0040_nh.bmp
622.08	0.72	855	6	4	26	mem	lib	mod	mod	low	tg	ht	wh/0435.bmp
622.80	0.72	856	6	1	50	mem	lib	mod	mod	low	tg	ht	wh/0066.bmp
623.52	0.72	857	5	2	88	per	lib	mod	mod	mod	tg	ht	wh/0391.bmp
624.24	0.72	858	6	4	24	mem	lib	mod	mod	low	tg	ht	wh/0515.bmp
624.96	0.72	859	6	2	36	mem	con	mod	mod	mod	tg	ht	wh/0287.bmp
625.68	0.72	860	6	2	88	per	lib	mod	mod	mod	tg	ht	wh/0391.bmp
626.40	0.72	861	1	1	42	mem	lib	low	low	low	tg	ht	wh/1001.bmp
627.12	0.72	862	6	2	11	mem	lib	mod	mod	mod	tg	ht	wh/0425.bmp
627.84	0.72	863	6	2	41	mem	con	mod	mod	mod	tg	ht	wh/0580.bmp
628.56	0.72	864	6	2	83	per	lib	mod	mod	mod	nt	n/a	nh/0534_nh.bmp
629.28	0.72	865	6	1	25	per	con	mod	mod	mod	tg	ms	wh/0289.bmp
630.00	0.72	866	5	4	37	per	con	low	mod	low	nt	cr	nh/0648_nh.bmp
630.72	0.72	867	6	1	11	per	con	low	mod	low	tg	ms	wh/0573.bmp
631.44	0.72	868	6	1	28	per	con	mod	mod	mod	tg	ht	wh/0658.bmp
632.16	0.72	869	6	2	78	per	lib	low	mod	low	tg	ht	wh/0745.bmp
632.88	0.72	870	1	4	112	mem	lib	low	low	mod	nt	ht	nh/0752_nh.bmp
633.60	0.72	871	6	1	83	mem	con	mod	mod	low	nt	ht	nh/0217_nh.bmp
634.32	0.72	872	6	2	1	mem	lib	mod	mod	mod	nt	ht	nh/0896_nh.bmp
635.04	0.72	873	1	3	51	mem	lib	low	low	low	tg	ht	wh/0651.bmp
635.76	0.72	874	6	4	42	per	con	low	mod	low	nt	cr	nh/0265_nh.bmp
636.48	0.72	875	6	4	85	per	con	mod	mod	mod	tg	ms	wh/0637.bmp
637.20	0.72	876	6	3	30	mem	lib	mod	mod	mod	tg	ht	wh/0463.bmp
637.92	0.72	877	6	3	24	mem	lib	mod	mod	mod	nt	ht	nh/0841_nh.bmp
638.64	0.72	878	6	1	88	mem	con	mod	mod	low	tg	ms	wh/0421.bmp
639.36	0.72	879	6	2	45	mem	con	mod	mod	mod	nt	ht	nh/0857_nh.bmp
640.08	0.72	880	1	2	121	mem	con	low	low	mod	nt	ms	nh/0977_nh.bmp
640.80	0.72	881	6	1	49	mem	lib	mod	mod	low	nt	ht	nh/0597_nh.bmp
641.52	0.72	882	1	2	24	mem	lib	low	low	mod	nt	ht	nh/0712_nh.bmp
642.24	0.72	883	6	4	48	per	con	low	mod	low	nt	cr	nh/0105_nh.bmp
642.96	0.72	884	6	3	44	mem	con	mod	mod	mod	tg	ms	wh/0600.bmp
643.68	0.72	885	6	4	37	per	con	low	mod	low	nt	cr	nh/0648_nh.bmp
644.40	0.72	886	6	2	65	per	lib	low	mod	low	tg	ms	wh/0156.bmp
645.12	0.72	887	6	4	35	per	con	low	mod	low	tg	ms	wh/0704.bmp
645.84	0.72	888	1	4	126	per	lib	low	low	low	nt	cr	nh/0817_nh.bmp
646.56	0.72	889	6	3	82	per	lib	low	mod	low	tg	ht	wh/0200.bmp
647.28	0.72	890	6	3	93	per	lib	low	mod	low	nt	cr	nh/0455_nh.bmp
648.00	0.72	891	6	3	80	per	lib	mod	mod	mod	nt	fa	nh/0274_nh.bmp
648.72	0.72	892	6	3	88	per	lib	low	mod	low	tg	ht	wh/1021.bmp
649.44	0.72	893	6	1	59	mem	lib	mod	mod	low	nt	ht	nh/0997_nh.bmp
650.16	0.72	894	6	1	91	mem	con	mod	mod	low	tg	ht	wh/0341.bmp
650.88	0.72	895	6	3	71	per	lib	mod	mod	mod	tg	ht	wh/0975.bmp
651.60	0.72	896	6	3	26	mem	lib	mod	mod	mod	tg	ht	wh/0698.bmp
