onset	duration	block	trial	task	crit	disc	mem_disc	per_disc	trial_type	mem_type	per_type	left_option	resp_hand	response	accuracy	response_time	stim_file	pay	pay_tot
7.2	7.2	1	n/a	per	con	low	n/a	n/a	instructions	n/a	n/a	n/a	n/a	n/a	n/a	n/a	n/a	n/a	n/a
15.44	1.4189	1	1	per	con	low	low	low	tg	tg	tg	tg	right	nt	ms	1.0189	wh/0617.bmp	0	15.5
18.32	1.20982	1	2	per	con	low	low	low	nt	tg	nt	nt	left	nt	cr	0.80982	nh/0929_nh.bmp	0.05	15.55
21.2	1.00542	1	3	per	con	low	low	low	tg	nt	tg	nt	left	nt	ms	0.60542	wh/0292.bmp	0	15.55
24.08	1.27894	1	4	per	con	low	low	low	tg	nt	tg	tg	right	nt	ms	0.87894	wh/1009.bmp	0	15.55
28.4	1.11183	1	5	per	con	low	low	low	nt	nt	nt	nt	left	nt	cr	0.71183	nh/0090_nh.bmp	0.05	15.6
31.28	1.33291	1	6	per	con	low	low	low	tg	tg	tg	tg	right	nt	ms	0.93291	wh/0063.bmp	0	15.6
34.16	1.07105	1	7	per	con	low	low	low	tg	tg	tg	nt	left	nt	ms	0.67105	wh/0045.bmp	0	15.6
37.76	1.32492	1	8	per	con	low	low	low	nt	tg	nt	tg	right	nt	cr	0.92492	nh/0570_nh.bmp	0.05	15.65
40.64	1.6199	1	9	per	con	low	low	low	nt	nt	nt	tg	right	nt	cr	1.2199	nh/0711_nh.bmp	0.05	15.7
43.52	1.1849	1	10	per	con	low	low	low	nt	tg	nt	tg	right	nt	cr	0.7849	nh/0880_nh.bmp	0.05	15.75
47.12	1.23288	1	11	per	con	low	low	low	tg	nt	tg	tg	right	nt	ms	0.83288	wh/0831.bmp	0	15.75
50	1.34789	1	12	per	con	low	low	low	nt	tg	nt	nt	left	nt	cr	0.94789	nh/0280_nh.bmp	0.05	15.8
52.88	1.17192	1	13	per	con	low	low	low	tg	tg	tg	nt	left	nt	ms	0.77192	wh/0244.bmp	0	15.8
57.2	1.20387	1	14	per	con	low	low	low	nt	nt	nt	nt	left	nt	cr	0.80387	nh/0197_nh.bmp	0.05	15.85
61.52	1.39494	1	15	per	con	low	low	low	tg	nt	tg	nt	left	nt	ms	0.99494	wh/0088.bmp	0	15.85
64.4	1.34286	1	16	per	con	low	low	low	nt	nt	nt	tg	right	nt	cr	0.94286	nh/0053_nh.bmp	0.05	15.9
66.96	3.6	1	n/a	per	con	low	n/a	n/a	feedback	n/a	n/a	n/a	n/a	n/a	n/a	n/a	n/a	n/a	n/a
70.56	7.2	2	n/a	per	lib	low	n/a	n/a	instructions	n/a	n/a	n/a	n/a	n/a	n/a	n/a	n/a	n/a	n/a
79.52	1.28895	2	17	per	lib	low	low	low	nt	tg	nt	nt	right	tg	fa	0.88895	nh/0268_nh.bmp	0	15.9
83.12	1.01792	2	18	per	lib	low	low	low	tg	tg	tg	nt	right	tg	ht	0.61792	wh/0352.bmp	0.05	15.95
86	1.12287	2	19	per	lib	low	low	low	tg	nt	tg	nt	left	nt	ms	0.72287	wh/0768.bmp	-0.1	15.85
89.6	1.03713	2	20	per	lib	low	low	low	nt	nt	nt	nt	right	tg	fa	0.63713	nh/0845_nh.bmp	0	15.85
92.48	1.6518	2	21	per	lib	low	low	low	nt	tg	nt	nt	right	tg	fa	1.2518	nh/0260_nh.bmp	0	15.85
95.36	1.5369	2	22	per	lib	low	low	low	tg	nt	tg	tg	right	nt	ms	1.1369	wh/0055.bmp	-0.1	15.75
98.24	1.31889	2	23	per	lib	low	low	low	tg	nt	tg	tg	left	tg	ht	0.91889	wh/0261.bmp	0.05	15.8
101.84	1.14188	2	24	per	lib	low	low	low	nt	nt	nt	nt	right	tg	fa	0.74188	nh/0513_nh.bmp	0	15.8
104.72	1.22993	2	25	per	lib	low	low	low	nt	tg	nt	tg	left	tg	fa	0.82993	nh/0566_nh.bmp	0	15.8
108.32	1.6879	2	26	per	lib	low	low	low	nt	nt	nt	nt	right	tg	fa	1.2879	nh/0706_nh.bmp	0	15.8
111.2	1.28689	2	27	per	lib	low	low	low	nt	tg	nt	tg	left	tg	fa	0.88689	nh/0135_nh.bmp	0	15.8
114.8	1.7389	2	28	per	lib	low	low	low	tg	nt	tg	nt	left	nt	ms	1.3389	wh/0433.bmp	-0.1	15.7
119.12	1.36394	2	29	per	lib	low	low	low	tg	tg	tg	tg	left	tg	ht	0.96394	wh/0767.bmp	0.05	15.75
122	1.7758	2	30	per	lib	low	low	low	nt	nt	nt	nt	right	tg	fa	1.3758	nh/0458_nh.bmp	0	15.75
124.88	1.32691	2	31	per	lib	low	low	low	tg	tg	tg	tg	left	tg	ht	0.92691	wh/0376.bmp	0.05	15.8
128.48	1.29688	2	32	per	lib	low	low	low	tg	tg	tg	nt	left	nt	ms	0.89688	wh/0480.bmp	-0.1	15.7
131.04	3.6	2	n/a	per	lib	low	n/a	n/a	feedback	n/a	n/a	n/a	n/a	n/a	n/a	n/a	n/a	n/a	n/a
135.36	7.2	3	n/a	mem	con	mod	n/a	n/a	instructions	n/a	n/a	n/a	n/a	n/a	n/a	n/a	n/a	n/a	n/a
144.32	1.7609	3	33	mem	con	mod	mod	mod	tg	tg	nt	tg	right	nt	ms	1.3609	nh/0056_nh.bmp	0	15.7
147.2	1.6129	3	34	mem	con	mod	mod	mod	nt	nt	tg	tg	right	nt	cr	1.2129	wh/0946.bmp	0.05	15.75
150.08	1.18487	3	35	mem	con	mod	mod	mod	tg	tg	nt	nt	left	nt	ms	0.78487	nh/0179_nh.bmp	0	15.75
152.96	1.8879	3	36	mem	con	mod	mod	mod	tg	tg	tg	tg	right	nt	ms	1.4879	wh/0549.bmp	0	15.75
156.56	1.01701	3	37	mem	con	mod	mod	mod	nt	nt	tg	nt	left	nt	cr	0.61701	wh/0748.bmp	0.05	15.8
159.44	1.17188	3	38	mem	con	mod	mod	mod	nt	nt	tg	nt	left	nt	cr	0.77188	wh/0957.bmp	0.05	15.85
163.76	0.91599	3	39	mem	con	mod	mod	mod	nt	nt	nt	nt	left	nt	cr	0.51599	nh/0558_nh.bmp	0.05	15.9
166.64	1.24287	3	40	mem	con	mod	mod	mod	tg	tg	tg	tg	right	nt	ms	0.84287	wh/0822.bmp	0	15.9
169.52	1.4769	3	41	mem	con	mod	mod	mod	tg	tg	tg	nt	left	nt	ms	1.0769	wh/0436.bmp	0	15.9
172.4	1.5179	3	42	mem	con	mod	mod	mod	tg	tg	nt	tg	left	tg	ht	1.1179	nh/0629_nh.bmp	0.05	15.95
176	0.96818	3	43	mem	con	mod	mod	mod	tg	tg	tg	tg	right	nt	ms	0.56818	wh/0971.bmp	0	15.95
178.88	1.10488	3	44	mem	con	mod	mod	mod	nt	nt	nt	tg	right	nt	cr	0.70488	nh/0339_nh.bmp	0.05	16
181.76	1.5339	3	45	mem	con	mod	mod	mod	tg	tg	nt	tg	left	tg	ht	1.1339	nh/0366_nh.bmp	0.05	16.05
184.64	1.1999	3	46	mem	con	mod	mod	mod	nt	nt	nt	nt	right	tg	fa	0.7999	nh/0350_nh.bmp	-0.1	15.95
187.52	1.0973	3	47	mem	con	mod	mod	mod	nt	nt	nt	nt	left	nt	cr	0.6973	nh/0593_nh.bmp	0.05	16
191.12	1.06937	3	48	mem	con	mod	mod	mod	nt	nt	tg	tg	right	nt	cr	0.66937	wh/0962.bmp	0.05	16.05
193.68	3.6	3	n/a	mem	con	mod	n/a	n/a	feedback	n/a	n/a	n/a	n/a	n/a	n/a	n/a	n/a	n/a	n/a
198	7.2	4	n/a	mem	lib	low	n/a	n/a	instructions	n/a	n/a	n/a	n/a	n/a	n/a	n/a	n/a	n/a	n/a
205.52	2.0129	4	49	mem	lib	low	low	low	nt	nt	tg	tg	right	nt	cr	1.6129	wh/0701.bmp	0.05	16.1
208.4	1.3469	4	50	mem	lib	low	low	low	nt	nt	nt	tg	right	nt	cr	0.9469	nh/0815_nh.bmp	0.05	16.15
212.72	1.1709	4	51	mem	lib	low	low	low	nt	nt	nt	nt	right	tg	fa	0.7709	nh/0789_nh.bmp	0	16.15
217.04	1.16999	4	52	mem	lib	low	low	low	nt	nt	nt	nt	right	tg	fa	0.76999	nh/0579_nh.bmp	0	16.15
221.36	1.4278	4	53	mem	lib	low	low	low	nt	nt	nt	tg	left	tg	fa	1.0278	nh/0185_nh.bmp	0	16.15
225.68	1.4689	4	54	mem	lib	low	low	low	tg	tg	tg	nt	right	tg	ht	1.0689	wh/0770.bmp	0.05	16.2
228.56	1.00887	4	55	mem	lib	low	low	low	tg	tg	tg	tg	left	tg	ht	0.60887	wh/0224.bmp	0.05	16.25
231.44	1.14485	4	56	mem	lib	low	low	low	tg	tg	nt	tg	left	tg	ht	0.74485	nh/0144_nh.bmp	0.05	16.3
235.76	1.411	4	57	mem	lib	low	low	low	tg	tg	nt	nt	right	tg	ht	1.011	nh/0639_nh.bmp	0.05	16.35
238.64	1.7989	4	58	mem	lib	low	low	low	tg	tg	nt	tg	left	tg	ht	1.3989	nh/0219_nh.bmp	0.05	16.4
241.52	1.13689	4	59	mem	lib	low	low	low	nt	nt	tg	nt	right	tg	fa	0.73689	wh/0930.bmp	0	16.4
244.4	1.0121	4	60	mem	lib	low	low	low	tg	tg	nt	nt	right	tg	ht	0.6121	nh/0005_nh.bmp	0.05	16.45
248.72	1.13989	4	61	mem	lib	low	low	low	tg	tg	tg	tg	left	tg	ht	0.73989	wh/0240.bmp	0.05	16.5
251.6	0.97847	4	62	mem	lib	low	low	low	tg	tg	tg	nt	right	tg	ht	0.57847	wh/0181.bmp	0.05	16.55
255.2	1.2329	4	63	mem	lib	low	low	low	nt	nt	tg	tg	right	nt	cr	0.8329	wh/0864.bmp	0.05	16.6
258.8	1.06191	4	64	mem	lib	low	low	low	nt	nt	tg	tg	left	tg	fa	0.66191	wh/0370.bmp	0	16.6
262.08	3.6	4	n/a	mem	lib	low	n/a	n/a	feedback	n/a	n/a	n/a	n/a	n/a	n/a	n/a	n/a	n/a	n/a
266.4	7.2	5	n/a	per	con	mod	n/a	n/a	instructions	n/a	n/a	n/a	n/a	n/a	n/a	n/a	n/a	n/a	n/a
273.92	1.18384	5	65	per	con	mod	low	mod	tg	tg	tg	nt	left	nt	ms	0.78384	wh/0101.bmp	0	16.6
276.8	1.02669	5	66	per	con	mod	low	mod	nt	nt	nt	nt	left	nt	cr	0.62669	nh/0781_nh.bmp	0.05	16.65
279.68	1.26992	5	67	per	con	mod	low	mod	nt	tg	nt	tg	right	nt	cr	0.86992	nh/0840_nh.bmp	0.05	16.7
284	1.32692	5	68	per	con	mod	low	mod	nt	tg	nt	tg	left	tg	fa	0.92692	nh/1008_nh.bmp	-0.1	16.6
286.88	0.96705	5	69	per	con	mod	low	mod	nt	tg	nt	tg	right	nt	cr	0.56705	nh/0668_nh.bmp	0.05	16.65
290.48	1.36889	5	70	per	con	mod	low	mod	tg	tg	tg	nt	right	tg	ht	0.96889	wh/0631.bmp	0.05	16.7
293.36	1.09234	5	71	per	con	mod	low	mod	tg	tg	tg	nt	right	tg	ht	0.69234	wh/0559.bmp	0.05	16.75
296.96	1.25688	5	72	per	con	mod	low	mod	tg	nt	tg	tg	left	tg	ht	0.85688	wh/0461.bmp	0.05	16.8
301.28	1.4519	5	73	per	con	mod	low	mod	tg	nt	tg	nt	left	nt	ms	1.0519	wh/0849.bmp	0	16.8
304.88	1.13388	5	74	per	con	mod	low	mod	tg	tg	tg	tg	left	tg	ht	0.73388	wh/0532.bmp	0.05	16.85
307.76	1.35293	5	75	per	con	mod	low	mod	nt	nt	nt	nt	left	nt	cr	0.95293	nh/0736_nh.bmp	0.05	16.9
311.36	1.6389	5	76	per	con	mod	low	mod	tg	nt	tg	tg	left	tg	ht	1.2389	wh/0949.bmp	0.05	16.95
314.96	1.13087	5	77	per	con	mod	low	mod	nt	nt	nt	tg	right	nt	cr	0.73087	nh/1018_nh.bmp	0.05	17
317.84	1.06969	5	78	per	con	mod	low	mod	nt	tg	nt	tg	right	nt	cr	0.66969	nh/0389_nh.bmp	0.05	17.05
322.16	1.8139	5	79	per	con	mod	low	mod	nt	nt	nt	nt	left	nt	cr	1.4139	nh/0838_nh.bmp	0.05	17.1
325.04	1.24188	5	80	per	con	mod	low	mod	tg	nt	tg	tg	left	tg	ht	0.84188	wh/1024.bmp	0.05	17.15
327.6	3.6	5	n/a	per	con	mod	n/a	n/a	feedback	n/a	n/a	n/a	n/a	n/a	n/a	n/a	n/a	n/a	n/a
331.92	7.2	6	n/a	per	lib	mod	n/a	n/a	instructions	n/a	n/a	n/a	n/a	n/a	n/a	n/a	n/a	n/a	n/a
339.44	1.17992	6	81	per	lib	mod	low	mod	nt	nt	nt	tg	right	nt	cr	0.77992	nh/0530_nh.bmp	0.05	17.2
342.32	1.22689	6	82	per	lib	mod	low	mod	tg	tg	tg	nt	right	tg	ht	0.82689	wh/0948.bmp	0.05	17.25
346.64	1.6099	6	83	per	lib	mod	low	mod	tg	tg	tg	tg	right	nt	ms	1.2099	wh/0207.bmp	-0.1	17.15
349.52	1.21881	6	84	per	lib	mod	low	mod	tg	nt	tg	nt	right	tg	ht	0.81881	wh/0531.bmp	0.05	17.2
352.4	1.16788	6	85	per	lib	mod	low	mod	nt	nt	nt	tg	left	tg	fa	0.76788	nh/0584_nh.bmp	0	17.2
356.72	1.08732	6	86	per	lib	mod	low	mod	tg	nt	tg	tg	left	tg	ht	0.68732	wh/0936.bmp	0.05	17.25
359.6	1.26393	6	87	per	lib	mod	low	mod	nt	nt	nt	tg	right	nt	cr	0.86393	nh/0581_nh.bmp	0.05	17.3
363.2	1.6419	6	88	per	lib	mod	low	mod	tg	tg	tg	tg	left	tg	ht	1.2419	wh/0016.bmp	0.05	17.35
367.52	1.18388	6	89	per	lib	mod	low	mod	tg	nt	tg	tg	left	tg	ht	0.78388	wh/0966.bmp	0.05	17.4
371.84	1.05136	6	90	per	lib	mod	low	mod	nt	tg	nt	tg	left	tg	fa	0.65136	nh/0180_nh.bmp	0	17.4
376.16	1.23381	6	91	per	lib	mod	low	mod	tg	tg	tg	nt	right	tg	ht	0.83381	wh/0837.bmp	0.05	17.45
379.04	1.4589	6	92	per	lib	mod	low	mod	nt	tg	nt	tg	right	nt	cr	1.0589	nh/0907_nh.bmp	0.05	17.5
381.92	1.5149	6	93	per	lib	mod	low	mod	nt	nt	nt	nt	left	nt	cr	1.1149	nh/0860_nh.bmp	0.05	17.55
385.52	1.26784	6	94	per	lib	mod	low	mod	nt	tg	nt	nt	left	nt	cr	0.86784	nh/0749_nh.bmp	0.05	17.6
389.84	1.03204	6	95	per	lib	mod	low	mod	tg	nt	tg	nt	right	tg	ht	0.63204	wh/0787.bmp	0.05	17.65
392.72	1.2668	6	96	per	lib	mod	low	mod	nt	tg	nt	tg	left	tg	fa	0.8668	nh/0545_nh.bmp	0	17.65
395.28	3.6	6	n/a	per	lib	mod	n/a	n/a	feedback	n/a	n/a	n/a	n/a	n/a	n/a	n/a	n/a	n/a	n/a
399.6	7.2	7	n/a	mem	con	low	n/a	n/a	instructions	n/a	n/a	n/a	n/a	n/a	n/a	n/a	n/a	n/a	n/a
408.56	1.15293	7	97	mem	con	low	low	low	nt	nt	tg	nt	left	nt	cr	0.75293	wh/0528.bmp	0.05	17.7
412.16	1.04874	7	98	mem	con	low	low	low	tg	tg	tg	nt	left	nt	ms	0.64874	wh/0842.bmp	0	17.7
415.04	1.14287	7	99	mem	con	low	low	low	tg	tg	tg	nt	right	tg	ht	0.74287	wh/0360.bmp	0.05	17.75
418.64	0.87653	7	100	mem	con	low	low	low	tg	tg	nt	nt	left	nt	ms	0.47653	nh/0677_nh.bmp	0	17.75
421.52	0.98645	7	101	mem	con	low	low	low	nt	nt	nt	nt	left	nt	cr	0.58645	nh/1007_nh.bmp	0.05	17.8
425.84	2.56	7	102	mem	con	low	low	low	nt	nt	tg	nt	n/a	err	n/a	n/a	wh/0215.bmp	0	17.8
430.16	0.93129	7	103	mem	con	low	low	low	nt	nt	nt	nt	left	nt	cr	0.53129	nh/0999_nh.bmp	0.05	17.85
434.48	1.7939	7	104	mem	con	low	low	low	nt	nt	tg	tg	left	tg	fa	1.3939	wh/0148.bmp	-0.1	17.75
437.36	1.17087	7	105	mem	con	low	low	low	nt	nt	nt	tg	right	nt	cr	0.77087	nh/0112_nh.bmp	0.05	17.8
441.68	1.25475	7	106	mem	con	low	low	low	tg	tg	tg	tg	right	nt	ms	0.85475	wh/0676.bmp	0	17.8
446	1.6219	7	107	mem	con	low	low	low	tg	tg	nt	tg	left	tg	ht	1.2219	nh/0138_nh.bmp	0.05	17.85
449.6	1.32592	7	108	mem	con	low	low	low	nt	nt	tg	nt	left	nt	cr	0.92592	wh/0488.bmp	0.05	17.9
453.2	1.23588	7	109	mem	con	low	low	low	nt	nt	nt	tg	right	nt	cr	0.83588	nh/0431_nh.bmp	0.05	17.95
457.52	1.4479	7	110	mem	con	low	low	low	tg	tg	tg	nt	right	tg	ht	1.0479	wh/0859.bmp	0.05	18
460.4	1.6728	7	111	mem	con	low	low	low	tg	tg	nt	nt	right	tg	ht	1.2728	nh/0175_nh.bmp	0.05	18.05
463.28	1.03065	7	112	mem	con	low	low	low	tg	tg	nt	nt	left	nt	ms	0.63065	nh/0825_nh.bmp	0	18.05
466.56	3.6	7	n/a	mem	con	low	n/a	n/a	feedback	n/a	n/a	n/a	n/a	n/a	n/a	n/a	n/a	n/a	n/a
471.6	7.2	8	n/a	mem	lib	mod	n/a	n/a	instructions	n/a	n/a	n/a	n/a	n/a	n/a	n/a	n/a	n/a	n/a
480.56	1.20591	8	113	mem	lib	mod	mod	low	nt	nt	tg	tg	left	tg	fa	0.80591	wh/0568.bmp	0	18.05
483.44	1.0927	8	114	mem	lib	mod	mod	low	tg	tg	nt	nt	right	tg	ht	0.6927	nh/0018_nh.bmp	0.05	18.1
486.32	0.99038	8	115	mem	lib	mod	mod	low	nt	nt	tg	nt	right	tg	fa	0.59038	wh/0503.bmp	0	18.1
489.92	1.18191	8	116	mem	lib	mod	mod	low	tg	tg	nt	tg	left	tg	ht	0.78191	nh/0023_nh.bmp	0.05	18.15
493.52	1.34384	8	117	mem	lib	mod	mod	low	nt	nt	nt	nt	left	nt	cr	0.94384	nh/0619_nh.bmp	0.05	18.2
497.84	1.5029	8	118	mem	lib	mod	mod	low	nt	nt	nt	tg	left	tg	fa	1.1029	nh/0489_nh.bmp	0	18.2
502.16	1.33087	8	119	mem	lib	mod	mod	low	tg	tg	tg	nt	right	tg	ht	0.93087	wh/0892.bmp	0.05	18.25
505.04	1.4279	8	120	mem	lib	mod	mod	low	nt	nt	nt	tg	right	nt	cr	1.0279	nh/0893_nh.bmp	0.05	18.3
509.36	1.29192	8	121	mem	lib	mod	mod	low	tg	tg	nt	tg	left	tg	ht	0.89192	nh/0618_nh.bmp	0.05	18.35
512.24	1.5219	8	122	mem	lib	mod	mod	low	nt	nt	tg	tg	left	tg	fa	1.1219	wh/0508.bmp	0	18.35
515.12	1.22489	8	123	mem	lib	mod	mod	low	tg	tg	tg	nt	right	tg	ht	0.82489	wh/1019.bmp	0.05	18.4
518.72	1.1809	8	124	mem	lib	mod	mod	low	tg	tg	tg	tg	left	tg	ht	0.7809	wh/0170.bmp	0.05	18.45
521.6	2.1089	8	125	mem	lib	mod	mod	low	nt	nt	tg	tg	left	tg	fa	1.7089	wh/0577.bmp	0	18.45
524.48	1.19695	8	126	mem	lib	mod	mod	low	tg	tg	tg	tg	left	tg	ht	0.79695	wh/0986.bmp	0.05	18.5
528.8	1.4229	8	127	mem	lib	mod	mod	low	nt	nt	nt	tg	left	tg	fa	1.0229	nh/0029_nh.bmp	0	18.5
531.68	1.6069	8	128	mem	lib	mod	mod	low	tg	tg	nt	nt	right	tg	ht	1.2069	nh/0678_nh.bmp	0.05	18.55
535.68	3.6	8	n/a	mem	lib	mod	n/a	n/a	feedback	n/a	n/a	n/a	n/a	n/a	n/a	n/a	n/a	n/a	n/a
