onset	duration	trial	pres	ts_blk	ts_trl	task	crit	disc	mem_disc	per_disc	per_type	accuracy	stim_file
7.20	0.72	1	1	7	41	mem	lib	mod	mod	mod	nt	ht	nh/0827_nh.bmp
7.92	0.72	2	1	6	119	mem	lib	mod	mod	low	tg	ht	wh/0892.bmp
8.64	0.72	3	1	5	101	per	lib	low	mod	low	nt	cr	nh/0574_nh.bmp
9.36	0.72	4	1	6	36	mem	con	mod	mod	mod	tg	ms	wh/0549.bmp
10.08	0.72	5	1	5	51	per	con	mod	mod	mod	nt	cr	nh/0495_nh.bmp
10.80	0.72	6	2	6	36	mem	con	mod	mod	mod	tg	ms	wh/0549.bmp
11.52	0.72	7	1	8	24	mem	lib	mod	mod	low	tg	ms	wh/0108.bmp
12.24	0.72	8	1	6	126	mem	lib	mod	mod	low	tg	ht	wh/0986.bmp
12.96	0.72	9	1	8	112	per	con	mod	mod	mod	tg	ht	wh/0546.bmp
13.68	0.72	10	2	6	119	mem	lib	mod	mod	low	tg	ht	wh/0892.bmp
14.40	0.72	11	1	8	95	per	lib	mod	mod	mod	tg	ht	wh/0385.bmp
15.12	0.72	12	1	8	101	per	con	mod	mod	mod	tg	ms	wh/0958.bmp
15.84	0.72	13	2	5	51	per	con	mod	mod	mod	nt	cr	nh/0495_nh.bmp
16.56	0.72	14	1	7	116	per	con	low	low	low	nt	fa	nh/0043_nh.bmp
17.28	0.72	15	1	8	77	mem	con	low	low	mod	nt	ht	nh/0046_nh.bmp
18.00	0.72	16	1	7	109	mem	con	mod	mod	mod	nt	ms	nh/0852_nh.bmp
18.72	0.72	17	1	5	124	mem	lib	mod	mod	mod	nt	ht	nh/0717_nh.bmp
19.44	0.72	18	1	5	99	per	lib	low	mod	low	nt	fa	nh/1004_nh.bmp
20.16	0.72	19	1	8	91	per	lib	mod	mod	mod	nt	fa	nh/0835_nh.bmp
20.88	0.72	20	1	7	99	mem	con	mod	mod	mod	tg	ht	wh/0544.bmp
21.60	0.72	21	1	5	97	per	lib	low	mod	low	nt	fa	nh/0241_nh.bmp
22.32	0.72	22	1	6	45	mem	con	mod	mod	mod	nt	ht	nh/0366_nh.bmp
23.04	0.72	23	1	5	42	per	lib	mod	mod	mod	nt	fa	nh/0623_nh.bmp
23.76	0.72	24	1	5	63	per	con	mod	mod	mod	tg	ht	wh/0602.bmp
24.48	0.72	25	1	7	108	mem	con	mod	mod	mod	nt	ms	nh/0832_nh.bmp
25.20	0.72	26	1	5	46	per	lib	mod	mod	mod	tg	ht	wh/0408.bmp
25.92	0.72	27	3	6	36	mem	con	mod	mod	mod	tg	ms	wh/0549.bmp
26.64	0.72	28	1	8	80	mem	con	low	low	mod	nt	ms	nh/0921_nh.bmp
27.36	0.72	29	1	5	17	mem	con	mod	mod	low	tg	ht	wh/0012.bmp
28.08	0.72	30	2	6	45	mem	con	mod	mod	mod	nt	ht	nh/0366_nh.bmp
28.80	0.72	31	1	8	121	per	lib	low	mod	low	tg	ms	wh/0401.bmp
29.52	0.72	32	2	8	121	per	lib	low	mod	low	tg	ms	wh/0401.bmp
30.24	0.72	33	1	8	85	per	lib	mod	mod	mod	tg	ht	wh/0778.bmp
30.96	0.72	34	1	7	107	mem	con	mod	mod	mod	tg	ht	wh/0763.bmp
31.68	0.72	35	1	8	106	per	con	mod	mod	mod	nt	cr	nh/0441_nh.bmp
32.40	0.72	36	1	5	93	mem	con	low	low	mod	nt	ms	nh/0537_nh.bmp
33.12	0.72	37	1	5	6	per	con	low	mod	low	nt	fa	nh/0374_nh.bmp
33.84	0.72	38	1	5	26	mem	con	mod	mod	low	tg	ht	wh/0780.bmp
34.56	0.72	39	1	8	127	per	lib	low	mod	low	tg	ht	wh/0756.bmp
35.28	0.72	40	1	5	59	per	con	mod	mod	mod	nt	cr	nh/0851_nh.bmp
36.00	0.72	41	1	6	35	mem	con	mod	mod	mod	nt	ms	nh/0179_nh.bmp
36.72	0.72	42	1	8	84	per	lib	mod	mod	mod	tg	ht	wh/0735.bmp
37.44	0.72	43	1	8	42	mem	lib	low	low	low	nt	ht	nh/0198_nh.bmp
38.16	0.72	44	1	7	91	mem	lib	low	low	mod	nt	ht	nh/0688_nh.bmp
38.88	0.72	45	1	8	62	mem	con	mod	mod	low	nt	ht	nh/0939_nh.bmp
39.60	0.72	46	1	5	32	mem	con	mod	mod	low	nt	ms	nh/0064_nh.bmp
40.32	0.72	47	1	6	91	per	lib	mod	low	mod	tg	ht	wh/0837.bmp
41.04	0.72	48	1	6	123	mem	lib	mod	mod	low	tg	ht	wh/1019.bmp
41.76	0.72	49	1	8	25	mem	lib	mod	mod	low	nt	ht	nh/0247_nh.bmp
42.48	0.72	50	2	8	101	per	con	mod	mod	mod	tg	ms	wh/0958.bmp
43.20	0.72	51	1	5	13	per	con	low	mod	low	tg	ms	wh/0403.bmp
43.92	0.72	52	1	5	7	per	con	low	mod	low	nt	fa	nh/0193_nh.bmp
44.64	0.72	53	1	5	55	per	con	mod	mod	mod	tg	ms	wh/0269.bmp
45.36	0.72	54	2	7	109	mem	con	mod	mod	mod	nt	ms	nh/0852_nh.bmp
46.08	0.72	55	2	6	126	mem	lib	mod	mod	low	tg	ht	wh/0986.bmp
46.80	0.72	56	1	7	66	mem	con	low	low	low	nt	ms	nh/0506_nh.bmp
47.52	0.72	57	1	5	106	per	lib	low	mod	low	tg	ms	wh/0073.bmp
48.24	0.72	58	1	5	1	per	con	low	mod	low	nt	cr	nh/0165_nh.bmp
48.96	0.72	59	1	7	114	per	con	low	low	low	nt	cr	nh/0657_nh.bmp
49.68	0.72	60	1	5	109	per	lib	low	mod	low	tg	ms	wh/0820.bmp
50.40	0.72	61	1	8	21	mem	lib	mod	mod	low	nt	ht	nh/0164_nh.bmp
51.12	0.72	62	2	6	123	mem	lib	mod	mod	low	tg	ht	wh/1019.bmp
51.84	0.72	63	1	8	97	per	con	mod	mod	mod	nt	cr	nh/0060_nh.bmp
52.56	0.72	64	2	5	7	per	con	low	mod	low	nt	fa	nh/0193_nh.bmp
53.28	0.72	65	1	6	40	mem	con	mod	mod	mod	tg	ms	wh/0822.bmp
54.00	0.72	66	1	7	46	mem	lib	mod	mod	mod	tg	ht	wh/0821.bmp
54.72	0.72	67	2	5	17	mem	con	mod	mod	low	tg	ht	wh/0012.bmp
55.44	0.72	68	1	8	41	mem	lib	low	low	low	tg	ht	wh/0516.bmp
56.16	0.72	69	1	5	9	per	con	low	mod	low	tg	ms	wh/0746.bmp
56.88	0.72	70	1	7	123	per	con	low	low	low	tg	ms	wh/0518.bmp
57.60	0.72	71	1	8	89	per	lib	mod	mod	mod	nt	cr	nh/0564_nh.bmp
58.32	0.72	72	1	5	22	mem	con	mod	mod	low	nt	ht	nh/1014_nh.bmp
59.04	0.72	73	1	5	75	mem	lib	low	low	mod	tg	ms	wh/0418.bmp
59.76	0.72	74	1	7	69	mem	con	low	low	low	nt	ht	nh/0089_nh.bmp
60.48	0.72	75	3	5	7	per	con	low	mod	low	nt	fa	nh/0193_nh.bmp
61.20	0.72	76	1	6	61	mem	lib	low	low	low	tg	ht	wh/0240.bmp
61.92	0.72	77	1	7	94	mem	lib	low	low	mod	tg	ht	wh/1016.bmp
62.64	0.72	78	2	5	97	per	lib	low	mod	low	nt	fa	nh/0241_nh.bmp
63.36	0.72	79	1	5	19	mem	con	mod	mod	low	tg	ht	wh/0254.bmp
64.08	0.72	80	1	8	96	per	lib	mod	mod	mod	tg	ht	wh/0399.bmp
64.80	0.72	81	1	5	121	mem	lib	mod	mod	mod	tg	ht	wh/0556.bmp
65.52	0.72	82	1	5	48	per	lib	mod	mod	mod	nt	cr	nh/0995_nh.bmp
66.24	0.72	83	3	6	123	mem	lib	mod	mod	low	tg	ht	wh/1019.bmp
66.96	0.72	84	1	8	12	per	con	low	mod	low	tg	ht	wh/0883.bmp
67.68	0.72	85	1	7	48	mem	lib	mod	mod	mod	tg	ht	wh/0275.bmp
68.40	0.72	86	1	8	31	mem	lib	mod	mod	low	nt	ht	nh/0647_nh.bmp
69.12	0.72	87	2	6	35	mem	con	mod	mod	mod	nt	ms	nh/0179_nh.bmp
69.84	0.72	88	1	5	58	per	con	mod	mod	mod	tg	ht	wh/0609.bmp
70.56	0.72	89	1	6	128	mem	lib	mod	mod	low	nt	ht	nh/0678_nh.bmp
71.28	0.72	90	1	6	116	mem	lib	mod	mod	low	nt	ht	nh/0023_nh.bmp
72.00	0.72	91	1	8	32	mem	lib	mod	mod	low	tg	ht	wh/0262.bmp
72.72	0.72	92	2	5	63	per	con	mod	mod	mod	tg	ht	wh/0602.bmp
73.44	0.72	93	1	6	114	mem	lib	mod	mod	low	nt	ht	nh/0018_nh.bmp
74.16	0.72	94	1	7	35	mem	lib	mod	mod	mod	tg	ht	wh/0638.bmp
74.88	0.72	95	2	5	19	mem	con	mod	mod	low	tg	ht	wh/0254.bmp
75.60	0.72	96	2	5	121	mem	lib	mod	mod	mod	tg	ht	wh/0556.bmp
76.32	0.72	97	1	8	10	per	con	low	mod	low	tg	ms	wh/0297.bmp
77.04	0.72	98	2	5	42	per	lib	mod	mod	mod	nt	fa	nh/0623_nh.bmp
77.76	0.72	99	2	8	21	mem	lib	mod	mod	low	nt	ht	nh/0164_nh.bmp
78.48	0.72	100	1	5	122	mem	lib	mod	mod	mod	nt	ht	nh/0020_nh.bmp
79.20	0.72	101	2	8	12	per	con	low	mod	low	tg	ht	wh/0883.bmp
79.92	0.72	102	1	8	45	mem	lib	low	low	low	tg	ht	wh/0990.bmp
80.64	0.72	103	1	5	36	per	lib	mod	mod	mod	tg	ht	wh/0797.bmp
81.36	0.72	104	1	7	102	mem	con	mod	mod	mod	tg	ht	wh/0552.bmp
82.08	0.72	105	1	6	96	per	lib	mod	low	mod	nt	fa	nh/0545_nh.bmp
82.80	0.72	106	2	8	96	per	lib	mod	mod	mod	tg	ht	wh/0399.bmp
83.52	0.72	107	1	8	6	per	con	low	mod	low	nt	cr	nh/0612_nh.bmp
84.24	0.72	108	1	8	55	mem	con	mod	mod	low	nt	ms	nh/0848_nh.bmp
84.96	0.72	109	1	5	38	per	lib	mod	mod	mod	tg	ms	wh/0833.bmp
85.68	0.72	110	1	6	69	per	con	mod	low	mod	nt	cr	nh/0668_nh.bmp
86.40	0.72	111	3	6	35	mem	con	mod	mod	mod	nt	ms	nh/0179_nh.bmp
87.12	0.72	112	1	5	94	mem	con	low	low	mod	nt	ms	nh/0625_nh.bmp
87.84	0.72	113	1	7	38	mem	lib	mod	mod	mod	nt	ht	nh/0915_nh.bmp
88.56	0.72	114	1	7	44	mem	lib	mod	mod	mod	tg	ht	wh/0666.bmp
89.28	0.72	115	1	8	27	mem	lib	mod	mod	low	tg	ht	wh/0249.bmp
90.00	0.72	116	1	8	105	per	con	mod	mod	mod	tg	ht	wh/0686.bmp
90.72	0.72	117	2	8	91	per	lib	mod	mod	mod	nt	fa	nh/0835_nh.bmp
91.44	0.72	118	2	7	38	mem	lib	mod	mod	mod	nt	ht	nh/0915_nh.bmp
92.16	0.72	119	1	5	27	mem	con	mod	mod	low	nt	ht	nh/0111_nh.bmp
92.88	0.72	120	1	7	80	mem	con	low	low	low	tg	ms	wh/0058.bmp
93.60	0.72	121	1	8	125	per	lib	low	mod	low	nt	cr	nh/0814_nh.bmp
94.32	0.72	122	1	8	11	per	con	low	mod	low	nt	cr	nh/0024_nh.bmp
95.04	0.72	123	1	5	127	mem	lib	mod	mod	mod	tg	ht	wh/0694.bmp
95.76	0.72	124	3	8	121	per	lib	low	mod	low	tg	ms	wh/0401.bmp
96.48	0.72	125	2	5	124	mem	lib	mod	mod	mod	nt	ht	nh/0717_nh.bmp
97.20	0.72	126	1	7	98	mem	con	mod	mod	mod	tg	ms	wh/0978.bmp
97.92	0.72	127	2	5	48	per	lib	mod	mod	mod	nt	cr	nh/0995_nh.bmp
98.64	0.72	128	1	8	114	per	lib	low	mod	low	tg	ht	wh/0453.bmp
99.36	0.72	129	2	8	27	mem	lib	mod	mod	low	tg	ht	wh/0249.bmp
100.08	0.72	130	1	5	128	mem	lib	mod	mod	mod	tg	ht	wh/0603.bmp
100.80	0.72	131	1	5	28	mem	con	mod	mod	low	nt	ht	nh/0640_nh.bmp
101.52	0.72	132	2	5	26	mem	con	mod	mod	low	tg	ht	wh/0780.bmp
102.24	0.72	133	4	8	121	per	lib	low	mod	low	tg	ms	wh/0401.bmp
102.96	0.72	134	3	8	27	mem	lib	mod	mod	low	tg	ht	wh/0249.bmp
103.68	0.72	135	1	6	13	per	con	low	low	low	tg	ms	wh/0244.bmp
104.40	0.72	136	2	8	127	per	lib	low	mod	low	tg	ht	wh/0756.bmp
105.12	0.72	137	3	8	96	per	lib	mod	mod	mod	tg	ht	wh/0399.bmp
105.84	0.72	138	1	5	53	per	con	mod	mod	mod	nt	cr	nh/0715_nh.bmp
106.56	0.72	139	1	8	3	per	con	low	mod	low	tg	ms	wh/0253.bmp
107.28	0.72	140	2	8	95	per	lib	mod	mod	mod	tg	ht	wh/0385.bmp
108.00	0.72	141	1	6	121	mem	lib	mod	mod	low	nt	ht	nh/0618_nh.bmp
108.72	0.72	142	1	5	73	mem	lib	low	low	mod	nt	ht	nh/0953_nh.bmp
109.44	0.72	143	2	5	127	mem	lib	mod	mod	mod	tg	ht	wh/0694.bmp
110.16	0.72	144	2	8	85	per	lib	mod	mod	mod	tg	ht	wh/0778.bmp
110.88	0.72	145	2	7	48	mem	lib	mod	mod	mod	tg	ht	wh/0275.bmp
111.60	0.72	146	2	8	62	mem	con	mod	mod	low	nt	ht	nh/0939_nh.bmp
112.32	0.72	147	2	6	40	mem	con	mod	mod	mod	tg	ms	wh/0822.bmp
113.04	0.72	148	1	5	47	per	lib	mod	mod	mod	nt	cr	nh/0560_nh.bmp
113.76	0.72	149	1	8	108	per	con	mod	mod	mod	nt	cr	nh/0888_nh.bmp
114.48	0.72	150	3	8	21	mem	lib	mod	mod	low	nt	ht	nh/0164_nh.bmp
115.20	0.72	151	2	8	106	per	con	mod	mod	mod	nt	cr	nh/0441_nh.bmp
115.92	0.72	152	1	8	66	mem	con	low	low	mod	tg	ms	wh/0349.bmp
116.64	0.72	153	1	5	110	per	lib	low	mod	low	tg	ht	wh/0491.bmp
117.36	0.72	154	2	5	28	mem	con	mod	mod	low	nt	ht	nh/0640_nh.bmp
118.08	0.72	155	2	8	55	mem	con	mod	mod	low	nt	ms	nh/0848_nh.bmp
118.80	0.72	156	1	8	28	mem	lib	mod	mod	low	nt	ht	nh/0734_nh.bmp
119.52	0.72	157	1	5	2	per	con	low	mod	low	nt	cr	nh/0578_nh.bmp
120.24	0.72	158	2	5	9	per	con	low	mod	low	tg	ms	wh/0746.bmp
120.96	0.72	159	1	6	10	per	con	low	low	low	nt	cr	nh/0880_nh.bmp
121.68	0.72	160	3	7	38	mem	lib	mod	mod	mod	nt	ht	nh/0915_nh.bmp
122.40	0.72	161	1	7	55	per	lib	low	low	low	nt	cr	nh/0285_nh.bmp
123.12	0.72	162	1	8	61	mem	con	mod	mod	low	nt	ht	nh/0255_nh.bmp
123.84	0.72	163	1	7	47	mem	lib	mod	mod	mod	nt	ht	nh/0590_nh.bmp
124.56	0.72	164	3	5	48	per	lib	mod	mod	mod	nt	cr	nh/0995_nh.bmp
125.28	0.72	165	2	8	112	per	con	mod	mod	mod	tg	ht	wh/0546.bmp
126.00	0.72	166	1	8	2	per	con	low	mod	low	tg	ms	wh/0157.bmp
126.72	0.72	167	3	5	42	per	lib	mod	mod	mod	nt	fa	nh/0623_nh.bmp
127.44	0.72	168	1	5	56	per	con	mod	mod	mod	nt	cr	nh/0764_nh.bmp
128.16	0.72	169	2	7	107	mem	con	mod	mod	mod	tg	ht	wh/0763.bmp
128.88	0.72	170	3	5	63	per	con	mod	mod	mod	tg	ht	wh/0602.bmp
129.60	0.72	171	3	5	97	per	lib	low	mod	low	nt	fa	nh/0241_nh.bmp
130.32	0.72	172	3	5	9	per	con	low	mod	low	tg	ms	wh/0746.bmp
131.04	0.72	173	1	5	103	per	lib	low	mod	low	nt	fa	nh/0875_nh.bmp
131.76	0.72	174	1	6	62	mem	lib	low	low	low	tg	ht	wh/0181.bmp
132.48	0.72	175	2	8	125	per	lib	low	mod	low	nt	cr	nh/0814_nh.bmp
133.20	0.72	176	4	8	96	per	lib	mod	mod	mod	tg	ht	wh/0399.bmp
133.92	0.72	177	2	7	46	mem	lib	mod	mod	mod	tg	ht	wh/0821.bmp
134.64	0.72	178	2	8	6	per	con	low	mod	low	nt	cr	nh/0612_nh.bmp
135.36	0.72	179	2	6	116	mem	lib	mod	mod	low	nt	ht	nh/0023_nh.bmp
136.08	0.72	180	2	5	22	mem	con	mod	mod	low	nt	ht	nh/1014_nh.bmp
136.80	0.72	181	1	8	34	mem	lib	low	low	low	tg	ms	wh/0610.bmp
137.52	0.72	182	2	5	1	per	con	low	mod	low	nt	cr	nh/0165_nh.bmp
138.24	0.72	183	1	8	64	mem	con	mod	mod	low	tg	ms	wh/0388.bmp
138.96	0.72	184	1	8	13	per	con	low	mod	low	nt	cr	nh/0519_nh.bmp
139.68	0.72	185	1	6	41	mem	con	mod	mod	mod	tg	ms	wh/0436.bmp
140.40	0.72	186	3	5	121	mem	lib	mod	mod	mod	tg	ht	wh/0556.bmp
141.12	0.72	187	1	5	88	mem	con	low	low	mod	tg	ms	wh/0334.bmp
141.84	0.72	188	3	8	125	per	lib	low	mod	low	nt	cr	nh/0814_nh.bmp
142.56	0.72	189	1	5	10	per	con	low	mod	low	tg	ms	wh/0793.bmp
143.28	0.72	190	1	5	123	mem	lib	mod	mod	mod	nt	ht	nh/0952_nh.bmp
144.00	0.72	191	2	8	105	per	con	mod	mod	mod	tg	ht	wh/0686.bmp
144.72	0.72	192	3	7	46	mem	lib	mod	mod	mod	tg	ht	wh/0821.bmp
145.44	0.72	193	1	7	9	per	con	mod	low	mod	nt	cr	nh/0924_nh.bmp
146.16	0.72	194	1	8	15	per	con	low	mod	low	nt	cr	nh/0863_nh.bmp
146.88	0.72	195	1	8	53	mem	con	mod	mod	low	nt	ms	nh/0042_nh.bmp
147.60	0.72	196	2	7	41	mem	lib	mod	mod	mod	nt	ht	nh/0827_nh.bmp
148.32	0.72	197	2	5	123	mem	lib	mod	mod	mod	nt	ht	nh/0952_nh.bmp
149.04	0.72	198	2	8	2	per	con	low	mod	low	tg	ms	wh/0157.bmp
149.76	0.72	199	1	8	60	mem	con	mod	mod	low	tg	ms	wh/0172.bmp
150.48	0.72	200	1	5	33	per	lib	mod	mod	mod	nt	fa	nh/0337_nh.bmp
151.20	0.72	201	1	7	57	per	lib	low	low	low	nt	fa	nh/0865_nh.bmp
151.92	0.72	202	3	8	112	per	con	mod	mod	mod	tg	ht	wh/0546.bmp
152.64	0.72	203	2	7	44	mem	lib	mod	mod	mod	tg	ht	wh/0666.bmp
153.36	0.72	204	1	8	86	per	lib	mod	mod	mod	nt	fa	nh/0318_nh.bmp
154.08	0.72	205	3	6	126	mem	lib	mod	mod	low	tg	ht	wh/0986.bmp
154.80	0.72	206	1	7	119	per	con	low	low	low	tg	ms	wh/0636.bmp
155.52	0.72	207	2	5	27	mem	con	mod	mod	low	nt	ht	nh/0111_nh.bmp
156.24	0.72	208	3	6	119	mem	lib	mod	mod	low	tg	ht	wh/0892.bmp
156.96	0.72	209	2	8	97	per	con	mod	mod	mod	nt	cr	nh/0060_nh.bmp
157.68	0.72	210	1	8	103	per	con	mod	mod	mod	tg	ms	wh/0420.bmp
158.40	0.72	211	3	8	95	per	lib	mod	mod	mod	tg	ht	wh/0385.bmp
159.12	0.72	212	1	8	118	per	lib	low	mod	low	nt	fa	nh/0114_nh.bmp
159.84	0.72	213	2	8	84	per	lib	mod	mod	mod	tg	ht	wh/0735.bmp
160.56	0.72	214	2	8	25	mem	lib	mod	mod	low	nt	ht	nh/0247_nh.bmp
161.28	0.72	215	1	8	116	per	lib	low	mod	low	tg	ht	wh/0394.bmp
162.00	0.72	216	3	5	19	mem	con	mod	mod	low	tg	ht	wh/0254.bmp
162.72	0.72	217	3	8	55	mem	con	mod	mod	low	nt	ms	nh/0848_nh.bmp
163.44	0.72	218	3	5	51	per	con	mod	mod	mod	nt	cr	nh/0495_nh.bmp
164.16	0.72	219	1	8	51	mem	con	mod	mod	low	tg	ms	wh/0450.bmp
164.88	0.72	220	2	8	15	per	con	low	mod	low	nt	cr	nh/0863_nh.bmp
165.60	0.72	221	2	8	116	per	lib	low	mod	low	tg	ht	wh/0394.bmp
166.32	0.72	222	1	8	75	mem	con	low	low	mod	tg	ht	wh/0611.bmp
167.04	0.72	223	1	5	54	per	con	mod	mod	mod	tg	ht	wh/0871.bmp
167.76	0.72	224	3	7	109	mem	con	mod	mod	mod	nt	ms	nh/0852_nh.bmp
168.48	0.72	225	2	8	51	mem	con	mod	mod	low	tg	ms	wh/0450.bmp
169.20	0.72	226	2	5	110	per	lib	low	mod	low	tg	ht	wh/0491.bmp
169.92	0.72	227	2	8	108	per	con	mod	mod	mod	nt	cr	nh/0888_nh.bmp
170.64	0.72	228	3	8	15	per	con	low	mod	low	nt	cr	nh/0863_nh.bmp
171.36	0.72	229	2	5	54	per	con	mod	mod	mod	tg	ht	wh/0871.bmp
172.08	0.72	230	3	7	44	mem	lib	mod	mod	mod	tg	ht	wh/0666.bmp
172.80	0.72	231	2	8	31	mem	lib	mod	mod	low	nt	ht	nh/0647_nh.bmp
173.52	0.72	232	1	5	84	mem	con	low	low	mod	tg	ms	wh/0475.bmp
174.24	0.72	233	4	8	125	per	lib	low	mod	low	nt	cr	nh/0814_nh.bmp
174.96	0.72	234	2	5	38	per	lib	mod	mod	mod	tg	ms	wh/0833.bmp
175.68	0.72	235	2	8	103	per	con	mod	mod	mod	tg	ms	wh/0420.bmp
176.40	0.72	236	3	8	108	per	con	mod	mod	mod	nt	cr	nh/0888_nh.bmp
177.12	0.72	237	2	5	53	per	con	mod	mod	mod	nt	cr	nh/0715_nh.bmp
177.84	0.72	238	1	8	58	mem	con	mod	mod	low	tg	ms	wh/0521.bmp
178.56	0.72	239	3	7	48	mem	lib	mod	mod	mod	tg	ht	wh/0275.bmp
179.28	0.72	240	1	5	35	per	lib	mod	mod	mod	tg	ht	wh/0599.bmp
180.00	0.72	241	2	5	106	per	lib	low	mod	low	tg	ms	wh/0073.bmp
180.72	0.72	242	3	5	53	per	con	mod	mod	mod	nt	cr	nh/0715_nh.bmp
181.44	0.72	243	1	6	43	mem	con	mod	mod	mod	tg	ms	wh/0971.bmp
182.16	0.72	244	4	8	27	mem	lib	mod	mod	low	tg	ht	wh/0249.bmp
182.88	0.72	245	2	6	128	mem	lib	mod	mod	low	nt	ht	nh/0678_nh.bmp
183.60	0.72	246	4	7	48	mem	lib	mod	mod	mod	tg	ht	wh/0275.bmp
184.32	0.72	247	3	8	116	per	lib	low	mod	low	tg	ht	wh/0394.bmp
185.04	0.72	248	4	5	121	mem	lib	mod	mod	mod	tg	ht	wh/0556.bmp
185.76	0.72	249	3	8	127	per	lib	low	mod	low	tg	ht	wh/0756.bmp
186.48	0.72	250	5	8	121	per	lib	low	mod	low	tg	ms	wh/0401.bmp
187.20	0.72	251	1	8	17	mem	lib	mod	mod	low	tg	ht	wh/0143.bmp
187.92	0.72	252	2	5	99	per	lib	low	mod	low	nt	fa	nh/1004_nh.bmp
188.64	0.72	253	2	5	55	per	con	mod	mod	mod	tg	ms	wh/0269.bmp
189.36	0.72	254	3	5	38	per	lib	mod	mod	mod	tg	ms	wh/0833.bmp
190.08	0.72	255	2	8	58	mem	con	mod	mod	low	tg	ms	wh/0521.bmp
190.80	0.72	256	4	5	42	per	lib	mod	mod	mod	nt	fa	nh/0623_nh.bmp
191.52	0.72	257	2	7	47	mem	lib	mod	mod	mod	nt	ht	nh/0590_nh.bmp
192.24	0.72	258	1	5	126	mem	lib	mod	mod	mod	tg	ht	wh/0239.bmp
192.96	0.72	259	3	7	47	mem	lib	mod	mod	mod	nt	ht	nh/0590_nh.bmp
193.68	0.72	260	4	5	53	per	con	mod	mod	mod	nt	cr	nh/0715_nh.bmp
194.40	0.72	261	2	8	28	mem	lib	mod	mod	low	nt	ht	nh/0734_nh.bmp
195.12	0.72	262	2	8	60	mem	con	mod	mod	low	tg	ms	wh/0172.bmp
195.84	0.72	263	2	5	47	per	lib	mod	mod	mod	nt	cr	nh/0560_nh.bmp
196.56	0.72	264	3	8	105	per	con	mod	mod	mod	tg	ht	wh/0686.bmp
197.28	0.72	265	1	6	25	per	lib	low	low	low	nt	fa	nh/0566_nh.bmp
198.00	0.72	266	2	7	98	mem	con	mod	mod	mod	tg	ms	wh/0978.bmp
198.72	0.72	267	1	6	124	mem	lib	mod	mod	low	tg	ht	wh/0170.bmp
199.44	0.72	268	4	5	9	per	con	low	mod	low	tg	ms	wh/0746.bmp
200.16	0.72	269	3	8	31	mem	lib	mod	mod	low	nt	ht	nh/0647_nh.bmp
200.88	0.72	270	3	8	62	mem	con	mod	mod	low	nt	ht	nh/0939_nh.bmp
201.60	0.72	271	2	8	3	per	con	low	mod	low	tg	ms	wh/0253.bmp
202.32	0.72	272	2	5	35	per	lib	mod	mod	mod	tg	ht	wh/0599.bmp
203.04	0.72	273	2	8	61	mem	con	mod	mod	low	nt	ht	nh/0255_nh.bmp
203.76	0.72	274	4	5	51	per	con	mod	mod	mod	nt	cr	nh/0495_nh.bmp
204.48	0.72	275	2	7	108	mem	con	mod	mod	mod	nt	ms	nh/0832_nh.bmp
205.20	0.72	276	2	7	99	mem	con	mod	mod	mod	tg	ht	wh/0544.bmp
205.92	0.72	277	2	6	114	mem	lib	mod	mod	low	nt	ht	nh/0018_nh.bmp
206.64	0.72	278	4	7	47	mem	lib	mod	mod	mod	nt	ht	nh/0590_nh.bmp
207.36	0.72	279	4	6	119	mem	lib	mod	mod	low	tg	ht	wh/0892.bmp
208.08	0.72	280	3	5	28	mem	con	mod	mod	low	nt	ht	nh/0640_nh.bmp
208.80	0.72	281	2	5	13	per	con	low	mod	low	tg	ms	wh/0403.bmp
209.52	0.72	282	3	5	35	per	lib	mod	mod	mod	tg	ht	wh/0599.bmp
210.24	0.72	283	1	6	57	mem	lib	low	low	low	nt	ht	nh/0639_nh.bmp
210.96	0.72	284	5	5	51	per	con	mod	mod	mod	nt	cr	nh/0495_nh.bmp
211.68	0.72	285	3	5	127	mem	lib	mod	mod	mod	tg	ht	wh/0694.bmp
212.40	0.72	286	1	5	104	per	lib	low	mod	low	tg	ht	wh/0582.bmp
213.12	0.72	287	2	8	53	mem	con	mod	mod	low	nt	ms	nh/0042_nh.bmp
213.84	0.72	288	2	5	109	per	lib	low	mod	low	tg	ms	wh/0820.bmp
214.56	0.72	289	2	8	32	mem	lib	mod	mod	low	tg	ht	wh/0262.bmp
215.28	0.72	290	1	6	55	mem	lib	low	low	low	tg	ht	wh/0224.bmp
216.00	0.72	291	4	7	46	mem	lib	mod	mod	mod	tg	ht	wh/0821.bmp
216.72	0.72	292	3	5	22	mem	con	mod	mod	low	nt	ht	nh/1014_nh.bmp
217.44	0.72	293	1	5	5	per	con	low	mod	low	tg	ms	wh/0118.bmp
218.16	0.72	294	2	8	64	mem	con	mod	mod	low	tg	ms	wh/0388.bmp
218.88	0.72	295	5	5	9	per	con	low	mod	low	tg	ms	wh/0746.bmp
219.60	0.72	296	1	6	67	per	con	mod	low	mod	nt	cr	nh/0840_nh.bmp
220.32	0.72	297	1	7	26	per	lib	mod	low	mod	nt	cr	nh/0395_nh.bmp
221.04	0.72	298	3	8	51	mem	con	mod	mod	low	tg	ms	wh/0450.bmp
221.76	0.72	299	4	8	95	per	lib	mod	mod	mod	tg	ht	wh/0385.bmp
222.48	0.72	300	1	6	8	per	con	low	low	low	nt	cr	nh/0570_nh.bmp
223.20	0.72	301	3	5	1	per	con	low	mod	low	nt	cr	nh/0165_nh.bmp
223.92	0.72	302	2	5	33	per	lib	mod	mod	mod	nt	fa	nh/0337_nh.bmp
224.64	0.72	303	1	6	17	per	lib	low	low	low	nt	fa	nh/0268_nh.bmp
225.36	0.72	304	1	5	72	mem	lib	low	low	mod	tg	ht	wh/0093.bmp
226.08	0.72	305	1	5	113	mem	lib	mod	mod	mod	nt	ht	nh/0378_nh.bmp
226.80	0.72	306	1	5	65	mem	lib	low	low	mod	nt	ht	nh/0869_nh.bmp
227.52	0.72	307	3	8	84	per	lib	mod	mod	mod	tg	ht	wh/0735.bmp
228.24	0.72	308	1	7	30	per	lib	mod	low	mod	tg	ht	wh/0867.bmp
228.96	0.72	309	4	8	105	per	con	mod	mod	mod	tg	ht	wh/0686.bmp
229.68	0.72	310	2	5	2	per	con	low	mod	low	nt	cr	nh/0578_nh.bmp
230.40	0.72	311	2	6	41	mem	con	mod	mod	mod	tg	ms	wh/0436.bmp
231.12	0.72	312	2	7	102	mem	con	mod	mod	mod	tg	ht	wh/0552.bmp
231.84	0.72	313	1	7	95	mem	lib	low	low	mod	tg	ht	wh/0751.bmp
232.56	0.72	314	3	8	106	per	con	mod	mod	mod	nt	cr	nh/0441_nh.bmp
233.28	0.72	315	4	5	48	per	lib	mod	mod	mod	nt	cr	nh/0995_nh.bmp
234.00	0.72	316	1	8	102	per	con	mod	mod	mod	nt	cr	nh/0294_nh.bmp
234.72	0.72	317	2	8	11	per	con	low	mod	low	nt	cr	nh/0024_nh.bmp
235.44	0.72	318	2	5	6	per	con	low	mod	low	nt	fa	nh/0374_nh.bmp
236.16	0.72	319	3	5	110	per	lib	low	mod	low	tg	ht	wh/0491.bmp
236.88	0.72	320	3	8	12	per	con	low	mod	low	tg	ht	wh/0883.bmp
237.60	0.72	321	3	8	58	mem	con	mod	mod	low	tg	ms	wh/0521.bmp
238.32	0.72	322	2	5	104	per	lib	low	mod	low	tg	ht	wh/0582.bmp
239.04	0.72	323	1	6	56	mem	lib	low	low	low	nt	ht	nh/0144_nh.bmp
239.76	0.72	324	1	7	100	mem	con	mod	mod	mod	nt	ht	nh/0300_nh.bmp
240.48	0.72	325	3	6	40	mem	con	mod	mod	mod	tg	ms	wh/0822.bmp
241.20	0.72	326	3	8	32	mem	lib	mod	mod	low	tg	ht	wh/0262.bmp
241.92	0.72	327	3	8	25	mem	lib	mod	mod	low	nt	ht	nh/0247_nh.bmp
242.64	0.72	328	1	7	50	per	lib	low	low	low	nt	fa	nh/0136_nh.bmp
243.36	0.72	329	2	5	122	mem	lib	mod	mod	mod	nt	ht	nh/0020_nh.bmp
244.08	0.72	330	2	6	124	mem	lib	mod	mod	low	tg	ht	wh/0170.bmp
244.80	0.72	331	1	6	82	per	lib	mod	low	mod	tg	ht	wh/0948.bmp
245.52	0.72	332	2	5	5	per	con	low	mod	low	tg	ms	wh/0118.bmp
246.24	0.72	333	4	6	126	mem	lib	mod	mod	low	tg	ht	wh/0986.bmp
246.96	0.72	334	2	8	24	mem	lib	mod	mod	low	tg	ms	wh/0108.bmp
247.68	0.72	335	3	5	27	mem	con	mod	mod	low	nt	ht	nh/0111_nh.bmp
248.40	0.72	336	2	5	56	per	con	mod	mod	mod	nt	cr	nh/0764_nh.bmp
249.12	0.72	337	1	7	49	per	lib	low	low	low	tg	ht	wh/0154.bmp
249.84	0.72	338	2	5	58	per	con	mod	mod	mod	tg	ht	wh/0609.bmp
250.56	0.72	339	2	6	43	mem	con	mod	mod	mod	tg	ms	wh/0971.bmp
251.28	0.72	340	1	7	92	mem	lib	low	low	mod	nt	ht	nh/0373_nh.bmp
252.00	0.72	341	2	5	59	per	con	mod	mod	mod	nt	cr	nh/0851_nh.bmp
252.72	0.72	342	4	8	15	per	con	low	mod	low	nt	cr	nh/0863_nh.bmp
253.44	0.72	343	3	5	33	per	lib	mod	mod	mod	nt	fa	nh/0337_nh.bmp
254.16	0.72	344	4	5	127	mem	lib	mod	mod	mod	tg	ht	wh/0694.bmp
254.88	0.72	345	3	8	101	per	con	mod	mod	mod	tg	ms	wh/0958.bmp
255.60	0.72	346	3	7	102	mem	con	mod	mod	mod	tg	ht	wh/0552.bmp
256.32	0.72	347	2	5	101	per	lib	low	mod	low	nt	cr	nh/0574_nh.bmp
257.04	0.72	348	3	6	43	mem	con	mod	mod	mod	tg	ms	wh/0971.bmp
257.76	0.72	349	1	6	99	mem	con	low	low	low	tg	ht	wh/0360.bmp
258.48	0.72	350	3	8	103	per	con	mod	mod	mod	tg	ms	wh/0420.bmp
259.20	0.72	351	2	8	114	per	lib	low	mod	low	tg	ht	wh/0453.bmp
259.92	0.72	352	1	7	17	per	lib	mod	low	mod	tg	ht	wh/0221.bmp
260.64	0.72	353	1	7	93	mem	lib	low	low	mod	nt	ht	nh/0980_nh.bmp
261.36	0.72	354	5	8	125	per	lib	low	mod	low	nt	cr	nh/0814_nh.bmp
262.08	0.72	355	4	8	25	mem	lib	mod	mod	low	nt	ht	nh/0247_nh.bmp
262.80	0.72	356	1	8	128	per	lib	low	mod	low	nt	fa	nh/0176_nh.bmp
263.52	0.72	357	3	7	98	mem	con	mod	mod	mod	tg	ms	wh/0978.bmp
264.24	0.72	358	4	7	44	mem	lib	mod	mod	mod	tg	ht	wh/0666.bmp
264.96	0.72	359	2	5	46	per	lib	mod	mod	mod	tg	ht	wh/0408.bmp
265.68	0.72	360	3	5	104	per	lib	low	mod	low	tg	ht	wh/0582.bmp
266.40	0.72	361	3	7	41	mem	lib	mod	mod	mod	nt	ht	nh/0827_nh.bmp
267.12	0.72	362	3	5	101	per	lib	low	mod	low	nt	cr	nh/0574_nh.bmp
267.84	0.72	363	3	6	41	mem	con	mod	mod	mod	tg	ms	wh/0436.bmp
268.56	0.72	364	1	7	12	per	con	mod	low	mod	tg	ms	wh/0342.bmp
269.28	0.72	365	4	8	32	mem	lib	mod	mod	low	tg	ht	wh/0262.bmp
270.00	0.72	366	4	8	112	per	con	mod	mod	mod	tg	ht	wh/0546.bmp
270.72	0.72	367	3	8	2	per	con	low	mod	low	tg	ms	wh/0157.bmp
271.44	0.72	368	3	5	46	per	lib	mod	mod	mod	tg	ht	wh/0408.bmp
272.16	0.72	369	1	8	67	mem	con	low	low	mod	nt	ms	nh/0347_nh.bmp
272.88	0.72	370	4	7	98	mem	con	mod	mod	mod	tg	ms	wh/0978.bmp
273.60	0.72	371	1	8	113	per	lib	low	mod	low	nt	fa	nh/0248_nh.bmp
274.32	0.72	372	6	8	121	per	lib	low	mod	low	tg	ms	wh/0401.bmp
275.04	0.72	373	2	8	17	mem	lib	mod	mod	low	tg	ht	wh/0143.bmp
275.76	0.72	374	1	6	27	per	lib	low	low	low	nt	fa	nh/0135_nh.bmp
276.48	0.72	375	2	5	126	mem	lib	mod	mod	mod	tg	ht	wh/0239.bmp
277.20	0.72	376	3	8	24	mem	lib	mod	mod	low	tg	ms	wh/0108.bmp
277.92	0.72	377	1	7	45	mem	lib	mod	mod	mod	nt	ht	nh/0968_nh.bmp
278.64	0.72	378	3	5	99	per	lib	low	mod	low	nt	fa	nh/1004_nh.bmp
279.36	0.72	379	2	5	36	per	lib	mod	mod	mod	tg	ht	wh/0797.bmp
280.08	0.72	380	2	5	128	mem	lib	mod	mod	mod	tg	ht	wh/0603.bmp
280.80	0.72	381	4	5	46	per	lib	mod	mod	mod	tg	ht	wh/0408.bmp
281.52	0.72	382	5	8	27	mem	lib	mod	mod	low	tg	ht	wh/0249.bmp
282.24	0.72	383	1	7	16	per	con	mod	low	mod	nt	cr	nh/0732_nh.bmp
282.96	0.72	384	1	6	74	per	con	mod	low	mod	tg	ht	wh/0532.bmp
283.68	0.72	385	5	8	15	per	con	low	mod	low	nt	cr	nh/0863_nh.bmp
284.40	0.72	386	4	8	24	mem	lib	mod	mod	low	tg	ms	wh/0108.bmp
285.12	0.72	387	5	7	48	mem	lib	mod	mod	mod	tg	ht	wh/0275.bmp
285.84	0.72	388	3	8	11	per	con	low	mod	low	nt	cr	nh/0024_nh.bmp
286.56	0.72	389	4	5	7	per	con	low	mod	low	nt	fa	nh/0193_nh.bmp
287.28	0.72	390	1	6	110	mem	con	low	low	low	tg	ht	wh/0859.bmp
288.00	0.72	391	4	5	27	mem	con	mod	mod	low	nt	ht	nh/0111_nh.bmp
288.72	0.72	392	4	8	58	mem	con	mod	mod	low	tg	ms	wh/0521.bmp
289.44	0.72	393	3	5	106	per	lib	low	mod	low	tg	ms	wh/0073.bmp
290.16	0.72	394	3	5	17	mem	con	mod	mod	low	tg	ht	wh/0012.bmp
290.88	0.72	395	2	7	45	mem	lib	mod	mod	mod	nt	ht	nh/0968_nh.bmp
291.60	0.72	396	4	5	35	per	lib	mod	mod	mod	tg	ht	wh/0599.bmp
292.32	0.72	397	3	5	5	per	con	low	mod	low	tg	ms	wh/0118.bmp
293.04	0.72	398	4	5	38	per	lib	mod	mod	mod	tg	ms	wh/0833.bmp
293.76	0.72	399	2	7	100	mem	con	mod	mod	mod	nt	ht	nh/0300_nh.bmp
294.48	0.72	400	5	5	42	per	lib	mod	mod	mod	nt	fa	nh/0623_nh.bmp
295.20	0.72	401	3	5	58	per	con	mod	mod	mod	tg	ht	wh/0609.bmp
295.92	0.72	402	4	5	99	per	lib	low	mod	low	nt	fa	nh/1004_nh.bmp
296.64	0.72	403	4	8	2	per	con	low	mod	low	tg	ms	wh/0157.bmp
297.36	0.72	404	4	5	110	per	lib	low	mod	low	tg	ht	wh/0491.bmp
298.08	0.72	405	4	8	127	per	lib	low	mod	low	tg	ht	wh/0756.bmp
298.80	0.72	406	3	5	123	mem	lib	mod	mod	mod	nt	ht	nh/0952_nh.bmp
299.52	0.72	407	4	8	21	mem	lib	mod	mod	low	nt	ht	nh/0164_nh.bmp
300.24	0.72	408	3	8	6	per	con	low	mod	low	nt	cr	nh/0612_nh.bmp
300.96	0.72	409	1	7	73	mem	con	low	low	low	tg	ms	wh/1011.bmp
301.68	0.72	410	1	8	47	mem	lib	low	low	low	nt	ht	nh/0022_nh.bmp
302.40	0.72	411	5	7	98	mem	con	mod	mod	mod	tg	ms	wh/0978.bmp
303.12	0.72	412	6	5	9	per	con	low	mod	low	tg	ms	wh/0746.bmp
303.84	0.72	413	4	5	123	mem	lib	mod	mod	mod	nt	ht	nh/0952_nh.bmp
304.56	0.72	414	4	5	97	per	lib	low	mod	low	nt	fa	nh/0241_nh.bmp
305.28	0.72	415	3	8	61	mem	con	mod	mod	low	nt	ht	nh/0255_nh.bmp
306.00	0.72	416	1	5	24	mem	con	mod	mod	low	tg	ms	wh/0139.bmp
306.72	0.72	417	2	8	128	per	lib	low	mod	low	nt	fa	nh/0176_nh.bmp
307.44	0.72	418	1	6	42	mem	con	mod	mod	mod	nt	ht	nh/0629_nh.bmp
308.16	0.72	419	3	8	17	mem	lib	mod	mod	low	tg	ht	wh/0143.bmp
308.88	0.72	420	3	5	126	mem	lib	mod	mod	mod	tg	ht	wh/0239.bmp
309.60	0.72	421	2	5	113	mem	lib	mod	mod	mod	nt	ht	nh/0378_nh.bmp
310.32	0.72	422	3	8	53	mem	con	mod	mod	low	nt	ms	nh/0042_nh.bmp
311.04	0.72	423	3	8	3	per	con	low	mod	low	tg	ms	wh/0253.bmp
311.76	0.72	424	2	8	102	per	con	mod	mod	mod	nt	cr	nh/0294_nh.bmp
312.48	0.72	425	3	5	122	mem	lib	mod	mod	mod	nt	ht	nh/0020_nh.bmp
313.20	0.72	426	3	7	99	mem	con	mod	mod	mod	tg	ht	wh/0544.bmp
313.92	0.72	427	3	5	2	per	con	low	mod	low	nt	cr	nh/0578_nh.bmp
314.64	0.72	428	5	5	53	per	con	mod	mod	mod	nt	cr	nh/0715_nh.bmp
315.36	0.72	429	2	8	10	per	con	low	mod	low	tg	ms	wh/0297.bmp
316.08	0.72	430	1	7	20	per	lib	mod	low	mod	tg	ht	wh/0305.bmp
316.80	0.72	431	1	7	111	mem	con	mod	mod	mod	nt	ms	nh/0586_nh.bmp
317.52	0.72	432	1	6	92	per	lib	mod	low	mod	nt	cr	nh/0907_nh.bmp
318.24	0.72	433	2	8	13	per	con	low	mod	low	nt	cr	nh/0519_nh.bmp
318.96	0.72	434	3	6	114	mem	lib	mod	mod	low	nt	ht	nh/0018_nh.bmp
319.68	0.72	435	4	8	61	mem	con	mod	mod	low	nt	ht	nh/0255_nh.bmp
320.40	0.72	436	1	6	98	mem	con	low	low	low	tg	ms	wh/0842.bmp
321.12	0.72	437	4	8	62	mem	con	mod	mod	low	nt	ht	nh/0939_nh.bmp
321.84	0.72	438	2	8	118	per	lib	low	mod	low	nt	fa	nh/0114_nh.bmp
322.56	0.72	439	3	8	97	per	con	mod	mod	mod	nt	cr	nh/0060_nh.bmp
323.28	0.72	440	3	7	108	mem	con	mod	mod	mod	nt	ms	nh/0832_nh.bmp
324.00	0.72	441	5	5	99	per	lib	low	mod	low	nt	fa	nh/1004_nh.bmp
324.72	0.72	442	3	8	128	per	lib	low	mod	low	nt	fa	nh/0176_nh.bmp
325.44	0.72	443	2	7	35	mem	lib	mod	mod	mod	tg	ht	wh/0638.bmp
326.16	0.72	444	4	5	22	mem	con	mod	mod	low	nt	ht	nh/1014_nh.bmp
326.88	0.72	445	4	7	41	mem	lib	mod	mod	mod	nt	ht	nh/0827_nh.bmp
327.60	0.72	446	3	8	28	mem	lib	mod	mod	low	nt	ht	nh/0734_nh.bmp
328.32	0.72	447	4	6	36	mem	con	mod	mod	mod	tg	ms	wh/0549.bmp
329.04	0.72	448	4	5	19	mem	con	mod	mod	low	tg	ht	wh/0254.bmp
329.76	0.72	449	4	5	17	mem	con	mod	mod	low	tg	ht	wh/0012.bmp
330.48	0.72	450	4	8	116	per	lib	low	mod	low	tg	ht	wh/0394.bmp
331.20	0.72	451	3	5	47	per	lib	mod	mod	mod	nt	cr	nh/0560_nh.bmp
331.92	0.72	452	4	7	109	mem	con	mod	mod	mod	nt	ms	nh/0852_nh.bmp
332.64	0.72	453	1	6	94	per	lib	mod	low	mod	nt	cr	nh/0749_nh.bmp
333.36	0.72	454	4	6	114	mem	lib	mod	mod	low	nt	ht	nh/0018_nh.bmp
334.08	0.72	455	3	8	60	mem	con	mod	mod	low	tg	ms	wh/0172.bmp
334.80	0.72	456	5	8	61	mem	con	mod	mod	low	nt	ht	nh/0255_nh.bmp
335.52	0.72	457	3	8	91	per	lib	mod	mod	mod	nt	fa	nh/0835_nh.bmp
336.24	0.72	458	3	5	26	mem	con	mod	mod	low	tg	ht	wh/0780.bmp
336.96	0.72	459	3	8	118	per	lib	low	mod	low	nt	fa	nh/0114_nh.bmp
337.68	0.72	460	4	5	1	per	con	low	mod	low	nt	cr	nh/0165_nh.bmp
338.40	0.72	461	5	5	17	mem	con	mod	mod	low	tg	ht	wh/0012.bmp
339.12	0.72	462	3	8	85	per	lib	mod	mod	mod	tg	ht	wh/0778.bmp
339.84	0.72	463	4	8	12	per	con	low	mod	low	tg	ht	wh/0883.bmp
340.56	0.72	464	4	8	17	mem	lib	mod	mod	low	tg	ht	wh/0143.bmp
341.28	0.72	465	5	8	95	per	lib	mod	mod	mod	tg	ht	wh/0385.bmp
342.00	0.72	466	2	5	32	mem	con	mod	mod	low	nt	ms	nh/0064_nh.bmp
342.72	0.72	467	5	8	12	per	con	low	mod	low	tg	ht	wh/0883.bmp
343.44	0.72	468	5	7	41	mem	lib	mod	mod	mod	nt	ht	nh/0827_nh.bmp
344.16	0.72	469	3	5	124	mem	lib	mod	mod	mod	nt	ht	nh/0717_nh.bmp
344.88	0.72	470	6	8	15	per	con	low	mod	low	nt	cr	nh/0863_nh.bmp
345.60	0.72	471	4	8	51	mem	con	mod	mod	low	tg	ms	wh/0450.bmp
346.32	0.72	472	5	8	17	mem	lib	mod	mod	low	tg	ht	wh/0143.bmp
347.04	0.72	473	2	7	111	mem	con	mod	mod	mod	nt	ms	nh/0586_nh.bmp
347.76	0.72	474	4	5	47	per	lib	mod	mod	mod	nt	cr	nh/0560_nh.bmp
348.48	0.72	475	4	7	38	mem	lib	mod	mod	mod	nt	ht	nh/0915_nh.bmp
349.20	0.72	476	5	5	27	mem	con	mod	mod	low	nt	ht	nh/0111_nh.bmp
349.92	0.72	477	1	6	29	per	lib	low	low	low	tg	ht	wh/0767.bmp
350.64	0.72	478	4	5	122	mem	lib	mod	mod	mod	nt	ht	nh/0020_nh.bmp
351.36	0.72	479	1	7	51	per	lib	low	low	low	nt	fa	nh/0468_nh.bmp
352.08	0.72	480	5	6	126	mem	lib	mod	mod	low	tg	ht	wh/0986.bmp
352.80	0.72	481	5	5	19	mem	con	mod	mod	low	tg	ht	wh/0254.bmp
353.52	0.72	482	4	8	55	mem	con	mod	mod	low	nt	ms	nh/0848_nh.bmp
354.24	0.72	483	3	7	107	mem	con	mod	mod	mod	tg	ht	wh/0763.bmp
354.96	0.72	484	3	5	56	per	con	mod	mod	mod	nt	cr	nh/0764_nh.bmp
355.68	0.72	485	1	5	89	mem	con	low	low	mod	nt	ms	nh/0234_nh.bmp
356.40	0.72	486	4	5	63	per	con	mod	mod	mod	tg	ht	wh/0602.bmp
357.12	0.72	487	5	5	35	per	lib	mod	mod	mod	tg	ht	wh/0599.bmp
357.84	0.72	488	5	6	114	mem	lib	mod	mod	low	nt	ht	nh/0018_nh.bmp
358.56	0.72	489	5	8	32	mem	lib	mod	mod	low	tg	ht	wh/0262.bmp
359.28	0.72	490	4	8	118	per	lib	low	mod	low	nt	fa	nh/0114_nh.bmp
360.00	0.72	491	5	7	109	mem	con	mod	mod	mod	nt	ms	nh/0852_nh.bmp
360.72	0.72	492	4	7	102	mem	con	mod	mod	mod	tg	ht	wh/0552.bmp
361.44	0.72	493	5	6	36	mem	con	mod	mod	mod	tg	ms	wh/0549.bmp
362.16	0.72	494	5	8	127	per	lib	low	mod	low	tg	ht	wh/0756.bmp
362.88	0.72	495	5	7	47	mem	lib	mod	mod	mod	nt	ht	nh/0590_nh.bmp
363.60	0.72	496	3	8	10	per	con	low	mod	low	tg	ms	wh/0297.bmp
364.32	0.72	497	5	5	121	mem	lib	mod	mod	mod	tg	ht	wh/0556.bmp
365.04	0.72	498	4	5	33	per	lib	mod	mod	mod	nt	fa	nh/0337_nh.bmp
365.76	0.72	499	3	5	36	per	lib	mod	mod	mod	tg	ht	wh/0797.bmp
366.48	0.72	500	5	7	46	mem	lib	mod	mod	mod	tg	ht	wh/0821.bmp
367.20	0.72	501	2	8	86	per	lib	mod	mod	mod	nt	fa	nh/0318_nh.bmp
367.92	0.72	502	5	5	122	mem	lib	mod	mod	mod	nt	ht	nh/0020_nh.bmp
368.64	0.72	503	4	6	123	mem	lib	mod	mod	low	tg	ht	wh/1019.bmp
369.36	0.72	504	1	7	18	per	lib	mod	low	mod	nt	fa	nh/0982_nh.bmp
370.08	0.72	505	4	5	104	per	lib	low	mod	low	tg	ht	wh/0582.bmp
370.80	0.72	506	5	5	38	per	lib	mod	mod	mod	tg	ms	wh/0833.bmp
371.52	0.72	507	2	5	24	mem	con	mod	mod	low	tg	ms	wh/0139.bmp
372.24	0.72	508	1	7	63	per	lib	low	low	low	tg	ht	wh/0482.bmp
372.96	0.72	509	3	8	64	mem	con	mod	mod	low	tg	ms	wh/0388.bmp
373.68	0.72	510	4	8	101	per	con	mod	mod	mod	tg	ms	wh/0958.bmp
374.40	0.72	511	4	5	58	per	con	mod	mod	mod	tg	ht	wh/0609.bmp
375.12	0.72	512	1	6	58	mem	lib	low	low	low	nt	ht	nh/0219_nh.bmp
375.84	0.72	513	3	5	59	per	con	mod	mod	mod	nt	cr	nh/0851_nh.bmp
376.56	0.72	514	1	7	31	per	lib	mod	low	mod	nt	fa	nh/0381_nh.bmp
377.28	0.72	515	3	7	100	mem	con	mod	mod	mod	nt	ht	nh/0300_nh.bmp
378.00	0.72	516	4	8	60	mem	con	mod	mod	low	tg	ms	wh/0172.bmp
378.72	0.72	517	3	5	32	mem	con	mod	mod	low	nt	ms	nh/0064_nh.bmp
379.44	0.72	518	5	7	102	mem	con	mod	mod	mod	tg	ht	wh/0552.bmp
380.16	0.72	519	4	5	28	mem	con	mod	mod	low	nt	ht	nh/0640_nh.bmp
380.88	0.72	520	3	5	13	per	con	low	mod	low	tg	ms	wh/0403.bmp
381.60	0.72	521	3	7	111	mem	con	mod	mod	mod	nt	ms	nh/0586_nh.bmp
382.32	0.72	522	6	7	98	mem	con	mod	mod	mod	tg	ms	wh/0978.bmp
383.04	0.72	523	4	8	64	mem	con	mod	mod	low	tg	ms	wh/0388.bmp
383.76	0.72	524	6	7	46	mem	lib	mod	mod	mod	tg	ht	wh/0821.bmp
384.48	0.72	525	4	8	11	per	con	low	mod	low	nt	cr	nh/0024_nh.bmp
385.20	0.72	526	1	8	81	per	lib	mod	mod	mod	nt	fa	nh/0086_nh.bmp
385.92	0.72	527	2	6	121	mem	lib	mod	mod	low	nt	ht	nh/0618_nh.bmp
386.64	0.72	528	4	8	106	per	con	mod	mod	mod	nt	cr	nh/0441_nh.bmp
387.36	0.72	529	3	8	102	per	con	mod	mod	mod	nt	cr	nh/0294_nh.bmp
388.08	0.72	530	2	8	113	per	lib	low	mod	low	nt	fa	nh/0248_nh.bmp
388.80	0.72	531	4	5	124	mem	lib	mod	mod	mod	nt	ht	nh/0717_nh.bmp
389.52	0.72	532	5	5	123	mem	lib	mod	mod	mod	nt	ht	nh/0952_nh.bmp
390.24	0.72	533	1	6	83	per	lib	mod	low	mod	tg	ms	wh/0207.bmp
390.96	0.72	534	5	8	101	per	con	mod	mod	mod	tg	ms	wh/0958.bmp
391.68	0.72	535	3	5	6	per	con	low	mod	low	nt	fa	nh/0374_nh.bmp
392.40	0.72	536	3	5	109	per	lib	low	mod	low	tg	ms	wh/0820.bmp
393.12	0.72	537	4	7	100	mem	con	mod	mod	mod	nt	ht	nh/0300_nh.bmp
393.84	0.72	538	3	8	114	per	lib	low	mod	low	tg	ht	wh/0453.bmp
394.56	0.72	539	1	7	60	per	lib	low	low	low	tg	ht	wh/0258.bmp
395.28	0.72	540	3	5	128	mem	lib	mod	mod	mod	tg	ht	wh/0603.bmp
396.00	0.72	541	5	8	105	per	con	mod	mod	mod	tg	ht	wh/0686.bmp
396.72	0.72	542	1	6	111	mem	con	low	low	low	nt	ht	nh/0175_nh.bmp
397.44	0.72	543	1	6	33	mem	con	mod	mod	mod	nt	ms	nh/0056_nh.bmp
398.16	0.72	544	2	8	89	per	lib	mod	mod	mod	nt	cr	nh/0564_nh.bmp
398.88	0.72	545	4	5	26	mem	con	mod	mod	low	tg	ht	wh/0780.bmp
399.60	0.72	546	5	8	58	mem	con	mod	mod	low	tg	ms	wh/0521.bmp
400.32	0.72	547	5	8	24	mem	lib	mod	mod	low	tg	ms	wh/0108.bmp
401.04	0.72	548	5	6	119	mem	lib	mod	mod	low	tg	ht	wh/0892.bmp
401.76	0.72	549	5	7	44	mem	lib	mod	mod	mod	tg	ht	wh/0666.bmp
402.48	0.72	550	4	5	109	per	lib	low	mod	low	tg	ms	wh/0820.bmp
403.20	0.72	551	4	5	126	mem	lib	mod	mod	mod	tg	ht	wh/0239.bmp
403.92	0.72	552	4	6	43	mem	con	mod	mod	mod	tg	ms	wh/0971.bmp
404.64	0.72	553	5	8	64	mem	con	mod	mod	low	tg	ms	wh/0388.bmp
405.36	0.72	554	5	5	33	per	lib	mod	mod	mod	nt	fa	nh/0337_nh.bmp
406.08	0.72	555	4	6	40	mem	con	mod	mod	mod	tg	ms	wh/0822.bmp
406.80	0.72	556	4	5	13	per	con	low	mod	low	tg	ms	wh/0403.bmp
407.52	0.72	557	1	5	80	mem	lib	low	low	mod	tg	ht	wh/0951.bmp
408.24	0.72	558	4	5	36	per	lib	mod	mod	mod	tg	ht	wh/0797.bmp
408.96	0.72	559	5	8	106	per	con	mod	mod	mod	nt	cr	nh/0441_nh.bmp
409.68	0.72	560	4	8	84	per	lib	mod	mod	mod	tg	ht	wh/0735.bmp
410.40	0.72	561	2	5	10	per	con	low	mod	low	tg	ms	wh/0793.bmp
411.12	0.72	562	5	8	25	mem	lib	mod	mod	low	nt	ht	nh/0247_nh.bmp
411.84	0.72	563	1	7	118	per	con	low	low	low	nt	cr	nh/0994_nh.bmp
412.56	0.72	564	5	5	126	mem	lib	mod	mod	mod	tg	ht	wh/0239.bmp
413.28	0.72	565	1	5	67	mem	lib	low	low	mod	tg	ht	wh/0188.bmp
414.00	0.72	566	3	7	45	mem	lib	mod	mod	mod	nt	ht	nh/0968_nh.bmp
414.72	0.72	567	1	6	71	per	con	mod	low	mod	tg	ht	wh/0559.bmp
415.44	0.72	568	5	5	58	per	con	mod	mod	mod	tg	ht	wh/0609.bmp
416.16	0.72	569	6	7	44	mem	lib	mod	mod	mod	tg	ht	wh/0666.bmp
416.88	0.72	570	3	8	89	per	lib	mod	mod	mod	nt	cr	nh/0564_nh.bmp
417.60	0.72	571	5	6	123	mem	lib	mod	mod	low	tg	ht	wh/1019.bmp
418.32	0.72	572	4	5	5	per	con	low	mod	low	tg	ms	wh/0118.bmp
419.04	0.72	573	4	7	111	mem	con	mod	mod	mod	nt	ms	nh/0586_nh.bmp
419.76	0.72	574	4	8	97	per	con	mod	mod	mod	nt	cr	nh/0060_nh.bmp
420.48	0.72	575	6	8	32	mem	lib	mod	mod	low	tg	ht	wh/0262.bmp
421.20	0.72	576	2	6	33	mem	con	mod	mod	mod	nt	ms	nh/0056_nh.bmp
421.92	0.72	577	3	7	35	mem	lib	mod	mod	mod	tg	ht	wh/0638.bmp
422.64	0.72	578	6	5	27	mem	con	mod	mod	low	nt	ht	nh/0111_nh.bmp
423.36	0.72	579	1	7	127	per	con	low	low	low	tg	ms	wh/0106.bmp
424.08	0.72	580	5	5	5	per	con	low	mod	low	tg	ms	wh/0118.bmp
424.80	0.72	581	5	8	116	per	lib	low	mod	low	tg	ht	wh/0394.bmp
425.52	0.72	582	2	6	42	mem	con	mod	mod	mod	nt	ht	nh/0629_nh.bmp
426.24	0.72	583	1	8	76	mem	con	low	low	mod	nt	ms	nh/0227_nh.bmp
426.96	0.72	584	4	5	101	per	lib	low	mod	low	nt	cr	nh/0574_nh.bmp
427.68	0.72	585	4	8	114	per	lib	low	mod	low	tg	ht	wh/0453.bmp
428.40	0.72	586	3	6	124	mem	lib	mod	mod	low	tg	ht	wh/0170.bmp
429.12	0.72	587	4	6	124	mem	lib	mod	mod	low	tg	ht	wh/0170.bmp
429.84	0.72	588	3	5	24	mem	con	mod	mod	low	tg	ms	wh/0139.bmp
430.56	0.72	589	4	8	28	mem	lib	mod	mod	low	nt	ht	nh/0734_nh.bmp
431.28	0.72	590	3	8	86	per	lib	mod	mod	mod	nt	fa	nh/0318_nh.bmp
432.00	0.72	591	4	5	24	mem	con	mod	mod	low	tg	ms	wh/0139.bmp
432.72	0.72	592	5	8	62	mem	con	mod	mod	low	nt	ht	nh/0939_nh.bmp
433.44	0.72	593	5	5	101	per	lib	low	mod	low	nt	cr	nh/0574_nh.bmp
434.16	0.72	594	4	7	108	mem	con	mod	mod	mod	nt	ms	nh/0832_nh.bmp
434.88	0.72	595	4	8	85	per	lib	mod	mod	mod	tg	ht	wh/0778.bmp
435.60	0.72	596	3	6	33	mem	con	mod	mod	mod	nt	ms	nh/0056_nh.bmp
436.32	0.72	597	6	5	101	per	lib	low	mod	low	nt	cr	nh/0574_nh.bmp
437.04	0.72	598	1	7	79	mem	con	low	low	low	nt	ms	nh/0587_nh.bmp
437.76	0.72	599	1	7	7	per	con	mod	low	mod	nt	cr	nh/0663_nh.bmp
438.48	0.72	600	6	8	106	per	con	mod	mod	mod	nt	cr	nh/0441_nh.bmp
439.20	0.72	601	3	5	55	per	con	mod	mod	mod	tg	ms	wh/0269.bmp
439.92	0.72	602	4	6	35	mem	con	mod	mod	mod	nt	ms	nh/0179_nh.bmp
440.64	0.72	603	4	8	89	per	lib	mod	mod	mod	nt	cr	nh/0564_nh.bmp
441.36	0.72	604	4	5	6	per	con	low	mod	low	nt	fa	nh/0374_nh.bmp
442.08	0.72	605	5	5	110	per	lib	low	mod	low	tg	ht	wh/0491.bmp
442.80	0.72	606	3	5	10	per	con	low	mod	low	tg	ms	wh/0793.bmp
443.52	0.72	607	4	7	99	mem	con	mod	mod	mod	tg	ht	wh/0544.bmp
444.24	0.72	608	4	8	86	per	lib	mod	mod	mod	nt	fa	nh/0318_nh.bmp
444.96	0.72	609	4	5	59	per	con	mod	mod	mod	nt	cr	nh/0851_nh.bmp
445.68	0.72	610	4	5	56	per	con	mod	mod	mod	nt	cr	nh/0764_nh.bmp
446.40	0.72	611	5	8	84	per	lib	mod	mod	mod	tg	ht	wh/0735.bmp
447.12	0.72	612	5	6	43	mem	con	mod	mod	mod	tg	ms	wh/0971.bmp
447.84	0.72	613	5	7	108	mem	con	mod	mod	mod	nt	ms	nh/0832_nh.bmp
448.56	0.72	614	5	5	1	per	con	low	mod	low	nt	cr	nh/0165_nh.bmp
449.28	0.72	615	5	5	28	mem	con	mod	mod	low	nt	ht	nh/0640_nh.bmp
450.00	0.72	616	4	7	35	mem	lib	mod	mod	mod	tg	ht	wh/0638.bmp
450.72	0.72	617	3	6	128	mem	lib	mod	mod	low	nt	ht	nh/0678_nh.bmp
451.44	0.72	618	5	8	86	per	lib	mod	mod	mod	nt	fa	nh/0318_nh.bmp
452.16	0.72	619	5	5	46	per	lib	mod	mod	mod	tg	ht	wh/0408.bmp
452.88	0.72	620	6	6	43	mem	con	mod	mod	mod	tg	ms	wh/0971.bmp
453.60	0.72	621	4	8	91	per	lib	mod	mod	mod	nt	fa	nh/0835_nh.bmp
454.32	0.72	622	4	6	41	mem	con	mod	mod	mod	tg	ms	wh/0436.bmp
455.04	0.72	623	3	8	113	per	lib	low	mod	low	nt	fa	nh/0248_nh.bmp
455.76	0.72	624	5	5	63	per	con	mod	mod	mod	tg	ht	wh/0602.bmp
456.48	0.72	625	4	6	33	mem	con	mod	mod	mod	nt	ms	nh/0056_nh.bmp
457.20	0.72	626	5	8	51	mem	con	mod	mod	low	tg	ms	wh/0450.bmp
457.92	0.72	627	6	5	122	mem	lib	mod	mod	mod	nt	ht	nh/0020_nh.bmp
458.64	0.72	628	4	7	45	mem	lib	mod	mod	mod	nt	ht	nh/0968_nh.bmp
459.36	0.72	629	4	8	103	per	con	mod	mod	mod	tg	ms	wh/0420.bmp
460.08	0.72	630	2	8	81	per	lib	mod	mod	mod	nt	fa	nh/0086_nh.bmp
460.80	0.72	631	5	5	24	mem	con	mod	mod	low	tg	ms	wh/0139.bmp
461.52	0.72	632	3	8	13	per	con	low	mod	low	nt	cr	nh/0519_nh.bmp
462.24	0.72	633	5	7	38	mem	lib	mod	mod	mod	nt	ht	nh/0915_nh.bmp
462.96	0.72	634	5	5	109	per	lib	low	mod	low	tg	ms	wh/0820.bmp
463.68	0.72	635	4	8	128	per	lib	low	mod	low	nt	fa	nh/0176_nh.bmp
464.40	0.72	636	4	5	2	per	con	low	mod	low	nt	cr	nh/0578_nh.bmp
465.12	0.72	637	3	5	54	per	con	mod	mod	mod	tg	ht	wh/0871.bmp
465.84	0.72	638	5	8	21	mem	lib	mod	mod	low	nt	ht	nh/0164_nh.bmp
466.56	0.72	639	3	6	121	mem	lib	mod	mod	low	nt	ht	nh/0618_nh.bmp
467.28	0.72	640	4	8	10	per	con	low	mod	low	tg	ms	wh/0297.bmp
468.00	0.72	641	1	5	87	mem	con	low	low	mod	tg	ht	wh/0037.bmp
468.72	0.72	642	5	8	112	per	con	mod	mod	mod	tg	ht	wh/0546.bmp
469.44	0.72	643	4	8	3	per	con	low	mod	low	tg	ms	wh/0253.bmp
470.16	0.72	644	6	8	101	per	con	mod	mod	mod	tg	ms	wh/0958.bmp
470.88	0.72	645	4	8	6	per	con	low	mod	low	nt	cr	nh/0612_nh.bmp
471.60	0.72	646	3	6	116	mem	lib	mod	mod	low	nt	ht	nh/0023_nh.bmp
472.32	0.72	647	6	5	109	per	lib	low	mod	low	tg	ms	wh/0820.bmp
473.04	0.72	648	5	8	6	per	con	low	mod	low	nt	cr	nh/0612_nh.bmp
473.76	0.72	649	4	5	128	mem	lib	mod	mod	mod	tg	ht	wh/0603.bmp
474.48	0.72	650	6	8	27	mem	lib	mod	mod	low	tg	ht	wh/0249.bmp
475.20	0.72	651	4	5	55	per	con	mod	mod	mod	tg	ms	wh/0269.bmp
475.92	0.72	652	3	5	113	mem	lib	mod	mod	mod	nt	ht	nh/0378_nh.bmp
476.64	0.72	653	6	8	105	per	con	mod	mod	mod	tg	ht	wh/0686.bmp
477.36	0.72	654	4	8	113	per	lib	low	mod	low	nt	fa	nh/0248_nh.bmp
478.08	0.72	655	6	5	38	per	lib	mod	mod	mod	tg	ms	wh/0833.bmp
478.80	0.72	656	5	7	111	mem	con	mod	mod	mod	nt	ms	nh/0586_nh.bmp
479.52	0.72	657	1	7	62	per	lib	low	low	low	tg	ms	wh/1015.bmp
480.24	0.72	658	1	7	81	mem	lib	low	low	mod	tg	ms	wh/0622.bmp
480.96	0.72	659	6	5	33	per	lib	mod	mod	mod	nt	fa	nh/0337_nh.bmp
481.68	0.72	660	5	8	114	per	lib	low	mod	low	tg	ht	wh/0453.bmp
482.40	0.72	661	1	5	83	mem	con	low	low	mod	tg	ht	wh/1005.bmp
483.12	0.72	662	5	8	103	per	con	mod	mod	mod	tg	ms	wh/0420.bmp
483.84	0.72	663	4	5	32	mem	con	mod	mod	low	nt	ms	nh/0064_nh.bmp
484.56	0.72	664	5	8	60	mem	con	mod	mod	low	tg	ms	wh/0172.bmp
485.28	0.72	665	5	5	97	per	lib	low	mod	low	nt	fa	nh/0241_nh.bmp
486.00	0.72	666	1	8	79	mem	con	low	low	mod	tg	ms	wh/0186.bmp
486.72	0.72	667	2	5	103	per	lib	low	mod	low	nt	fa	nh/0875_nh.bmp
487.44	0.72	668	5	5	127	mem	lib	mod	mod	mod	tg	ht	wh/0694.bmp
488.16	0.72	669	6	8	86	per	lib	mod	mod	mod	nt	fa	nh/0318_nh.bmp
488.88	0.72	670	1	5	79	mem	lib	low	low	mod	nt	ms	nh/0779_nh.bmp
489.60	0.72	671	5	5	56	per	con	mod	mod	mod	nt	cr	nh/0764_nh.bmp
490.32	0.72	672	5	8	89	per	lib	mod	mod	mod	nt	cr	nh/0564_nh.bmp
491.04	0.72	673	4	5	113	mem	lib	mod	mod	mod	nt	ht	nh/0378_nh.bmp
491.76	0.72	674	5	8	28	mem	lib	mod	mod	low	nt	ht	nh/0734_nh.bmp
492.48	0.72	675	5	6	124	mem	lib	mod	mod	low	tg	ht	wh/0170.bmp
493.20	0.72	676	1	6	31	per	lib	low	low	low	tg	ht	wh/0376.bmp
493.92	0.72	677	4	6	128	mem	lib	mod	mod	low	nt	ht	nh/0678_nh.bmp
494.64	0.72	678	5	6	40	mem	con	mod	mod	mod	tg	ms	wh/0822.bmp
495.36	0.72	679	6	8	84	per	lib	mod	mod	mod	tg	ht	wh/0735.bmp
496.08	0.72	680	6	5	121	mem	lib	mod	mod	mod	tg	ht	wh/0556.bmp
496.80	0.72	681	4	6	121	mem	lib	mod	mod	low	nt	ht	nh/0618_nh.bmp
497.52	0.72	682	5	8	11	per	con	low	mod	low	nt	cr	nh/0024_nh.bmp
498.24	0.72	683	1	6	21	per	lib	low	low	low	nt	fa	nh/0260_nh.bmp
498.96	0.72	684	1	6	100	mem	con	low	low	low	nt	ms	nh/0677_nh.bmp
499.68	0.72	685	5	5	22	mem	con	mod	mod	low	nt	ht	nh/1014_nh.bmp
500.40	0.72	686	5	5	32	mem	con	mod	mod	low	nt	ms	nh/0064_nh.bmp
501.12	0.72	687	1	7	4	per	con	mod	low	mod	tg	ms	wh/0091.bmp
501.84	0.72	688	6	5	24	mem	con	mod	mod	low	tg	ms	wh/0139.bmp
502.56	0.72	689	3	8	81	per	lib	mod	mod	mod	nt	fa	nh/0086_nh.bmp
503.28	0.72	690	6	6	126	mem	lib	mod	mod	low	tg	ht	wh/0986.bmp
504.00	0.72	691	5	5	6	per	con	low	mod	low	nt	fa	nh/0374_nh.bmp
504.72	0.72	692	6	8	114	per	lib	low	mod	low	tg	ht	wh/0453.bmp
505.44	0.72	693	6	8	61	mem	con	mod	mod	low	nt	ht	nh/0255_nh.bmp
506.16	0.72	694	5	6	35	mem	con	mod	mod	mod	nt	ms	nh/0179_nh.bmp
506.88	0.72	695	6	5	28	mem	con	mod	mod	low	nt	ht	nh/0640_nh.bmp
507.60	0.72	696	1	6	90	per	lib	mod	low	mod	nt	fa	nh/0180_nh.bmp
508.32	0.72	697	1	5	91	mem	con	low	low	mod	nt	ht	nh/0051_nh.bmp
509.04	0.72	698	6	8	95	per	lib	mod	mod	mod	tg	ht	wh/0385.bmp
509.76	0.72	699	5	5	59	per	con	mod	mod	mod	nt	cr	nh/0851_nh.bmp
510.48	0.72	700	1	6	65	per	con	mod	low	mod	tg	ms	wh/0101.bmp
511.20	0.72	701	5	5	36	per	lib	mod	mod	mod	tg	ht	wh/0797.bmp
511.92	0.72	702	1	7	8	per	con	mod	low	mod	nt	cr	nh/0673_nh.bmp
512.64	0.72	703	1	8	72	mem	con	low	low	mod	tg	ms	wh/0839.bmp
513.36	0.72	704	6	8	64	mem	con	mod	mod	low	tg	ms	wh/0388.bmp
514.08	0.72	705	5	7	99	mem	con	mod	mod	mod	tg	ht	wh/0544.bmp
514.80	0.72	706	5	8	55	mem	con	mod	mod	low	nt	ms	nh/0848_nh.bmp
515.52	0.72	707	4	6	116	mem	lib	mod	mod	low	nt	ht	nh/0023_nh.bmp
516.24	0.72	708	4	5	54	per	con	mod	mod	mod	tg	ht	wh/0871.bmp
516.96	0.72	709	4	5	106	per	lib	low	mod	low	tg	ms	wh/0073.bmp
517.68	0.72	710	4	8	13	per	con	low	mod	low	nt	cr	nh/0519_nh.bmp
518.40	0.72	711	5	8	96	per	lib	mod	mod	mod	tg	ht	wh/0399.bmp
519.12	0.72	712	6	8	116	per	lib	low	mod	low	tg	ht	wh/0394.bmp
519.84	0.72	713	3	6	45	mem	con	mod	mod	mod	nt	ht	nh/0366_nh.bmp
520.56	0.72	714	6	5	58	per	con	mod	mod	mod	tg	ht	wh/0609.bmp
521.28	0.72	715	5	5	55	per	con	mod	mod	mod	tg	ms	wh/0269.bmp
522.00	0.72	716	1	7	6	per	con	mod	low	mod	tg	ms	wh/0084.bmp
522.72	0.72	717	5	5	47	per	lib	mod	mod	mod	nt	cr	nh/0560_nh.bmp
523.44	0.72	718	6	8	89	per	lib	mod	mod	mod	nt	cr	nh/0564_nh.bmp
524.16	0.72	719	5	5	7	per	con	low	mod	low	nt	fa	nh/0193_nh.bmp
524.88	0.72	720	6	7	38	mem	lib	mod	mod	mod	nt	ht	nh/0915_nh.bmp
525.60	0.72	721	6	8	62	mem	con	mod	mod	low	nt	ht	nh/0939_nh.bmp
526.32	0.72	722	5	6	33	mem	con	mod	mod	mod	nt	ms	nh/0056_nh.bmp
527.04	0.72	723	4	8	53	mem	con	mod	mod	low	nt	ms	nh/0042_nh.bmp
527.76	0.72	724	6	7	99	mem	con	mod	mod	mod	tg	ht	wh/0544.bmp
528.48	0.72	725	3	6	42	mem	con	mod	mod	mod	nt	ht	nh/0629_nh.bmp
529.20	0.72	726	4	5	10	per	con	low	mod	low	tg	ms	wh/0793.bmp
529.92	0.72	727	6	5	99	per	lib	low	mod	low	nt	fa	nh/1004_nh.bmp
530.64	0.72	728	6	5	51	per	con	mod	mod	mod	nt	cr	nh/0495_nh.bmp
531.36	0.72	729	1	6	107	mem	con	low	low	low	nt	ht	nh/0138_nh.bmp
532.08	0.72	730	5	6	121	mem	lib	mod	mod	low	nt	ht	nh/0618_nh.bmp
532.80	0.72	731	1	6	60	mem	lib	low	low	low	nt	ht	nh/0005_nh.bmp
533.52	0.72	732	4	7	107	mem	con	mod	mod	mod	tg	ht	wh/0763.bmp
534.24	0.72	733	6	6	124	mem	lib	mod	mod	low	tg	ht	wh/0170.bmp
534.96	0.72	734	5	7	35	mem	lib	mod	mod	mod	tg	ht	wh/0638.bmp
535.68	0.72	735	5	5	26	mem	con	mod	mod	low	tg	ht	wh/0780.bmp
536.40	0.72	736	6	5	123	mem	lib	mod	mod	mod	nt	ht	nh/0952_nh.bmp
537.12	0.72	737	1	6	78	per	con	mod	low	mod	nt	cr	nh/0389_nh.bmp
537.84	0.72	738	5	5	2	per	con	low	mod	low	nt	cr	nh/0578_nh.bmp
538.56	0.72	739	5	5	128	mem	lib	mod	mod	mod	tg	ht	wh/0603.bmp
539.28	0.72	740	4	8	31	mem	lib	mod	mod	low	nt	ht	nh/0647_nh.bmp
540.00	0.72	741	6	5	46	per	lib	mod	mod	mod	tg	ht	wh/0408.bmp
540.72	0.72	742	6	7	109	mem	con	mod	mod	mod	nt	ms	nh/0852_nh.bmp
541.44	0.72	743	6	5	2	per	con	low	mod	low	nt	cr	nh/0578_nh.bmp
542.16	0.72	744	1	7	83	mem	lib	low	low	mod	nt	ms	nh/0945_nh.bmp
542.88	0.72	745	6	7	47	mem	lib	mod	mod	mod	nt	ht	nh/0590_nh.bmp
543.60	0.72	746	4	6	42	mem	con	mod	mod	mod	nt	ht	nh/0629_nh.bmp
544.32	0.72	747	1	6	12	per	con	low	low	low	nt	cr	nh/0280_nh.bmp
545.04	0.72	748	1	6	88	per	lib	mod	low	mod	tg	ht	wh/0016.bmp
545.76	0.72	749	1	6	1	per	con	low	low	low	tg	ms	wh/0617.bmp
546.48	0.72	750	6	5	126	mem	lib	mod	mod	mod	tg	ht	wh/0239.bmp
547.20	0.72	751	6	8	21	mem	lib	mod	mod	low	nt	ht	nh/0164_nh.bmp
547.92	0.72	752	5	8	97	per	con	mod	mod	mod	nt	cr	nh/0060_nh.bmp
548.64	0.72	753	6	5	47	per	lib	mod	mod	mod	nt	cr	nh/0560_nh.bmp
549.36	0.72	754	6	5	1	per	con	low	mod	low	nt	cr	nh/0165_nh.bmp
550.08	0.72	755	6	5	42	per	lib	mod	mod	mod	nt	fa	nh/0623_nh.bmp
550.80	0.72	756	5	8	128	per	lib	low	mod	low	nt	fa	nh/0176_nh.bmp
551.52	0.72	757	6	5	55	per	con	mod	mod	mod	tg	ms	wh/0269.bmp
552.24	0.72	758	5	8	91	per	lib	mod	mod	mod	nt	fa	nh/0835_nh.bmp
552.96	0.72	759	6	6	119	mem	lib	mod	mod	low	tg	ht	wh/0892.bmp
553.68	0.72	760	1	6	2	per	con	low	low	low	nt	cr	nh/0929_nh.bmp
554.40	0.72	761	6	6	123	mem	lib	mod	mod	low	tg	ht	wh/1019.bmp
555.12	0.72	762	6	8	28	mem	lib	mod	mod	low	nt	ht	nh/0734_nh.bmp
555.84	0.72	763	5	8	31	mem	lib	mod	mod	low	nt	ht	nh/0647_nh.bmp
556.56	0.72	764	5	8	13	per	con	low	mod	low	nt	cr	nh/0519_nh.bmp
557.28	0.72	765	5	5	54	per	con	mod	mod	mod	tg	ht	wh/0871.bmp
558.00	0.72	766	1	6	6	per	con	low	low	low	tg	ms	wh/0063.bmp
558.72	0.72	767	4	6	45	mem	con	mod	mod	mod	nt	ht	nh/0366_nh.bmp
559.44	0.72	768	6	5	32	mem	con	mod	mod	low	nt	ms	nh/0064_nh.bmp
560.16	0.72	769	1	7	15	per	con	mod	low	mod	tg	ht	wh/0416.bmp
560.88	0.72	770	5	8	113	per	lib	low	mod	low	nt	fa	nh/0248_nh.bmp
561.60	0.72	771	6	8	55	mem	con	mod	mod	low	nt	ms	nh/0848_nh.bmp
562.32	0.72	772	6	5	35	per	lib	mod	mod	mod	tg	ht	wh/0599.bmp
563.04	0.72	773	5	5	124	mem	lib	mod	mod	mod	nt	ht	nh/0717_nh.bmp
563.76	0.72	774	5	6	42	mem	con	mod	mod	mod	nt	ht	nh/0629_nh.bmp
564.48	0.72	775	5	8	10	per	con	low	mod	low	tg	ms	wh/0297.bmp
565.20	0.72	776	3	5	103	per	lib	low	mod	low	nt	fa	nh/0875_nh.bmp
565.92	0.72	777	5	6	128	mem	lib	mod	mod	low	nt	ht	nh/0678_nh.bmp
566.64	0.72	778	5	5	13	per	con	low	mod	low	tg	ms	wh/0403.bmp
567.36	0.72	779	6	8	17	mem	lib	mod	mod	low	tg	ht	wh/0143.bmp
568.08	0.72	780	5	6	41	mem	con	mod	mod	mod	tg	ms	wh/0436.bmp
568.80	0.72	781	6	8	97	per	con	mod	mod	mod	nt	cr	nh/0060_nh.bmp
569.52	0.72	782	6	5	128	mem	lib	mod	mod	mod	tg	ht	wh/0603.bmp
570.24	0.72	783	1	6	32	per	lib	low	low	low	tg	ms	wh/0480.bmp
570.96	0.72	784	6	5	7	per	con	low	mod	low	nt	fa	nh/0193_nh.bmp
571.68	0.72	785	1	6	68	per	con	mod	low	mod	nt	fa	nh/1008_nh.bmp
572.40	0.72	786	6	8	31	mem	lib	mod	mod	low	nt	ht	nh/0647_nh.bmp
573.12	0.72	787	5	8	118	per	lib	low	mod	low	nt	fa	nh/0114_nh.bmp
573.84	0.72	788	6	8	128	per	lib	low	mod	low	nt	fa	nh/0176_nh.bmp
574.56	0.72	789	4	8	102	per	con	mod	mod	mod	nt	cr	nh/0294_nh.bmp
575.28	0.72	790	6	5	97	per	lib	low	mod	low	nt	fa	nh/0241_nh.bmp
576.00	0.72	791	6	5	26	mem	con	mod	mod	low	tg	ht	wh/0780.bmp
576.72	0.72	792	6	5	36	per	lib	mod	mod	mod	tg	ht	wh/0797.bmp
577.44	0.72	793	6	5	5	per	con	low	mod	low	tg	ms	wh/0118.bmp
578.16	0.72	794	6	5	127	mem	lib	mod	mod	mod	tg	ht	wh/0694.bmp
578.88	0.72	795	1	6	112	mem	con	low	low	low	nt	ms	nh/0825_nh.bmp
579.60	0.72	796	6	5	17	mem	con	mod	mod	low	tg	ht	wh/0012.bmp
580.32	0.72	797	6	6	35	mem	con	mod	mod	mod	nt	ms	nh/0179_nh.bmp
581.04	0.72	798	6	7	41	mem	lib	mod	mod	mod	nt	ht	nh/0827_nh.bmp
581.76	0.72	799	4	8	81	per	lib	mod	mod	mod	nt	fa	nh/0086_nh.bmp
582.48	0.72	800	5	8	53	mem	con	mod	mod	low	nt	ms	nh/0042_nh.bmp
583.20	0.72	801	6	8	127	per	lib	low	mod	low	tg	ht	wh/0756.bmp
583.92	0.72	802	5	8	102	per	con	mod	mod	mod	nt	cr	nh/0294_nh.bmp
584.64	0.72	803	1	6	106	mem	con	low	low	low	tg	ms	wh/0676.bmp
585.36	0.72	804	6	8	103	per	con	mod	mod	mod	tg	ms	wh/0420.bmp
586.08	0.72	805	6	8	53	mem	con	mod	mod	low	nt	ms	nh/0042_nh.bmp
586.80	0.72	806	5	5	113	mem	lib	mod	mod	mod	nt	ht	nh/0378_nh.bmp
587.52	0.72	807	5	5	106	per	lib	low	mod	low	tg	ms	wh/0073.bmp
588.24	0.72	808	6	5	53	per	con	mod	mod	mod	nt	cr	nh/0715_nh.bmp
588.96	0.72	809	1	6	70	per	con	mod	low	mod	tg	ht	wh/0631.bmp
589.68	0.72	810	6	5	59	per	con	mod	mod	mod	nt	cr	nh/0851_nh.bmp
590.40	0.72	811	6	8	113	per	lib	low	mod	low	nt	fa	nh/0248_nh.bmp
591.12	0.72	812	6	6	114	mem	lib	mod	mod	low	nt	ht	nh/0018_nh.bmp
591.84	0.72	813	5	5	48	per	lib	mod	mod	mod	nt	cr	nh/0995_nh.bmp
592.56	0.72	814	6	5	63	per	con	mod	mod	mod	tg	ht	wh/0602.bmp
593.28	0.72	815	4	5	103	per	lib	low	mod	low	nt	fa	nh/0875_nh.bmp
594.00	0.72	816	4	8	108	per	con	mod	mod	mod	nt	cr	nh/0888_nh.bmp
594.72	0.72	817	5	6	116	mem	lib	mod	mod	low	nt	ht	nh/0023_nh.bmp
595.44	0.72	818	1	8	43	mem	lib	low	low	low	nt	ms	nh/0830_nh.bmp
596.16	0.72	819	6	8	12	per	con	low	mod	low	tg	ht	wh/0883.bmp
596.88	0.72	820	1	8	39	mem	lib	low	low	low	nt	ht	nh/0041_nh.bmp
597.60	0.72	821	5	7	100	mem	con	mod	mod	mod	nt	ht	nh/0300_nh.bmp
598.32	0.72	822	5	7	107	mem	con	mod	mod	mod	tg	ht	wh/0763.bmp
599.04	0.72	823	1	5	68	mem	lib	low	low	mod	nt	ht	nh/0308_nh.bmp
599.76	0.72	824	1	7	121	per	con	low	low	low	tg	ms	wh/0728.bmp
600.48	0.72	825	6	6	33	mem	con	mod	mod	mod	nt	ms	nh/0056_nh.bmp
601.20	0.72	826	6	5	48	per	lib	mod	mod	mod	nt	cr	nh/0995_nh.bmp
601.92	0.72	827	5	8	85	per	lib	mod	mod	mod	tg	ht	wh/0778.bmp
602.64	0.72	828	5	5	10	per	con	low	mod	low	tg	ms	wh/0793.bmp
603.36	0.72	829	6	8	24	mem	lib	mod	mod	low	tg	ms	wh/0108.bmp
604.08	0.72	830	5	8	3	per	con	low	mod	low	tg	ms	wh/0253.bmp
604.80	0.72	831	6	8	118	per	lib	low	mod	low	nt	fa	nh/0114_nh.bmp
605.52	0.72	832	6	5	113	mem	lib	mod	mod	mod	nt	ht	nh/0378_nh.bmp
606.24	0.72	833	6	7	102	mem	con	mod	mod	mod	tg	ht	wh/0552.bmp
606.96	0.72	834	6	8	51	mem	con	mod	mod	low	tg	ms	wh/0450.bmp
607.68	0.72	835	6	8	6	per	con	low	mod	low	nt	cr	nh/0612_nh.bmp
608.40	0.72	836	6	8	91	per	lib	mod	mod	mod	nt	fa	nh/0835_nh.bmp
609.12	0.72	837	6	5	19	mem	con	mod	mod	low	tg	ht	wh/0254.bmp
609.84	0.72	838	6	8	85	per	lib	mod	mod	mod	tg	ht	wh/0778.bmp
610.56	0.72	839	6	8	25	mem	lib	mod	mod	low	nt	ht	nh/0247_nh.bmp
611.28	0.72	840	6	5	54	per	con	mod	mod	mod	tg	ht	wh/0871.bmp
612.00	0.72	841	6	6	121	mem	lib	mod	mod	low	nt	ht	nh/0618_nh.bmp
612.72	0.72	842	6	7	35	mem	lib	mod	mod	mod	tg	ht	wh/0638.bmp
613.44	0.72	843	5	8	81	per	lib	mod	mod	mod	nt	fa	nh/0086_nh.bmp
614.16	0.72	844	5	5	103	per	lib	low	mod	low	nt	fa	nh/0875_nh.bmp
614.88	0.72	845	6	5	56	per	con	mod	mod	mod	nt	cr	nh/0764_nh.bmp
615.60	0.72	846	6	6	40	mem	con	mod	mod	mod	tg	ms	wh/0822.bmp
616.32	0.72	847	5	8	2	per	con	low	mod	low	tg	ms	wh/0157.bmp
617.04	0.72	848	6	5	110	per	lib	low	mod	low	tg	ht	wh/0491.bmp
617.76	0.72	849	1	7	90	mem	lib	low	low	mod	tg	ht	wh/0402.bmp
618.48	0.72	850	6	8	112	per	con	mod	mod	mod	tg	ht	wh/0546.bmp
619.20	0.72	851	6	8	60	mem	con	mod	mod	low	tg	ms	wh/0172.bmp
619.92	0.72	852	6	5	103	per	lib	low	mod	low	nt	fa	nh/0875_nh.bmp
620.64	0.72	853	1	7	28	per	lib	mod	low	mod	tg	ms	wh/0372.bmp
621.36	0.72	854	6	7	100	mem	con	mod	mod	mod	nt	ht	nh/0300_nh.bmp
622.08	0.72	855	1	7	71	mem	con	low	low	low	nt	ms	nh/0147_nh.bmp
622.80	0.72	856	6	7	107	mem	con	mod	mod	mod	tg	ht	wh/0763.bmp
623.52	0.72	857	1	7	65	mem	con	low	low	low	tg	ms	wh/0202.bmp
624.24	0.72	858	6	8	125	per	lib	low	mod	low	nt	cr	nh/0814_nh.bmp
624.96	0.72	859	5	8	108	per	con	mod	mod	mod	nt	cr	nh/0888_nh.bmp
625.68	0.72	860	6	5	124	mem	lib	mod	mod	mod	nt	ht	nh/0717_nh.bmp
626.40	0.72	861	6	8	10	per	con	low	mod	low	tg	ms	wh/0297.bmp
627.12	0.72	862	6	6	116	mem	lib	mod	mod	low	nt	ht	nh/0023_nh.bmp
627.84	0.72	863	1	7	117	per	con	low	low	low	nt	cr	nh/0034_nh.bmp
628.56	0.72	864	1	7	27	per	lib	mod	low	mod	nt	cr	nh/1002_nh.bmp
629.28	0.72	865	6	7	108	mem	con	mod	mod	mod	nt	ms	nh/0832_nh.bmp
630.00	0.72	866	6	8	2	per	con	low	mod	low	tg	ms	wh/0157.bmp
630.72	0.72	867	5	6	45	mem	con	mod	mod	mod	nt	ht	nh/0366_nh.bmp
631.44	0.72	868	6	5	22	mem	con	mod	mod	low	nt	ht	nh/1014_nh.bmp
632.16	0.72	869	6	6	42	mem	con	mod	mod	mod	nt	ht	nh/0629_nh.bmp
632.88	0.72	870	6	7	111	mem	con	mod	mod	mod	nt	ms	nh/0586_nh.bmp
633.60	0.72	871	6	8	96	per	lib	mod	mod	mod	tg	ht	wh/0399.bmp
634.32	0.72	872	5	5	104	per	lib	low	mod	low	tg	ht	wh/0582.bmp
635.04	0.72	873	1	6	54	mem	lib	low	low	low	tg	ht	wh/0770.bmp
635.76	0.72	874	5	7	45	mem	lib	mod	mod	mod	nt	ht	nh/0968_nh.bmp
636.48	0.72	875	6	5	6	per	con	low	mod	low	nt	fa	nh/0374_nh.bmp
637.20	0.72	876	1	6	7	per	con	low	low	low	tg	ms	wh/0045.bmp
637.92	0.72	877	6	5	106	per	lib	low	mod	low	tg	ms	wh/0073.bmp
638.64	0.72	878	6	7	45	mem	lib	mod	mod	mod	nt	ht	nh/0968_nh.bmp
639.36	0.72	879	1	6	18	per	lib	low	low	low	tg	ht	wh/0352.bmp
640.08	0.72	880	6	6	45	mem	con	mod	mod	mod	nt	ht	nh/0366_nh.bmp
640.80	0.72	881	6	6	128	mem	lib	mod	mod	low	nt	ht	nh/0678_nh.bmp
641.52	0.72	882	6	6	36	mem	con	mod	mod	mod	tg	ms	wh/0549.bmp
642.24	0.72	883	1	8	40	mem	lib	low	low	low	tg	ht	wh/0737.bmp
642.96	0.72	884	6	8	13	per	con	low	mod	low	nt	cr	nh/0519_nh.bmp
643.68	0.72	885	1	7	72	mem	con	low	low	low	tg	ms	wh/0226.bmp
644.40	0.72	886	6	5	13	per	con	low	mod	low	tg	ms	wh/0403.bmp
645.12	0.72	887	6	8	108	per	con	mod	mod	mod	nt	cr	nh/0888_nh.bmp
645.84	0.72	888	6	7	48	mem	lib	mod	mod	mod	tg	ht	wh/0275.bmp
646.56	0.72	889	6	5	104	per	lib	low	mod	low	tg	ht	wh/0582.bmp
647.28	0.72	890	6	5	10	per	con	low	mod	low	tg	ms	wh/0793.bmp
648.00	0.72	891	6	8	102	per	con	mod	mod	mod	nt	cr	nh/0294_nh.bmp
648.72	0.72	892	6	8	58	mem	con	mod	mod	low	tg	ms	wh/0521.bmp
649.44	0.72	893	6	8	81	per	lib	mod	mod	mod	nt	fa	nh/0086_nh.bmp
650.16	0.72	894	6	8	3	per	con	low	mod	low	tg	ms	wh/0253.bmp
650.88	0.72	895	6	6	41	mem	con	mod	mod	mod	tg	ms	wh/0436.bmp
651.60	0.72	896	6	8	11	per	con	low	mod	low	nt	cr	nh/0024_nh.bmp
