onset	duration	block	trial	task	crit	disc	mem_disc	per_disc	trial_type	mem_type	per_type	left_option	resp_hand	response	accuracy	response_time	stim_file	pay	pay_tot
7.2	7.2	1	n/a	mem	con	low	n/a	n/a	instructions	n/a	n/a	n/a	n/a	n/a	n/a	n/a	n/a	n/a	n/a
16.16	0.88751	1	1	mem	con	low	low	mod	nt	nt	tg	tg	right	nt	cr	0.48751	wh/0557.bmp	0.05	5.45
19.04	0.94119	1	2	mem	con	low	low	mod	nt	nt	nt	nt	left	nt	cr	0.54119	nh/0667_nh.bmp	0.05	5.5
21.92	1.17268	1	3	mem	con	low	low	mod	tg	tg	tg	tg	right	nt	ms	0.77268	wh/0218.bmp	0	5.5
24.8	0.91923	1	4	mem	con	low	low	mod	nt	nt	nt	nt	left	nt	cr	0.51923	nh/0539_nh.bmp	0.05	5.55
28.4	0.86432	1	5	mem	con	low	low	mod	nt	nt	nt	tg	right	nt	cr	0.46432	nh/0670_nh.bmp	0.05	5.6
31.28	1.5029	1	6	mem	con	low	low	mod	nt	nt	tg	tg	left	tg	fa	1.1029	wh/0993.bmp	-0.1	5.5
35.6	0.93393	1	7	mem	con	low	low	mod	tg	tg	nt	nt	left	nt	ms	0.53393	nh/0149_nh.bmp	0	5.5
39.2	1.0252	1	8	mem	con	low	low	mod	nt	nt	nt	tg	right	nt	cr	0.6252	nh/1020_nh.bmp	0.05	5.55
42.08	0.83874	1	9	mem	con	low	low	mod	nt	nt	tg	nt	left	nt	cr	0.43874	wh/0346.bmp	0.05	5.6
46.4	0.86894	1	10	mem	con	low	low	mod	nt	nt	tg	nt	left	nt	cr	0.46894	wh/0606.bmp	0.05	5.65
50	0.96477	1	11	mem	con	low	low	mod	tg	tg	tg	tg	right	nt	ms	0.56477	wh/0918.bmp	0	5.65
52.88	0.89244	1	12	mem	con	low	low	mod	tg	tg	tg	tg	right	nt	ms	0.49244	wh/0856.bmp	0	5.65
55.76	0.88308	1	13	mem	con	low	low	mod	tg	tg	nt	tg	right	nt	ms	0.48308	nh/0589_nh.bmp	0	5.65
58.64	0.97832	1	14	mem	con	low	low	mod	tg	tg	nt	nt	left	nt	ms	0.57832	nh/0922_nh.bmp	0	5.65
62.96	1.3989	1	15	mem	con	low	low	mod	tg	tg	nt	nt	left	nt	ms	0.9989	nh/0776_nh.bmp	0	5.65
65.84	0.94506	1	16	mem	con	low	low	mod	tg	tg	tg	tg	right	nt	ms	0.54506	wh/0270.bmp	0	5.65
68.4	3.6	1	n/a	mem	con	low	n/a	n/a	feedback	n/a	n/a	n/a	n/a	n/a	n/a	n/a	n/a	n/a	n/a
72	7.2	2	n/a	per	lib	low	n/a	n/a	instructions	n/a	n/a	n/a	n/a	n/a	n/a	n/a	n/a	n/a	n/a
80.24	1.08373	2	17	per	lib	low	low	low	tg	tg	tg	tg	right	nt	ms	0.68373	wh/0747.bmp	-0.1	5.55
84.56	0.90858	2	18	per	lib	low	low	low	tg	nt	tg	nt	right	tg	ht	0.50858	wh/0242.bmp	0.05	5.6
87.44	1.6609	2	19	per	lib	low	low	low	tg	nt	tg	tg	left	tg	ht	1.2609	wh/0026.bmp	0.05	5.65
90.32	1.09281	2	20	per	lib	low	low	low	nt	tg	nt	nt	right	tg	fa	0.69281	nh/0979_nh.bmp	0	5.65
93.2	0.97546	2	21	per	lib	low	low	low	tg	tg	tg	tg	left	tg	ht	0.57546	wh/0330.bmp	0.05	5.7
96.08	1.04008	2	22	per	lib	low	low	low	nt	nt	nt	tg	left	tg	fa	0.64008	nh/0500_nh.bmp	0	5.7
98.96	1.07132	2	23	per	lib	low	low	low	nt	nt	nt	nt	left	nt	cr	0.67132	nh/0653_nh.bmp	0.05	5.75
103.28	1.08048	2	24	per	lib	low	low	low	tg	tg	tg	nt	left	nt	ms	0.68048	wh/0119.bmp	-0.1	5.65
106.16	1.09503	2	25	per	lib	low	low	low	tg	nt	tg	tg	right	nt	ms	0.69503	wh/0877.bmp	-0.1	5.55
110.48	1.06586	2	26	per	lib	low	low	low	nt	tg	nt	nt	right	tg	fa	0.66586	nh/0485_nh.bmp	0	5.55
113.36	0.88943	2	27	per	lib	low	low	low	nt	tg	nt	nt	right	tg	fa	0.48943	nh/0159_nh.bmp	0	5.55
117.68	1.09517	2	28	per	lib	low	low	low	nt	tg	nt	tg	left	tg	fa	0.69517	nh/0008_nh.bmp	0	5.55
121.28	1.4949	2	29	per	lib	low	low	low	nt	nt	nt	tg	right	nt	cr	1.0949	nh/0713_nh.bmp	0.05	5.6
124.16	1.08694	2	30	per	lib	low	low	low	tg	tg	tg	nt	left	nt	ms	0.68694	wh/0996.bmp	-0.1	5.5
127.04	1.02072	2	31	per	lib	low	low	low	nt	nt	nt	tg	left	tg	fa	0.62072	nh/0171_nh.bmp	0	5.5
129.92	1.22493	2	32	per	lib	low	low	low	tg	nt	tg	tg	left	tg	ht	0.82493	wh/0117.bmp	0.05	5.55
132.48	3.6	2	n/a	per	lib	low	n/a	n/a	feedback	n/a	n/a	n/a	n/a	n/a	n/a	n/a	n/a	n/a	n/a
136.08	7.2	3	n/a	mem	con	mod	n/a	n/a	instructions	n/a	n/a	n/a	n/a	n/a	n/a	n/a	n/a	n/a	n/a
143.6	0.99344	3	33	mem	con	mod	mod	low	tg	tg	nt	nt	left	nt	ms	0.59344	nh/0455_nh.bmp	0	5.55
146.48	0.96105	3	34	mem	con	mod	mod	low	tg	tg	tg	tg	right	nt	ms	0.56105	wh/0116.bmp	0	5.55
150.8	1.05473	3	35	mem	con	mod	mod	low	nt	nt	nt	nt	right	tg	fa	0.65473	nh/0400_nh.bmp	-0.1	5.45
155.12	0.9937	3	36	mem	con	mod	mod	low	nt	nt	tg	nt	left	nt	cr	0.5937	wh/0132.bmp	0.05	5.5
159.44	0.94169	3	37	mem	con	mod	mod	low	nt	nt	tg	nt	left	nt	cr	0.54169	wh/0641.bmp	0.05	5.55
163.04	1.16489	3	38	mem	con	mod	mod	low	nt	nt	nt	nt	left	nt	cr	0.76489	nh/0283_nh.bmp	0.05	5.6
166.64	1.15974	3	39	mem	con	mod	mod	low	tg	tg	tg	tg	right	nt	ms	0.75974	wh/0200.bmp	0	5.6
169.52	0.88869	3	40	mem	con	mod	mod	low	nt	nt	tg	nt	left	nt	cr	0.48869	wh/0454.bmp	0.05	5.65
173.84	0.87652	3	41	mem	con	mod	mod	low	tg	tg	tg	tg	right	nt	ms	0.47652	wh/0727.bmp	0	5.65
177.44	1.3109	3	42	mem	con	mod	mod	low	nt	nt	tg	tg	right	nt	cr	0.9109	wh/0703.bmp	0.05	5.7
180.32	1.14983	3	43	mem	con	mod	mod	low	nt	nt	nt	nt	right	tg	fa	0.74983	nh/0195_nh.bmp	-0.1	5.6
183.92	0.99063	3	44	mem	con	mod	mod	low	tg	tg	nt	tg	right	nt	ms	0.59063	nh/0168_nh.bmp	0	5.6
186.8	1.01419	3	45	mem	con	mod	mod	low	tg	tg	nt	tg	right	nt	ms	0.61419	nh/0205_nh.bmp	0	5.6
191.12	1.13387	3	46	mem	con	mod	mod	low	tg	tg	nt	tg	left	tg	ht	0.73387	nh/0755_nh.bmp	0.05	5.65
195.44	1.05577	3	47	mem	con	mod	mod	low	tg	tg	tg	tg	right	nt	ms	0.65577	wh/1021.bmp	0	5.65
199.04	0.93195	3	48	mem	con	mod	mod	low	nt	nt	nt	tg	right	nt	cr	0.53195	nh/1000_nh.bmp	0.05	5.7
202.32	3.6	3	n/a	mem	con	mod	n/a	n/a	feedback	n/a	n/a	n/a	n/a	n/a	n/a	n/a	n/a	n/a	n/a
205.92	7.2	4	n/a	per	con	low	n/a	n/a	instructions	n/a	n/a	n/a	n/a	n/a	n/a	n/a	n/a	n/a	n/a
214.16	0.94557	4	49	per	con	low	mod	low	tg	tg	tg	tg	right	nt	ms	0.54557	wh/0515.bmp	0	5.7
217.76	0.98272	4	50	per	con	low	mod	low	tg	tg	tg	tg	right	nt	ms	0.58272	wh/0435.bmp	0	5.7
220.64	0.94137	4	51	per	con	low	mod	low	nt	nt	nt	tg	right	nt	cr	0.54137	nh/0757_nh.bmp	0.05	5.75
223.52	0.9728	4	52	per	con	low	mod	low	nt	nt	nt	tg	right	nt	cr	0.5728	nh/0067_nh.bmp	0.05	5.8
227.84	1.1899	4	53	per	con	low	mod	low	tg	tg	tg	tg	right	nt	ms	0.7899	wh/0155.bmp	0	5.8
232.16	1.13692	4	54	per	con	low	mod	low	tg	tg	tg	nt	right	tg	ht	0.73692	wh/0133.bmp	0.05	5.85
235.04	1.6719	4	55	per	con	low	mod	low	nt	nt	nt	tg	right	nt	cr	1.2719	nh/0174_nh.bmp	0.05	5.9
238.64	0.89236	4	56	per	con	low	mod	low	nt	nt	nt	tg	right	nt	cr	0.49236	nh/0643_nh.bmp	0.05	5.95
241.52	1.04198	4	57	per	con	low	mod	low	tg	nt	tg	nt	left	nt	ms	0.64198	wh/0792.bmp	0	5.95
244.4	1.39094	4	58	per	con	low	mod	low	tg	nt	tg	tg	right	nt	ms	0.99094	wh/0976.bmp	0	5.95
248.72	1.14268	4	59	per	con	low	mod	low	tg	nt	tg	tg	right	nt	ms	0.74268	wh/0683.bmp	0	5.95
253.04	1.4829	4	60	per	con	low	mod	low	nt	tg	nt	tg	left	tg	fa	1.0829	nh/0353_nh.bmp	-0.1	5.85
257.36	1.14389	4	61	per	con	low	mod	low	nt	tg	nt	tg	right	nt	cr	0.74389	nh/0031_nh.bmp	0.05	5.9
260.96	1.15375	4	62	per	con	low	mod	low	nt	tg	nt	nt	left	nt	cr	0.75375	nh/0392_nh.bmp	0.05	5.95
264.56	1.13188	4	63	per	con	low	mod	low	tg	nt	tg	tg	right	nt	ms	0.73188	wh/0512.bmp	0	5.95
268.16	1.3629	4	64	per	con	low	mod	low	nt	tg	nt	tg	right	nt	cr	0.9629	nh/0163_nh.bmp	0.05	6
270.72	3.6	4	n/a	per	con	low	n/a	n/a	feedback	n/a	n/a	n/a	n/a	n/a	n/a	n/a	n/a	n/a	n/a
275.04	7.2	5	n/a	per	con	mod	n/a	n/a	instructions	n/a	n/a	n/a	n/a	n/a	n/a	n/a	n/a	n/a	n/a
284	0.97299	5	65	per	con	mod	mod	mod	nt	nt	nt	tg	right	nt	cr	0.57299	nh/0834_nh.bmp	0.05	6.05
286.88	1.13389	5	66	per	con	mod	mod	mod	nt	tg	nt	nt	right	tg	fa	0.73389	nh/0204_nh.bmp	-0.1	5.95
290.48	1.4679	5	67	per	con	mod	mod	mod	nt	tg	nt	tg	right	nt	cr	1.0679	nh/0841_nh.bmp	0.05	6
294.08	1.05635	5	68	per	con	mod	mod	mod	tg	nt	tg	tg	left	tg	ht	0.65635	wh/0861.bmp	0.05	6.05
296.96	1.16489	5	69	per	con	mod	mod	mod	tg	nt	tg	tg	right	nt	ms	0.76489	wh/0477.bmp	0	6.05
299.84	1.04188	5	70	per	con	mod	mod	mod	tg	tg	tg	nt	right	tg	ht	0.64188	wh/0463.bmp	0.05	6.1
302.72	0.9996	5	71	per	con	mod	mod	mod	tg	tg	tg	nt	left	nt	ms	0.5996	wh/0965.bmp	0	6.1
305.6	1.21787	5	72	per	con	mod	mod	mod	nt	nt	nt	nt	left	nt	cr	0.81787	nh/0759_nh.bmp	0.05	6.15
308.48	1.04023	5	73	per	con	mod	mod	mod	nt	nt	nt	tg	right	nt	cr	0.64023	nh/0344_nh.bmp	0.05	6.2
312.8	1.00534	5	74	per	con	mod	mod	mod	tg	nt	tg	nt	left	nt	ms	0.60534	wh/0809.bmp	0	6.2
317.12	0.96465	5	75	per	con	mod	mod	mod	nt	nt	nt	nt	left	nt	cr	0.56465	nh/0358_nh.bmp	0.05	6.25
320.72	0.81294	5	76	per	con	mod	mod	mod	tg	tg	tg	nt	right	tg	ht	0.41294	wh/0698.bmp	0.05	6.3
324.32	0.97892	5	77	per	con	mod	mod	mod	tg	nt	tg	tg	left	tg	ht	0.57892	wh/0039.bmp	0.05	6.35
327.2	0.9747	5	78	per	con	mod	mod	mod	nt	tg	nt	nt	left	nt	cr	0.5747	nh/0561_nh.bmp	0.05	6.4
331.52	0.96039	5	79	per	con	mod	mod	mod	nt	tg	nt	tg	right	nt	cr	0.56039	nh/0585_nh.bmp	0.05	6.45
334.4	0.93404	5	80	per	con	mod	mod	mod	tg	tg	tg	tg	left	tg	ht	0.53404	wh/0785.bmp	0.05	6.5
337.68	3.6	5	n/a	per	con	mod	n/a	n/a	feedback	n/a	n/a	n/a	n/a	n/a	n/a	n/a	n/a	n/a	n/a
341.28	7.2	6	n/a	per	lib	mod	n/a	n/a	instructions	n/a	n/a	n/a	n/a	n/a	n/a	n/a	n/a	n/a	n/a
348.8	0.98177	6	81	per	lib	mod	mod	mod	nt	nt	nt	nt	left	nt	cr	0.58177	nh/0753_nh.bmp	0.05	6.55
352.4	0.74815	6	82	per	lib	mod	mod	mod	tg	nt	tg	tg	right	nt	ms	0.34815	wh/0705.bmp	-0.1	6.45
356.72	1.17494	6	83	per	lib	mod	mod	mod	nt	nt	nt	nt	left	nt	cr	0.77494	nh/0445_nh.bmp	0.05	6.5
361.04	1.0759	6	84	per	lib	mod	mod	mod	tg	tg	tg	tg	left	tg	ht	0.6759	wh/0879.bmp	0.05	6.55
363.92	1.25391	6	85	per	lib	mod	mod	mod	nt	nt	nt	tg	left	tg	fa	0.85391	nh/0282_nh.bmp	0	6.55
366.8	1.17188	6	86	per	lib	mod	mod	mod	nt	tg	nt	nt	right	tg	fa	0.77188	nh/0724_nh.bmp	0	6.55
369.68	1.5199	6	87	per	lib	mod	mod	mod	tg	tg	tg	tg	right	nt	ms	1.1199	wh/0162.bmp	-0.1	6.45
372.56	1.20493	6	88	per	lib	mod	mod	mod	tg	tg	tg	nt	right	tg	ht	0.80493	wh/0600.bmp	0.05	6.5
376.16	1.0382	6	89	per	lib	mod	mod	mod	tg	tg	tg	nt	right	tg	ht	0.6382	wh/0596.bmp	0.05	6.55
379.04	1.5239	6	90	per	lib	mod	mod	mod	nt	tg	nt	nt	right	tg	fa	1.1239	nh/0526_nh.bmp	0	6.55
383.36	1.00666	6	91	per	lib	mod	mod	mod	nt	nt	nt	nt	right	tg	fa	0.60666	nh/0490_nh.bmp	0	6.55
386.96	1.6399	6	92	per	lib	mod	mod	mod	nt	tg	nt	tg	left	tg	fa	1.2399	nh/0002_nh.bmp	0	6.55
389.84	0.9278	6	93	per	lib	mod	mod	mod	tg	nt	tg	nt	right	tg	ht	0.5278	wh/0151.bmp	0.05	6.6
393.44	1.4659	6	94	per	lib	mod	mod	mod	tg	nt	tg	tg	left	tg	ht	1.0659	wh/0538.bmp	0.05	6.65
396.32	1.4769	6	95	per	lib	mod	mod	mod	nt	tg	nt	nt	left	nt	cr	1.0769	nh/0920_nh.bmp	0.05	6.7
399.2	1.17789	6	96	per	lib	mod	mod	mod	tg	nt	tg	nt	right	tg	ht	0.77789	wh/0343.bmp	0.05	6.75
402.48	3.6	6	n/a	per	lib	mod	n/a	n/a	feedback	n/a	n/a	n/a	n/a	n/a	n/a	n/a	n/a	n/a	n/a
406.08	7.2	7	n/a	mem	lib	mod	n/a	n/a	instructions	n/a	n/a	n/a	n/a	n/a	n/a	n/a	n/a	n/a	n/a
413.6	0.9014	7	97	mem	lib	mod	mod	mod	tg	tg	nt	tg	left	tg	ht	0.5014	nh/0473_nh.bmp	0.05	6.8
416.48	0.93646	7	98	mem	lib	mod	mod	mod	tg	tg	tg	nt	left	nt	ms	0.53646	wh/0637.bmp	-0.1	6.7
420.8	1.23286	7	99	mem	lib	mod	mod	mod	tg	tg	tg	tg	left	tg	ht	0.83286	wh/0942.bmp	0.05	6.75
423.68	1.07593	7	100	mem	lib	mod	mod	mod	nt	nt	nt	nt	left	nt	cr	0.67593	nh/0806_nh.bmp	0.05	6.8
427.28	0.9522	7	101	mem	lib	mod	mod	mod	tg	tg	tg	tg	left	tg	ht	0.5522	wh/0884.bmp	0.05	6.85
431.6	0.91099	7	102	mem	lib	mod	mod	mod	nt	nt	nt	nt	right	tg	fa	0.51099	nh/0592_nh.bmp	0	6.85
435.2	0.8782	7	103	mem	lib	mod	mod	mod	nt	nt	tg	tg	left	tg	fa	0.4782	wh/0229.bmp	0	6.85
439.52	1.11096	7	104	mem	lib	mod	mod	mod	nt	nt	tg	tg	left	tg	fa	0.71096	wh/0895.bmp	0	6.85
442.4	0.84171	7	105	mem	lib	mod	mod	mod	nt	nt	nt	nt	right	tg	fa	0.44171	nh/0479_nh.bmp	0	6.85
445.28	1.04324	7	106	mem	lib	mod	mod	mod	tg	tg	nt	nt	right	tg	ht	0.64324	nh/0100_nh.bmp	0.05	6.9
448.16	1.19196	7	107	mem	lib	mod	mod	mod	tg	tg	tg	nt	right	tg	ht	0.79196	wh/0679.bmp	0.05	6.95
451.76	1.07508	7	108	mem	lib	mod	mod	mod	nt	nt	tg	nt	right	tg	fa	0.67508	wh/0448.bmp	0	6.95
454.64	1.10366	7	109	mem	lib	mod	mod	mod	tg	tg	nt	nt	right	tg	ht	0.70366	nh/0183_nh.bmp	0.05	7
457.52	1.5589	7	110	mem	lib	mod	mod	mod	nt	nt	tg	nt	left	nt	cr	1.1589	wh/0664.bmp	0.05	7.05
461.84	1.08799	7	111	mem	lib	mod	mod	mod	tg	tg	nt	nt	right	tg	ht	0.68799	nh/0750_nh.bmp	0.05	7.1
464.72	1.14892	7	112	mem	lib	mod	mod	mod	nt	nt	nt	tg	right	nt	cr	0.74892	nh/0689_nh.bmp	0.05	7.15
467.28	3.6	7	n/a	mem	lib	mod	n/a	n/a	feedback	n/a	n/a	n/a	n/a	n/a	n/a	n/a	n/a	n/a	n/a
472.32	7.2	8	n/a	mem	lib	low	n/a	n/a	instructions	n/a	n/a	n/a	n/a	n/a	n/a	n/a	n/a	n/a	n/a
479.84	0.876	8	113	mem	lib	low	low	mod	nt	nt	nt	tg	left	tg	fa	0.476	nh/0644_nh.bmp	0	7.15
482.72	1.38391	8	114	mem	lib	low	low	mod	tg	tg	tg	nt	right	tg	ht	0.98391	wh/0550.bmp	0.05	7.2
485.6	0.93758	8	115	mem	lib	low	low	mod	tg	tg	nt	tg	left	tg	ht	0.53758	nh/0228_nh.bmp	0.05	7.25
489.2	1.16988	8	116	mem	lib	low	low	mod	nt	nt	tg	tg	left	tg	fa	0.76988	wh/0317.bmp	0	7.25
493.52	0.98513	8	117	mem	lib	low	low	mod	nt	nt	nt	tg	right	nt	cr	0.58513	nh/0498_nh.bmp	0.05	7.3
497.12	0.91328	8	118	mem	lib	low	low	mod	nt	nt	tg	tg	left	tg	fa	0.51328	wh/0937.bmp	0	7.3
500	1.13487	8	119	mem	lib	low	low	mod	tg	tg	nt	tg	left	tg	ht	0.73487	nh/0829_nh.bmp	0.05	7.35
502.88	1.03053	8	120	mem	lib	low	low	mod	nt	nt	nt	tg	left	tg	fa	0.63053	nh/0595_nh.bmp	0	7.35
505.76	1.03128	8	121	mem	lib	low	low	mod	nt	nt	tg	tg	left	tg	fa	0.63128	wh/0052.bmp	0	7.35
510.08	1.4009	8	122	mem	lib	low	low	mod	tg	tg	tg	nt	right	tg	ht	1.0009	wh/0910.bmp	0.05	7.4
513.68	1.12288	8	123	mem	lib	low	low	mod	tg	tg	tg	nt	left	nt	ms	0.72288	wh/0406.bmp	-0.1	7.3
517.28	1.18188	8	124	mem	lib	low	low	mod	tg	tg	tg	tg	left	tg	ht	0.78188	wh/0009.bmp	0.05	7.35
520.16	0.88807	8	125	mem	lib	low	low	mod	nt	nt	tg	nt	right	tg	fa	0.48807	wh/0985.bmp	0	7.35
523.04	0.91499	8	126	mem	lib	low	low	mod	nt	nt	nt	nt	right	tg	fa	0.51499	nh/0826_nh.bmp	0	7.35
525.92	1.3429	8	127	mem	lib	low	low	mod	tg	tg	nt	tg	left	tg	ht	0.9429	nh/0449_nh.bmp	0.05	7.4
528.8	1.01383	8	128	mem	lib	low	low	mod	tg	tg	nt	nt	right	tg	ht	0.61383	nh/0885_nh.bmp	0.05	7.45
531.36	3.6	8	n/a	mem	lib	low	n/a	n/a	feedback	n/a	n/a	n/a	n/a	n/a	n/a	n/a	n/a	n/a	n/a
