onset	duration	trial	pres	ts_blk	ts_trl	task	crit	disc	mem_disc	per_disc	per_type	accuracy	stim_file
7.20	0.72	1	1	8	87	mem	con	mod	mod	low	tg	ms	wh/0401.bmp
7.92	0.72	2	1	6	57	mem	con	mod	mod	mod	nt	ms	nh/0337_nh.bmp
8.64	0.72	3	1	8	13	per	con	mod	mod	mod	nt	cr	nh/0590_nh.bmp
9.36	0.72	4	1	7	53	per	lib	low	mod	low	tg	ht	wh/0172.bmp
10.08	0.72	5	1	5	13	mem	con	mod	mod	low	tg	ms	wh/0073.bmp
10.80	0.72	6	1	8	1	per	con	mod	mod	mod	tg	ht	wh/0666.bmp
11.52	0.72	7	1	7	89	per	lib	mod	mod	mod	nt	cr	nh/0852_nh.bmp
12.24	0.72	8	1	5	26	per	con	mod	mod	mod	tg	ht	wh/0556.bmp
12.96	0.72	9	1	8	14	per	con	mod	mod	mod	tg	ht	wh/0638.bmp
13.68	0.72	10	1	8	41	mem	lib	mod	mod	low	tg	ht	wh/0253.bmp
14.40	0.72	11	1	5	32	per	con	mod	mod	mod	tg	ht	wh/0603.bmp
15.12	0.72	12	1	6	84	mem	lib	mod	mod	mod	tg	ht	wh/0871.bmp
15.84	0.72	13	1	8	81	mem	con	mod	mod	low	tg	ht	wh/0756.bmp
16.56	0.72	14	1	6	91	mem	lib	mod	mod	mod	nt	ms	nh/0495_nh.bmp
17.28	0.72	15	1	7	38	mem	con	mod	mod	mod	tg	ms	wh/0399.bmp
18.00	0.72	16	2	7	89	per	lib	mod	mod	mod	nt	cr	nh/0852_nh.bmp
18.72	0.72	17	3	7	89	per	lib	mod	mod	mod	nt	cr	nh/0852_nh.bmp
19.44	0.72	18	1	8	93	mem	con	mod	mod	low	nt	ms	nh/0176_nh.bmp
20.16	0.72	19	1	5	10	mem	con	mod	mod	low	nt	ms	nh/0241_nh.bmp
20.88	0.72	20	1	7	20	mem	lib	mod	mod	mod	nt	ht	nh/0888_nh.bmp
21.60	0.72	21	1	8	46	mem	lib	mod	mod	low	nt	ms	nh/0024_nh.bmp
22.32	0.72	22	2	6	57	mem	con	mod	mod	mod	nt	ms	nh/0337_nh.bmp
23.04	0.72	23	1	5	123	per	lib	low	mod	low	tg	ht	wh/0139.bmp
23.76	0.72	24	1	6	69	per	con	low	mod	low	tg	ms	wh/1019.bmp
24.48	0.72	25	2	8	81	mem	con	mod	mod	low	tg	ht	wh/0756.bmp
25.20	0.72	26	1	8	12	per	con	mod	mod	mod	nt	cr	nh/0915_nh.bmp
25.92	0.72	27	1	6	68	per	con	low	mod	low	tg	ms	wh/0170.bmp
26.64	0.72	28	3	6	57	mem	con	mod	mod	mod	nt	ms	nh/0337_nh.bmp
27.36	0.72	29	1	5	113	per	lib	low	mod	low	nt	cr	nh/0064_nh.bmp
28.08	0.72	30	1	7	81	per	lib	mod	mod	mod	nt	fa	nh/0586_nh.bmp
28.80	0.72	31	1	5	17	per	con	mod	mod	mod	nt	cr	nh/0020_nh.bmp
29.52	0.72	32	2	7	20	mem	lib	mod	mod	mod	nt	ht	nh/0888_nh.bmp
30.24	0.72	33	1	7	127	per	con	low	mod	low	tg	ms	wh/0143.bmp
30.96	0.72	34	1	7	25	mem	lib	mod	mod	mod	tg	ht	wh/0546.bmp
31.68	0.72	35	1	8	62	mem	con	low	low	low	tg	ht	wh/0482.bmp
32.40	0.72	36	1	7	85	per	lib	mod	mod	mod	nt	cr	nh/0832_nh.bmp
33.12	0.72	37	1	5	54	per	lib	mod	low	mod	nt	fa	nh/0234_nh.bmp
33.84	0.72	38	1	5	46	mem	lib	mod	mod	low	tg	ht	wh/0403.bmp
34.56	0.72	39	1	6	114	mem	lib	low	low	low	nt	ht	nh/0570_nh.bmp
35.28	0.72	40	1	7	16	per	con	mod	low	mod	tg	ms	wh/1016.bmp
36.00	0.72	41	1	7	87	per	lib	mod	mod	mod	tg	ht	wh/0552.bmp
36.72	0.72	42	1	8	95	mem	con	mod	mod	low	nt	ht	nh/0248_nh.bmp
37.44	0.72	43	1	5	128	per	lib	low	mod	low	tg	ht	wh/0254.bmp
38.16	0.72	44	2	5	32	per	con	mod	mod	mod	tg	ht	wh/0603.bmp
38.88	0.72	45	1	6	20	per	lib	mod	mod	mod	tg	ht	wh/0822.bmp
39.60	0.72	46	2	8	14	per	con	mod	mod	mod	tg	ht	wh/0638.bmp
40.32	0.72	47	1	7	62	per	lib	low	mod	low	tg	ht	wh/0450.bmp
41.04	0.72	48	1	7	60	per	lib	low	mod	low	nt	fa	nh/0255_nh.bmp
41.76	0.72	49	2	5	128	per	lib	low	mod	low	tg	ht	wh/0254.bmp
42.48	0.72	50	1	6	71	per	con	low	mod	low	nt	cr	nh/0023_nh.bmp
43.20	0.72	51	1	6	106	per	lib	low	low	low	tg	ht	wh/0859.bmp
43.92	0.72	52	1	7	26	mem	lib	mod	mod	mod	tg	ht	wh/0420.bmp
44.64	0.72	53	1	7	44	mem	con	mod	mod	mod	nt	ht	nh/0835_nh.bmp
45.36	0.72	54	1	8	55	mem	con	low	low	low	tg	ms	wh/1015.bmp
46.08	0.72	55	1	6	51	mem	con	mod	mod	mod	tg	ht	wh/0599.bmp
46.80	0.72	56	1	5	34	mem	lib	mod	mod	low	nt	ht	nh/0578_nh.bmp
47.52	0.72	57	2	6	84	mem	lib	mod	mod	mod	tg	ht	wh/0871.bmp
48.24	0.72	58	1	6	22	per	lib	mod	mod	mod	nt	fa	nh/0179_nh.bmp
48.96	0.72	59	1	6	52	mem	con	mod	mod	mod	tg	ht	wh/0408.bmp
49.68	0.72	60	2	6	52	mem	con	mod	mod	mod	tg	ht	wh/0408.bmp
50.40	0.72	61	1	6	67	per	con	low	mod	low	nt	cr	nh/0678_nh.bmp
51.12	0.72	62	4	7	89	per	lib	mod	mod	mod	nt	cr	nh/0852_nh.bmp
51.84	0.72	63	1	6	90	mem	lib	mod	mod	mod	tg	ht	wh/0609.bmp
52.56	0.72	64	1	6	81	mem	lib	mod	mod	mod	nt	ht	nh/0851_nh.bmp
53.28	0.72	65	2	6	67	per	con	low	mod	low	nt	cr	nh/0678_nh.bmp
54.00	0.72	66	1	6	61	mem	con	mod	mod	mod	nt	ms	nh/0995_nh.bmp
54.72	0.72	67	2	7	53	per	lib	low	mod	low	tg	ht	wh/0172.bmp
55.44	0.72	68	1	5	41	mem	lib	mod	mod	low	tg	ht	wh/0118.bmp
56.16	0.72	69	1	7	93	per	lib	mod	mod	mod	tg	ht	wh/0978.bmp
56.88	0.72	70	1	7	72	mem	con	low	low	mod	nt	ms	nh/1002_nh.bmp
57.60	0.72	71	1	6	18	per	lib	mod	mod	mod	nt	fa	nh/0056_nh.bmp
58.32	0.72	72	1	7	42	mem	con	mod	mod	mod	tg	ms	wh/0385.bmp
59.04	0.72	73	1	7	34	mem	con	mod	mod	mod	nt	ms	nh/0086_nh.bmp
59.76	0.72	74	1	8	90	mem	con	mod	mod	low	nt	ht	nh/0114_nh.bmp
60.48	0.72	75	2	8	95	mem	con	mod	mod	low	nt	ht	nh/0248_nh.bmp
61.20	0.72	76	1	6	11	per	con	mod	low	mod	nt	cr	nh/0869_nh.bmp
61.92	0.72	77	1	5	14	mem	con	mod	mod	low	nt	ht	nh/1004_nh.bmp
62.64	0.72	78	2	7	127	per	con	low	mod	low	tg	ms	wh/0143.bmp
63.36	0.72	79	1	8	73	per	lib	mod	low	mod	tg	ht	wh/0839.bmp
64.08	0.72	80	2	8	12	per	con	mod	mod	mod	nt	cr	nh/0915_nh.bmp
64.80	0.72	81	1	7	22	mem	lib	mod	mod	mod	tg	ht	wh/0686.bmp
65.52	0.72	82	1	8	22	per	con	low	low	low	nt	cr	nh/0041_nh.bmp
66.24	0.72	83	3	7	20	mem	lib	mod	mod	mod	nt	ht	nh/0888_nh.bmp
66.96	0.72	84	2	6	22	per	lib	mod	mod	mod	nt	fa	nh/0179_nh.bmp
67.68	0.72	85	1	8	114	per	lib	low	low	low	tg	ht	wh/0058.bmp
68.40	0.72	86	1	7	115	per	con	low	mod	low	nt	cr	nh/0247_nh.bmp
69.12	0.72	87	1	8	36	mem	lib	mod	mod	low	nt	ht	nh/0863_nh.bmp
69.84	0.72	88	1	8	84	mem	con	mod	mod	low	nt	ms	nh/0814_nh.bmp
70.56	0.72	89	2	7	85	per	lib	mod	mod	mod	nt	cr	nh/0832_nh.bmp
71.28	0.72	90	1	8	50	mem	con	low	low	low	nt	ms	nh/0468_nh.bmp
72.00	0.72	91	1	7	32	mem	lib	mod	mod	mod	nt	ht	nh/0060_nh.bmp
72.72	0.72	92	3	6	22	per	lib	mod	mod	mod	nt	fa	nh/0179_nh.bmp
73.44	0.72	93	1	8	74	per	lib	mod	low	mod	nt	fa	nh/0227_nh.bmp
74.16	0.72	94	1	5	125	per	lib	low	mod	low	nt	cr	nh/1014_nh.bmp
74.88	0.72	95	3	8	12	per	con	mod	mod	mod	nt	cr	nh/0915_nh.bmp
75.60	0.72	96	1	6	36	mem	con	low	low	low	nt	ht	nh/0260_nh.bmp
76.32	0.72	97	1	5	4	mem	con	mod	mod	low	nt	ht	nh/0574_nh.bmp
77.04	0.72	98	1	6	85	mem	lib	mod	mod	mod	nt	ms	nh/0715_nh.bmp
77.76	0.72	99	3	8	95	mem	con	mod	mod	low	nt	ht	nh/0248_nh.bmp
78.48	0.72	100	2	8	93	mem	con	mod	mod	low	nt	ms	nh/0176_nh.bmp
79.20	0.72	101	1	7	121	per	con	low	mod	low	nt	cr	nh/0164_nh.bmp
79.92	0.72	102	1	6	53	mem	con	mod	mod	mod	nt	ms	nh/0560_nh.bmp
80.64	0.72	103	1	5	24	per	con	mod	mod	mod	tg	ht	wh/0694.bmp
81.36	0.72	104	1	8	105	mem	lib	low	low	mod	nt	ht	nh/0732_nh.bmp
82.08	0.72	105	2	8	46	mem	lib	mod	mod	low	nt	ms	nh/0024_nh.bmp
82.80	0.72	106	1	5	28	per	con	mod	mod	mod	nt	cr	nh/0952_nh.bmp
83.52	0.72	107	1	6	124	mem	lib	low	low	low	tg	ht	wh/0063.bmp
84.24	0.72	108	1	7	94	per	lib	mod	mod	mod	tg	ht	wh/0544.bmp
84.96	0.72	109	1	8	61	mem	con	low	low	low	nt	ms	nh/0136_nh.bmp
85.68	0.72	110	1	8	48	mem	lib	mod	mod	low	tg	ht	wh/0157.bmp
86.40	0.72	111	1	7	63	per	lib	low	mod	low	tg	ht	wh/0388.bmp
87.12	0.72	112	1	5	31	per	con	mod	mod	mod	nt	cr	nh/0378_nh.bmp
87.84	0.72	113	3	7	127	per	con	low	mod	low	tg	ms	wh/0143.bmp
88.56	0.72	114	1	8	92	mem	con	mod	mod	low	tg	ht	wh/0453.bmp
89.28	0.72	115	1	7	99	mem	lib	low	low	low	tg	ht	wh/0636.bmp
90.00	0.72	116	1	5	93	mem	con	low	low	mod	nt	ms	nh/0180_nh.bmp
90.72	0.72	117	1	8	3	per	con	mod	mod	mod	tg	ht	wh/0275.bmp
91.44	0.72	118	1	7	116	per	con	low	mod	low	nt	fa	nh/0647_nh.bmp
92.16	0.72	119	2	7	94	per	lib	mod	mod	mod	tg	ht	wh/0544.bmp
92.88	0.72	120	2	8	41	mem	lib	mod	mod	low	tg	ht	wh/0253.bmp
93.60	0.72	121	1	5	2	mem	con	mod	mod	low	tg	ht	wh/0582.bmp
94.32	0.72	122	1	5	118	per	lib	low	mod	low	nt	fa	nh/0111_nh.bmp
95.04	0.72	123	1	7	55	per	lib	low	mod	low	nt	fa	nh/0848_nh.bmp
95.76	0.72	124	1	5	38	mem	lib	mod	mod	low	nt	ht	nh/0165_nh.bmp
96.48	0.72	125	1	6	24	per	lib	mod	mod	mod	nt	cr	nh/0629_nh.bmp
97.20	0.72	126	2	7	26	mem	lib	mod	mod	mod	tg	ht	wh/0420.bmp
97.92	0.72	127	2	8	3	per	con	mod	mod	mod	tg	ht	wh/0275.bmp
98.64	0.72	128	3	8	93	mem	con	mod	mod	low	nt	ms	nh/0176_nh.bmp
99.36	0.72	129	2	8	84	mem	con	mod	mod	low	nt	ms	nh/0814_nh.bmp
100.08	0.72	130	2	7	22	mem	lib	mod	mod	mod	tg	ht	wh/0686.bmp
100.80	0.72	131	2	5	10	mem	con	mod	mod	low	nt	ms	nh/0241_nh.bmp
101.52	0.72	132	1	6	26	per	lib	mod	mod	mod	tg	ht	wh/0436.bmp
102.24	0.72	133	1	6	28	per	lib	mod	mod	mod	nt	cr	nh/0366_nh.bmp
102.96	0.72	134	1	6	54	mem	con	mod	mod	mod	nt	ms	nh/0623_nh.bmp
103.68	0.72	135	2	5	26	per	con	mod	mod	mod	tg	ht	wh/0556.bmp
104.40	0.72	136	1	6	72	per	con	low	mod	low	nt	cr	nh/0018_nh.bmp
105.12	0.72	137	1	7	47	mem	con	mod	mod	mod	nt	ht	nh/0318_nh.bmp
105.84	0.72	138	1	8	24	per	con	low	low	low	nt	cr	nh/0830_nh.bmp
106.56	0.72	139	1	6	58	mem	con	mod	mod	mod	tg	ht	wh/0833.bmp
107.28	0.72	140	2	8	1	per	con	mod	mod	mod	tg	ht	wh/0666.bmp
108.00	0.72	141	1	6	65	per	con	low	mod	low	tg	ht	wh/0892.bmp
108.72	0.72	142	2	6	28	per	lib	mod	mod	mod	nt	cr	nh/0366_nh.bmp
109.44	0.72	143	1	6	103	per	lib	low	low	low	nt	cr	nh/0825_nh.bmp
110.16	0.72	144	1	5	44	mem	lib	mod	mod	low	tg	ht	wh/0793.bmp
110.88	0.72	145	1	5	121	per	lib	low	mod	low	tg	ht	wh/0012.bmp
111.60	0.72	146	2	5	118	per	lib	low	mod	low	nt	fa	nh/0111_nh.bmp
112.32	0.72	147	2	7	87	per	lib	mod	mod	mod	tg	ht	wh/0552.bmp
113.04	0.72	148	2	6	65	per	con	low	mod	low	tg	ht	wh/0892.bmp
113.76	0.72	149	1	5	114	per	lib	low	mod	low	nt	fa	nh/0640_nh.bmp
114.48	0.72	150	2	8	36	mem	lib	mod	mod	low	nt	ht	nh/0863_nh.bmp
115.20	0.72	151	3	5	26	per	con	mod	mod	mod	tg	ht	wh/0556.bmp
115.92	0.72	152	1	5	99	per	con	low	low	low	tg	ms	wh/0240.bmp
116.64	0.72	153	1	7	59	per	lib	low	mod	low	nt	fa	nh/0042_nh.bmp
117.36	0.72	154	2	5	46	mem	lib	mod	mod	low	tg	ht	wh/0403.bmp
118.08	0.72	155	2	6	58	mem	con	mod	mod	mod	tg	ht	wh/0833.bmp
118.80	0.72	156	2	5	2	mem	con	mod	mod	low	tg	ht	wh/0582.bmp
119.52	0.72	157	1	5	115	per	lib	low	mod	low	tg	ht	wh/0780.bmp
120.24	0.72	158	3	8	1	per	con	mod	mod	mod	tg	ht	wh/0666.bmp
120.96	0.72	159	2	7	55	per	lib	low	mod	low	nt	fa	nh/0848_nh.bmp
121.68	0.72	160	1	7	39	mem	con	mod	mod	mod	tg	ht	wh/0778.bmp
122.40	0.72	161	3	5	118	per	lib	low	mod	low	nt	fa	nh/0111_nh.bmp
123.12	0.72	162	1	8	8	per	con	mod	mod	mod	tg	ht	wh/0821.bmp
123.84	0.72	163	2	5	38	mem	lib	mod	mod	low	nt	ht	nh/0165_nh.bmp
124.56	0.72	164	2	6	81	mem	lib	mod	mod	mod	nt	ht	nh/0851_nh.bmp
125.28	0.72	165	1	7	28	mem	lib	mod	mod	mod	nt	ht	nh/0441_nh.bmp
126.00	0.72	166	1	5	51	per	lib	mod	low	mod	nt	fa	nh/0625_nh.bmp
126.72	0.72	167	3	8	46	mem	lib	mod	mod	low	nt	ms	nh/0024_nh.bmp
127.44	0.72	168	3	8	84	mem	con	mod	mod	low	nt	ms	nh/0814_nh.bmp
128.16	0.72	169	3	5	2	mem	con	mod	mod	low	tg	ht	wh/0582.bmp
128.88	0.72	170	2	7	32	mem	lib	mod	mod	mod	nt	ht	nh/0060_nh.bmp
129.60	0.72	171	2	6	69	per	con	low	mod	low	tg	ms	wh/1019.bmp
130.32	0.72	172	2	6	72	per	con	low	mod	low	nt	cr	nh/0018_nh.bmp
131.04	0.72	173	3	8	41	mem	lib	mod	mod	low	tg	ht	wh/0253.bmp
131.76	0.72	174	1	6	99	per	lib	low	low	low	nt	fa	nh/0175_nh.bmp
132.48	0.72	175	2	7	34	mem	con	mod	mod	mod	nt	ms	nh/0086_nh.bmp
133.20	0.72	176	2	6	18	per	lib	mod	mod	mod	nt	fa	nh/0056_nh.bmp
133.92	0.72	177	2	7	42	mem	con	mod	mod	mod	tg	ms	wh/0385.bmp
134.64	0.72	178	3	6	52	mem	con	mod	mod	mod	tg	ht	wh/0408.bmp
135.36	0.72	179	2	7	39	mem	con	mod	mod	mod	tg	ht	wh/0778.bmp
136.08	0.72	180	3	6	81	mem	lib	mod	mod	mod	nt	ht	nh/0851_nh.bmp
136.80	0.72	181	4	7	127	per	con	low	mod	low	tg	ms	wh/0143.bmp
137.52	0.72	182	1	8	43	mem	lib	mod	mod	low	nt	ht	nh/0612_nh.bmp
138.24	0.72	183	1	5	6	mem	con	mod	mod	low	tg	ht	wh/0820.bmp
138.96	0.72	184	3	7	39	mem	con	mod	mod	mod	tg	ht	wh/0778.bmp
139.68	0.72	185	1	8	9	per	con	mod	mod	mod	nt	fa	nh/0968_nh.bmp
140.40	0.72	186	1	5	85	mem	con	low	low	mod	nt	ms	nh/0907_nh.bmp
141.12	0.72	187	1	6	128	mem	lib	low	low	low	tg	ht	wh/0244.bmp
141.84	0.72	188	1	7	54	per	lib	low	mod	low	nt	cr	nh/0939_nh.bmp
142.56	0.72	189	1	5	3	mem	con	mod	mod	low	tg	ht	wh/0491.bmp
143.28	0.72	190	5	7	127	per	con	low	mod	low	tg	ms	wh/0143.bmp
144.00	0.72	191	3	5	128	per	lib	low	mod	low	tg	ht	wh/0254.bmp
144.72	0.72	192	2	6	68	per	con	low	mod	low	tg	ms	wh/0170.bmp
145.44	0.72	193	1	7	58	per	lib	low	mod	low	tg	ht	wh/0521.bmp
146.16	0.72	194	2	5	115	per	lib	low	mod	low	tg	ht	wh/0780.bmp
146.88	0.72	195	2	5	34	mem	lib	mod	mod	low	nt	ht	nh/0578_nh.bmp
147.60	0.72	196	1	7	78	mem	con	low	low	mod	nt	ms	nh/0395_nh.bmp
148.32	0.72	197	1	8	47	mem	lib	mod	mod	low	tg	ht	wh/0297.bmp
149.04	0.72	198	2	5	13	mem	con	mod	mod	low	tg	ms	wh/0073.bmp
149.76	0.72	199	3	5	32	per	con	mod	mod	mod	tg	ht	wh/0603.bmp
150.48	0.72	200	2	8	9	per	con	mod	mod	mod	nt	fa	nh/0968_nh.bmp
151.20	0.72	201	2	5	114	per	lib	low	mod	low	nt	fa	nh/0640_nh.bmp
151.92	0.72	202	2	5	24	per	con	mod	mod	mod	tg	ht	wh/0694.bmp
152.64	0.72	203	3	7	32	mem	lib	mod	mod	mod	nt	ht	nh/0060_nh.bmp
153.36	0.72	204	4	6	22	per	lib	mod	mod	mod	nt	fa	nh/0179_nh.bmp
154.08	0.72	205	1	5	36	mem	lib	mod	mod	low	nt	ht	nh/0374_nh.bmp
154.80	0.72	206	1	6	74	per	con	low	mod	low	tg	ht	wh/0986.bmp
155.52	0.72	207	4	8	41	mem	lib	mod	mod	low	tg	ht	wh/0253.bmp
156.24	0.72	208	2	6	91	mem	lib	mod	mod	mod	nt	ms	nh/0495_nh.bmp
156.96	0.72	209	2	5	123	per	lib	low	mod	low	tg	ht	wh/0139.bmp
157.68	0.72	210	1	8	38	mem	lib	mod	mod	low	tg	ht	wh/0883.bmp
158.40	0.72	211	2	5	14	mem	con	mod	mod	low	nt	ht	nh/1004_nh.bmp
159.12	0.72	212	1	7	92	per	lib	mod	mod	mod	nt	cr	nh/0300_nh.bmp
159.84	0.72	213	3	5	115	per	lib	low	mod	low	tg	ht	wh/0780.bmp
160.56	0.72	214	1	6	16	per	con	mod	low	mod	tg	ms	wh/0418.bmp
161.28	0.72	215	2	5	28	per	con	mod	mod	mod	nt	cr	nh/0952_nh.bmp
162.00	0.72	216	2	7	116	per	con	low	mod	low	nt	fa	nh/0647_nh.bmp
162.72	0.72	217	2	7	38	mem	con	mod	mod	mod	tg	ms	wh/0399.bmp
163.44	0.72	218	1	5	45	mem	lib	mod	mod	low	tg	ht	wh/0746.bmp
164.16	0.72	219	2	5	17	per	con	mod	mod	mod	nt	cr	nh/0020_nh.bmp
164.88	0.72	220	4	8	84	mem	con	mod	mod	low	nt	ms	nh/0814_nh.bmp
165.60	0.72	221	3	7	55	per	lib	low	mod	low	nt	fa	nh/0848_nh.bmp
166.32	0.72	222	1	6	94	mem	lib	mod	mod	mod	nt	ht	nh/0764_nh.bmp
167.04	0.72	223	1	7	30	mem	lib	mod	mod	mod	nt	ht	nh/0294_nh.bmp
167.76	0.72	224	2	5	41	mem	lib	mod	mod	low	tg	ht	wh/0118.bmp
168.48	0.72	225	1	5	18	per	con	mod	mod	mod	nt	cr	nh/0717_nh.bmp
169.20	0.72	226	3	5	34	mem	lib	mod	mod	low	nt	ht	nh/0578_nh.bmp
169.92	0.72	227	4	8	12	per	con	mod	mod	mod	nt	cr	nh/0915_nh.bmp
170.64	0.72	228	3	8	81	mem	con	mod	mod	low	tg	ht	wh/0756.bmp
171.36	0.72	229	3	5	10	mem	con	mod	mod	low	nt	ms	nh/0241_nh.bmp
172.08	0.72	230	3	8	9	per	con	mod	mod	mod	nt	fa	nh/0968_nh.bmp
172.80	0.72	231	2	8	8	per	con	mod	mod	mod	tg	ht	wh/0821.bmp
173.52	0.72	232	1	5	12	mem	con	mod	mod	low	nt	ht	nh/0875_nh.bmp
174.24	0.72	233	1	5	22	per	con	mod	mod	mod	tg	ms	wh/0239.bmp
174.96	0.72	234	2	8	87	mem	con	mod	mod	low	tg	ms	wh/0401.bmp
175.68	0.72	235	1	7	76	mem	con	low	low	mod	tg	ms	wh/0221.bmp
176.40	0.72	236	1	8	104	mem	lib	low	low	mod	nt	ms	nh/0673_nh.bmp
177.12	0.72	237	1	6	32	per	lib	mod	mod	mod	tg	ht	wh/0971.bmp
177.84	0.72	238	2	7	121	per	con	low	mod	low	nt	cr	nh/0164_nh.bmp
178.56	0.72	239	1	8	68	per	lib	mod	low	mod	tg	ht	wh/0349.bmp
179.28	0.72	240	3	5	41	mem	lib	mod	mod	low	tg	ht	wh/0118.bmp
180.00	0.72	241	4	6	52	mem	con	mod	mod	mod	tg	ht	wh/0408.bmp
180.72	0.72	242	2	5	31	per	con	mod	mod	mod	nt	cr	nh/0378_nh.bmp
181.44	0.72	243	3	8	3	per	con	mod	mod	mod	tg	ht	wh/0275.bmp
182.16	0.72	244	1	6	88	mem	lib	mod	mod	mod	tg	ht	wh/0602.bmp
182.88	0.72	245	4	8	1	per	con	mod	mod	mod	tg	ht	wh/0666.bmp
183.60	0.72	246	1	6	76	per	con	low	mod	low	nt	cr	nh/0618_nh.bmp
184.32	0.72	247	5	8	41	mem	lib	mod	mod	low	tg	ht	wh/0253.bmp
185.04	0.72	248	1	6	108	per	lib	low	low	low	nt	fa	nh/0138_nh.bmp
185.76	0.72	249	3	5	17	per	con	mod	mod	mod	nt	cr	nh/0020_nh.bmp
186.48	0.72	250	3	7	53	per	lib	low	mod	low	tg	ht	wh/0172.bmp
187.20	0.72	251	4	5	26	per	con	mod	mod	mod	tg	ht	wh/0556.bmp
187.92	0.72	252	1	7	40	mem	con	mod	mod	mod	nt	ms	nh/0564_nh.bmp
188.64	0.72	253	2	7	47	mem	con	mod	mod	mod	nt	ht	nh/0318_nh.bmp
189.36	0.72	254	1	7	128	per	con	low	mod	low	nt	cr	nh/0734_nh.bmp
190.08	0.72	255	2	7	81	per	lib	mod	mod	mod	nt	fa	nh/0586_nh.bmp
190.80	0.72	256	1	5	86	mem	con	low	low	mod	tg	ms	wh/0948.bmp
191.52	0.72	257	3	7	47	mem	con	mod	mod	mod	nt	ht	nh/0318_nh.bmp
192.24	0.72	258	2	5	4	mem	con	mod	mod	low	nt	ht	nh/0574_nh.bmp
192.96	0.72	259	2	7	25	mem	lib	mod	mod	mod	tg	ht	wh/0546.bmp
193.68	0.72	260	2	7	59	per	lib	low	mod	low	nt	fa	nh/0042_nh.bmp
194.40	0.72	261	1	6	95	mem	lib	mod	mod	mod	tg	ht	wh/0269.bmp
195.12	0.72	262	1	8	109	mem	lib	low	low	mod	tg	ht	wh/0342.bmp
195.84	0.72	263	2	6	88	mem	lib	mod	mod	mod	tg	ht	wh/0602.bmp
196.56	0.72	264	1	6	112	per	lib	low	low	low	tg	ht	wh/0360.bmp
197.28	0.72	265	1	5	84	mem	con	low	low	mod	tg	ms	wh/0016.bmp
198.00	0.72	266	2	5	121	per	lib	low	mod	low	tg	ht	wh/0012.bmp
198.72	0.72	267	1	8	60	mem	con	low	low	low	tg	ms	wh/0154.bmp
199.44	0.72	268	3	5	4	mem	con	mod	mod	low	nt	ht	nh/0574_nh.bmp
200.16	0.72	269	2	8	47	mem	lib	mod	mod	low	tg	ht	wh/0297.bmp
200.88	0.72	270	1	7	75	mem	con	low	low	mod	tg	ms	wh/0867.bmp
201.60	0.72	271	3	7	38	mem	con	mod	mod	mod	tg	ms	wh/0399.bmp
202.32	0.72	272	4	7	38	mem	con	mod	mod	mod	tg	ms	wh/0399.bmp
203.04	0.72	273	2	8	13	per	con	mod	mod	mod	nt	cr	nh/0590_nh.bmp
203.76	0.72	274	2	6	32	per	lib	mod	mod	mod	tg	ht	wh/0971.bmp
204.48	0.72	275	1	7	124	per	con	low	mod	low	tg	ht	wh/0262.bmp
205.20	0.72	276	2	8	43	mem	lib	mod	mod	low	nt	ht	nh/0612_nh.bmp
205.92	0.72	277	1	6	12	per	con	mod	low	mod	tg	ht	wh/0951.bmp
206.64	0.72	278	2	7	115	per	con	low	mod	low	nt	cr	nh/0247_nh.bmp
207.36	0.72	279	1	7	43	mem	con	mod	mod	mod	tg	ht	wh/0735.bmp
208.08	0.72	280	4	6	57	mem	con	mod	mod	mod	nt	ms	nh/0337_nh.bmp
208.80	0.72	281	2	6	61	mem	con	mod	mod	mod	nt	ms	nh/0995_nh.bmp
209.52	0.72	282	2	5	113	per	lib	low	mod	low	nt	cr	nh/0064_nh.bmp
210.24	0.72	283	2	8	38	mem	lib	mod	mod	low	tg	ht	wh/0883.bmp
210.96	0.72	284	3	5	28	per	con	mod	mod	mod	nt	cr	nh/0952_nh.bmp
211.68	0.72	285	2	7	30	mem	lib	mod	mod	mod	nt	ht	nh/0294_nh.bmp
212.40	0.72	286	3	7	94	per	lib	mod	mod	mod	tg	ht	wh/0544.bmp
213.12	0.72	287	1	5	56	per	lib	mod	low	mod	tg	ht	wh/0475.bmp
213.84	0.72	288	1	8	125	per	lib	low	low	low	nt	fa	nh/0587_nh.bmp
214.56	0.72	289	3	8	47	mem	lib	mod	mod	low	tg	ht	wh/0297.bmp
215.28	0.72	290	2	5	125	per	lib	low	mod	low	nt	cr	nh/1014_nh.bmp
216.00	0.72	291	3	6	58	mem	con	mod	mod	mod	tg	ht	wh/0833.bmp
216.72	0.72	292	2	7	92	per	lib	mod	mod	mod	nt	cr	nh/0300_nh.bmp
217.44	0.72	293	1	8	33	mem	lib	mod	mod	low	nt	ht	nh/0519_nh.bmp
218.16	0.72	294	3	7	22	mem	lib	mod	mod	mod	tg	ht	wh/0686.bmp
218.88	0.72	295	2	7	28	mem	lib	mod	mod	mod	nt	ht	nh/0441_nh.bmp
219.60	0.72	296	3	6	18	per	lib	mod	mod	mod	nt	fa	nh/0056_nh.bmp
220.32	0.72	297	4	6	18	per	lib	mod	mod	mod	nt	fa	nh/0056_nh.bmp
221.04	0.72	298	3	5	114	per	lib	low	mod	low	nt	fa	nh/0640_nh.bmp
221.76	0.72	299	3	7	92	per	lib	mod	mod	mod	nt	cr	nh/0300_nh.bmp
222.48	0.72	300	1	6	60	mem	con	mod	mod	mod	tg	ms	wh/0797.bmp
223.20	0.72	301	4	5	32	per	con	mod	mod	mod	tg	ht	wh/0603.bmp
223.92	0.72	302	3	7	85	per	lib	mod	mod	mod	nt	cr	nh/0832_nh.bmp
224.64	0.72	303	2	5	6	mem	con	mod	mod	low	tg	ht	wh/0820.bmp
225.36	0.72	304	2	7	124	per	con	low	mod	low	tg	ht	wh/0262.bmp
226.08	0.72	305	1	5	109	per	con	low	low	low	nt	cr	nh/0639_nh.bmp
226.80	0.72	306	1	7	111	mem	lib	low	low	low	nt	ht	nh/0043_nh.bmp
227.52	0.72	307	4	7	20	mem	lib	mod	mod	mod	nt	ht	nh/0888_nh.bmp
228.24	0.72	308	1	5	98	per	con	low	low	low	tg	ms	wh/0770.bmp
228.96	0.72	309	3	8	14	per	con	mod	mod	mod	tg	ht	wh/0638.bmp
229.68	0.72	310	2	7	128	per	con	low	mod	low	nt	cr	nh/0734_nh.bmp
230.40	0.72	311	4	5	128	per	lib	low	mod	low	tg	ht	wh/0254.bmp
231.12	0.72	312	3	7	116	per	con	low	mod	low	nt	fa	nh/0647_nh.bmp
231.84	0.72	313	2	7	60	per	lib	low	mod	low	nt	fa	nh/0255_nh.bmp
232.56	0.72	314	3	7	121	per	con	low	mod	low	nt	cr	nh/0164_nh.bmp
233.28	0.72	315	3	6	84	mem	lib	mod	mod	mod	tg	ht	wh/0871.bmp
234.00	0.72	316	1	7	125	per	con	low	mod	low	tg	ms	wh/0108.bmp
234.72	0.72	317	1	6	19	per	lib	mod	mod	mod	tg	ht	wh/0549.bmp
235.44	0.72	318	3	5	125	per	lib	low	mod	low	nt	cr	nh/1014_nh.bmp
236.16	0.72	319	4	6	58	mem	con	mod	mod	mod	tg	ht	wh/0833.bmp
236.88	0.72	320	2	8	90	mem	con	mod	mod	low	nt	ht	nh/0114_nh.bmp
237.60	0.72	321	1	8	71	per	lib	mod	low	mod	nt	fa	nh/0347_nh.bmp
238.32	0.72	322	4	5	28	per	con	mod	mod	mod	nt	cr	nh/0952_nh.bmp
239.04	0.72	323	1	7	70	mem	con	low	low	mod	nt	ms	nh/0381_nh.bmp
239.76	0.72	324	2	5	3	mem	con	mod	mod	low	tg	ht	wh/0491.bmp
240.48	0.72	325	2	6	20	per	lib	mod	mod	mod	tg	ht	wh/0822.bmp
241.20	0.72	326	2	5	22	per	con	mod	mod	mod	tg	ms	wh/0239.bmp
241.92	0.72	327	4	8	81	mem	con	mod	mod	low	tg	ht	wh/0756.bmp
242.64	0.72	328	1	7	7	per	con	mod	low	mod	tg	ht	wh/0622.bmp
243.36	0.72	329	4	7	55	per	lib	low	mod	low	nt	fa	nh/0848_nh.bmp
244.08	0.72	330	2	6	53	mem	con	mod	mod	mod	nt	ms	nh/0560_nh.bmp
244.80	0.72	331	3	5	123	per	lib	low	mod	low	tg	ht	wh/0139.bmp
245.52	0.72	332	4	7	116	per	con	low	mod	low	nt	fa	nh/0647_nh.bmp
246.24	0.72	333	1	7	119	per	con	low	mod	low	tg	ms	wh/0249.bmp
246.96	0.72	334	1	8	108	mem	lib	low	low	mod	nt	ms	nh/0663_nh.bmp
247.68	0.72	335	3	8	43	mem	lib	mod	mod	low	nt	ht	nh/0612_nh.bmp
248.40	0.72	336	2	5	18	per	con	mod	mod	mod	nt	cr	nh/0717_nh.bmp
249.12	0.72	337	4	5	125	per	lib	low	mod	low	nt	cr	nh/1014_nh.bmp
249.84	0.72	338	1	5	102	per	con	low	low	low	tg	ht	wh/0224.bmp
250.56	0.72	339	5	5	32	per	con	mod	mod	mod	tg	ht	wh/0603.bmp
251.28	0.72	340	4	7	121	per	con	low	mod	low	nt	cr	nh/0164_nh.bmp
252.00	0.72	341	3	8	13	per	con	mod	mod	mod	nt	cr	nh/0590_nh.bmp
252.72	0.72	342	3	5	113	per	lib	low	mod	low	nt	cr	nh/0064_nh.bmp
253.44	0.72	343	2	5	45	mem	lib	mod	mod	low	tg	ht	wh/0746.bmp
254.16	0.72	344	1	8	127	per	lib	low	low	low	tg	ht	wh/1011.bmp
254.88	0.72	345	3	7	124	per	con	low	mod	low	tg	ht	wh/0262.bmp
255.60	0.72	346	1	5	35	mem	lib	mod	mod	low	nt	ht	nh/0193_nh.bmp
256.32	0.72	347	4	5	41	mem	lib	mod	mod	low	tg	ht	wh/0118.bmp
257.04	0.72	348	5	6	58	mem	con	mod	mod	mod	tg	ht	wh/0833.bmp
257.76	0.72	349	3	8	87	mem	con	mod	mod	low	tg	ms	wh/0401.bmp
258.48	0.72	350	4	8	43	mem	lib	mod	mod	low	nt	ht	nh/0612_nh.bmp
259.20	0.72	351	5	6	52	mem	con	mod	mod	mod	tg	ht	wh/0408.bmp
259.92	0.72	352	2	6	24	per	lib	mod	mod	mod	nt	cr	nh/0629_nh.bmp
260.64	0.72	353	2	6	19	per	lib	mod	mod	mod	tg	ht	wh/0549.bmp
261.36	0.72	354	1	5	106	per	con	low	low	low	nt	cr	nh/0219_nh.bmp
262.08	0.72	355	3	5	13	mem	con	mod	mod	low	tg	ms	wh/0073.bmp
262.80	0.72	356	2	5	35	mem	lib	mod	mod	low	nt	ht	nh/0193_nh.bmp
263.52	0.72	357	2	6	51	mem	con	mod	mod	mod	tg	ht	wh/0599.bmp
264.24	0.72	358	2	6	90	mem	lib	mod	mod	mod	tg	ht	wh/0609.bmp
264.96	0.72	359	3	6	67	per	con	low	mod	low	nt	cr	nh/0678_nh.bmp
265.68	0.72	360	3	5	18	per	con	mod	mod	mod	nt	cr	nh/0717_nh.bmp
266.40	0.72	361	4	5	10	mem	con	mod	mod	low	nt	ms	nh/0241_nh.bmp
267.12	0.72	362	4	7	39	mem	con	mod	mod	mod	tg	ht	wh/0778.bmp
267.84	0.72	363	2	7	119	per	con	low	mod	low	tg	ms	wh/0249.bmp
268.56	0.72	364	3	7	25	mem	lib	mod	mod	mod	tg	ht	wh/0546.bmp
269.28	0.72	365	3	6	51	mem	con	mod	mod	mod	tg	ht	wh/0599.bmp
270.00	0.72	366	3	8	38	mem	lib	mod	mod	low	tg	ht	wh/0883.bmp
270.72	0.72	367	5	5	26	per	con	mod	mod	mod	tg	ht	wh/0556.bmp
271.44	0.72	368	1	5	70	mem	lib	low	low	mod	tg	ht	wh/0631.bmp
272.16	0.72	369	2	5	12	mem	con	mod	mod	low	nt	ht	nh/0875_nh.bmp
272.88	0.72	370	3	7	30	mem	lib	mod	mod	mod	nt	ht	nh/0294_nh.bmp
273.60	0.72	371	2	8	33	mem	lib	mod	mod	low	nt	ht	nh/0519_nh.bmp
274.32	0.72	372	5	6	22	per	lib	mod	mod	mod	nt	fa	nh/0179_nh.bmp
275.04	0.72	373	1	7	112	mem	lib	low	low	low	tg	ht	wh/0518.bmp
275.76	0.72	374	5	8	43	mem	lib	mod	mod	low	nt	ht	nh/0612_nh.bmp
276.48	0.72	375	2	6	85	mem	lib	mod	mod	mod	nt	ms	nh/0715_nh.bmp
277.20	0.72	376	2	5	36	mem	lib	mod	mod	low	nt	ht	nh/0374_nh.bmp
277.92	0.72	377	1	5	58	per	lib	mod	low	mod	tg	ht	wh/1005.bmp
278.64	0.72	378	5	7	121	per	con	low	mod	low	nt	cr	nh/0164_nh.bmp
279.36	0.72	379	3	7	59	per	lib	low	mod	low	nt	fa	nh/0042_nh.bmp
280.08	0.72	380	4	8	13	per	con	mod	mod	mod	nt	cr	nh/0590_nh.bmp
280.80	0.72	381	2	7	43	mem	con	mod	mod	mod	tg	ht	wh/0735.bmp
281.52	0.72	382	3	5	121	per	lib	low	mod	low	tg	ht	wh/0012.bmp
282.24	0.72	383	3	7	34	mem	con	mod	mod	mod	nt	ms	nh/0086_nh.bmp
282.96	0.72	384	2	7	125	per	con	low	mod	low	tg	ms	wh/0108.bmp
283.68	0.72	385	3	7	42	mem	con	mod	mod	mod	tg	ms	wh/0385.bmp
284.40	0.72	386	1	8	31	per	con	low	low	low	tg	ms	wh/0610.bmp
285.12	0.72	387	2	6	95	mem	lib	mod	mod	mod	tg	ht	wh/0269.bmp
285.84	0.72	388	3	5	35	mem	lib	mod	mod	low	nt	ht	nh/0193_nh.bmp
286.56	0.72	389	5	7	38	mem	con	mod	mod	mod	tg	ms	wh/0399.bmp
287.28	0.72	390	3	7	26	mem	lib	mod	mod	mod	tg	ht	wh/0420.bmp
288.00	0.72	391	1	6	117	mem	lib	low	low	low	nt	ht	nh/0880_nh.bmp
288.72	0.72	392	6	7	121	per	con	low	mod	low	nt	cr	nh/0164_nh.bmp
289.44	0.72	393	3	7	43	mem	con	mod	mod	mod	tg	ht	wh/0735.bmp
290.16	0.72	394	3	6	72	per	con	low	mod	low	nt	cr	nh/0018_nh.bmp
290.88	0.72	395	4	7	124	per	con	low	mod	low	tg	ht	wh/0262.bmp
291.60	0.72	396	2	6	71	per	con	low	mod	low	nt	cr	nh/0023_nh.bmp
292.32	0.72	397	5	8	84	mem	con	mod	mod	low	nt	ms	nh/0814_nh.bmp
293.04	0.72	398	3	5	12	mem	con	mod	mod	low	nt	ht	nh/0875_nh.bmp
293.76	0.72	399	3	6	53	mem	con	mod	mod	mod	nt	ms	nh/0560_nh.bmp
294.48	0.72	400	4	7	25	mem	lib	mod	mod	mod	tg	ht	wh/0546.bmp
295.20	0.72	401	6	6	58	mem	con	mod	mod	mod	tg	ht	wh/0833.bmp
295.92	0.72	402	1	7	24	mem	lib	mod	mod	mod	tg	ht	wh/0958.bmp
296.64	0.72	403	5	5	28	per	con	mod	mod	mod	nt	cr	nh/0952_nh.bmp
297.36	0.72	404	2	7	58	per	lib	low	mod	low	tg	ht	wh/0521.bmp
298.08	0.72	405	2	7	40	mem	con	mod	mod	mod	nt	ms	nh/0564_nh.bmp
298.80	0.72	406	3	6	85	mem	lib	mod	mod	mod	nt	ms	nh/0715_nh.bmp
299.52	0.72	407	3	5	45	mem	lib	mod	mod	low	tg	ht	wh/0746.bmp
300.24	0.72	408	4	8	38	mem	lib	mod	mod	low	tg	ht	wh/0883.bmp
300.96	0.72	409	4	6	53	mem	con	mod	mod	mod	nt	ms	nh/0560_nh.bmp
301.68	0.72	410	4	8	87	mem	con	mod	mod	low	tg	ms	wh/0401.bmp
302.40	0.72	411	5	6	57	mem	con	mod	mod	mod	nt	ms	nh/0337_nh.bmp
303.12	0.72	412	3	8	36	mem	lib	mod	mod	low	nt	ht	nh/0863_nh.bmp
303.84	0.72	413	4	7	26	mem	lib	mod	mod	mod	tg	ht	wh/0420.bmp
304.56	0.72	414	1	7	6	per	con	mod	low	mod	tg	ms	wh/0402.bmp
305.28	0.72	415	4	7	22	mem	lib	mod	mod	mod	tg	ht	wh/0686.bmp
306.00	0.72	416	6	7	127	per	con	low	mod	low	tg	ms	wh/0143.bmp
306.72	0.72	417	4	5	4	mem	con	mod	mod	low	nt	ht	nh/0574_nh.bmp
307.44	0.72	418	1	8	30	per	con	low	low	low	tg	ht	wh/0990.bmp
308.16	0.72	419	1	6	101	per	lib	low	low	low	tg	ht	wh/0676.bmp
308.88	0.72	420	3	6	61	mem	con	mod	mod	mod	nt	ms	nh/0995_nh.bmp
309.60	0.72	421	2	8	92	mem	con	mod	mod	low	tg	ht	wh/0453.bmp
310.32	0.72	422	1	8	118	per	lib	low	low	low	tg	ht	wh/0202.bmp
311.04	0.72	423	2	6	76	per	con	low	mod	low	nt	cr	nh/0618_nh.bmp
311.76	0.72	424	5	8	1	per	con	mod	mod	mod	tg	ht	wh/0666.bmp
312.48	0.72	425	1	6	97	per	lib	low	low	low	nt	cr	nh/0677_nh.bmp
313.20	0.72	426	3	6	71	per	con	low	mod	low	nt	cr	nh/0023_nh.bmp
313.92	0.72	427	6	8	1	per	con	mod	mod	mod	tg	ht	wh/0666.bmp
314.64	0.72	428	1	8	82	mem	con	mod	mod	low	tg	ms	wh/0394.bmp
315.36	0.72	429	3	5	6	mem	con	mod	mod	low	tg	ht	wh/0820.bmp
316.08	0.72	430	3	5	22	per	con	mod	mod	mod	tg	ms	wh/0239.bmp
316.80	0.72	431	1	6	47	mem	con	low	low	low	nt	ms	nh/0268_nh.bmp
317.52	0.72	432	5	5	10	mem	con	mod	mod	low	nt	ms	nh/0241_nh.bmp
318.24	0.72	433	3	8	92	mem	con	mod	mod	low	tg	ht	wh/0453.bmp
318.96	0.72	434	2	8	48	mem	lib	mod	mod	low	tg	ht	wh/0157.bmp
319.68	0.72	435	4	7	43	mem	con	mod	mod	mod	tg	ht	wh/0735.bmp
320.40	0.72	436	4	8	3	per	con	mod	mod	mod	tg	ht	wh/0275.bmp
321.12	0.72	437	4	7	53	per	lib	low	mod	low	tg	ht	wh/0172.bmp
321.84	0.72	438	3	7	125	per	con	low	mod	low	tg	ms	wh/0108.bmp
322.56	0.72	439	3	8	33	mem	lib	mod	mod	low	nt	ht	nh/0519_nh.bmp
323.28	0.72	440	3	7	119	per	con	low	mod	low	tg	ms	wh/0249.bmp
324.00	0.72	441	3	5	46	mem	lib	mod	mod	low	tg	ht	wh/0403.bmp
324.72	0.72	442	4	7	42	mem	con	mod	mod	mod	tg	ms	wh/0385.bmp
325.44	0.72	443	1	8	124	per	lib	low	low	low	nt	cr	nh/0506_nh.bmp
326.16	0.72	444	2	7	54	per	lib	low	mod	low	nt	cr	nh/0939_nh.bmp
326.88	0.72	445	3	6	19	per	lib	mod	mod	mod	tg	ht	wh/0549.bmp
327.60	0.72	446	5	8	3	per	con	mod	mod	mod	tg	ht	wh/0275.bmp
328.32	0.72	447	4	8	33	mem	lib	mod	mod	low	nt	ht	nh/0519_nh.bmp
329.04	0.72	448	1	8	56	mem	con	low	low	low	tg	ms	wh/0258.bmp
329.76	0.72	449	2	5	44	mem	lib	mod	mod	low	tg	ht	wh/0793.bmp
330.48	0.72	450	3	6	65	per	con	low	mod	low	tg	ht	wh/0892.bmp
331.20	0.72	451	3	6	32	per	lib	mod	mod	mod	tg	ht	wh/0971.bmp
331.92	0.72	452	3	7	54	per	lib	low	mod	low	nt	cr	nh/0939_nh.bmp
332.64	0.72	453	1	7	102	mem	lib	low	low	low	nt	ms	nh/0994_nh.bmp
333.36	0.72	454	5	6	53	mem	con	mod	mod	mod	nt	ms	nh/0560_nh.bmp
334.08	0.72	455	1	8	65	per	lib	mod	low	mod	nt	cr	nh/0046_nh.bmp
334.80	0.72	456	2	8	82	mem	con	mod	mod	low	tg	ms	wh/0394.bmp
335.52	0.72	457	4	5	17	per	con	mod	mod	mod	nt	cr	nh/0020_nh.bmp
336.24	0.72	458	4	6	19	per	lib	mod	mod	mod	tg	ht	wh/0549.bmp
336.96	0.72	459	3	7	60	per	lib	low	mod	low	nt	fa	nh/0255_nh.bmp
337.68	0.72	460	4	6	61	mem	con	mod	mod	mod	nt	ms	nh/0995_nh.bmp
338.40	0.72	461	1	7	97	mem	lib	low	low	low	nt	ht	nh/0657_nh.bmp
339.12	0.72	462	4	5	35	mem	lib	mod	mod	low	nt	ht	nh/0193_nh.bmp
339.84	0.72	463	1	8	122	per	lib	low	low	low	nt	cr	nh/0089_nh.bmp
340.56	0.72	464	4	8	14	per	con	mod	mod	mod	tg	ht	wh/0638.bmp
341.28	0.72	465	4	5	13	mem	con	mod	mod	low	tg	ms	wh/0073.bmp
342.00	0.72	466	1	7	90	per	lib	mod	mod	mod	tg	ht	wh/0763.bmp
342.72	0.72	467	5	7	124	per	con	low	mod	low	tg	ht	wh/0262.bmp
343.44	0.72	468	3	6	20	per	lib	mod	mod	mod	tg	ht	wh/0822.bmp
344.16	0.72	469	4	5	115	per	lib	low	mod	low	tg	ht	wh/0780.bmp
344.88	0.72	470	6	7	38	mem	con	mod	mod	mod	tg	ms	wh/0399.bmp
345.60	0.72	471	5	8	13	per	con	mod	mod	mod	nt	cr	nh/0590_nh.bmp
346.32	0.72	472	4	7	85	per	lib	mod	mod	mod	nt	cr	nh/0832_nh.bmp
347.04	0.72	473	1	8	75	per	lib	mod	low	mod	nt	cr	nh/0921_nh.bmp
347.76	0.72	474	1	5	90	mem	con	low	low	mod	nt	ms	nh/0545_nh.bmp
348.48	0.72	475	1	8	5	per	con	mod	mod	mod	nt	cr	nh/0827_nh.bmp
349.20	0.72	476	2	6	26	per	lib	mod	mod	mod	tg	ht	wh/0436.bmp
349.92	0.72	477	2	6	94	mem	lib	mod	mod	mod	nt	ht	nh/0764_nh.bmp
350.64	0.72	478	4	5	34	mem	lib	mod	mod	low	nt	ht	nh/0578_nh.bmp
351.36	0.72	479	3	5	14	mem	con	mod	mod	low	nt	ht	nh/1004_nh.bmp
352.08	0.72	480	3	6	95	mem	lib	mod	mod	mod	tg	ht	wh/0269.bmp
352.80	0.72	481	5	7	53	per	lib	low	mod	low	tg	ht	wh/0172.bmp
353.52	0.72	482	3	8	8	per	con	mod	mod	mod	tg	ht	wh/0821.bmp
354.24	0.72	483	4	7	34	mem	con	mod	mod	mod	nt	ms	nh/0086_nh.bmp
354.96	0.72	484	3	8	90	mem	con	mod	mod	low	nt	ht	nh/0114_nh.bmp
355.68	0.72	485	4	5	46	mem	lib	mod	mod	low	tg	ht	wh/0403.bmp
356.40	0.72	486	4	8	36	mem	lib	mod	mod	low	nt	ht	nh/0863_nh.bmp
357.12	0.72	487	4	8	46	mem	lib	mod	mod	low	nt	ms	nh/0024_nh.bmp
357.84	0.72	488	3	6	94	mem	lib	mod	mod	mod	nt	ht	nh/0764_nh.bmp
358.56	0.72	489	2	7	93	per	lib	mod	mod	mod	tg	ht	wh/0978.bmp
359.28	0.72	490	4	5	12	mem	con	mod	mod	low	nt	ht	nh/0875_nh.bmp
360.00	0.72	491	5	5	128	per	lib	low	mod	low	tg	ht	wh/0254.bmp
360.72	0.72	492	1	5	79	mem	lib	low	low	mod	tg	ht	wh/0532.bmp
361.44	0.72	493	3	6	91	mem	lib	mod	mod	mod	nt	ms	nh/0495_nh.bmp
362.16	0.72	494	3	7	93	per	lib	mod	mod	mod	tg	ht	wh/0978.bmp
362.88	0.72	495	4	6	95	mem	lib	mod	mod	mod	tg	ht	wh/0269.bmp
363.60	0.72	496	1	7	12	per	con	mod	low	mod	nt	cr	nh/0945_nh.bmp
364.32	0.72	497	1	7	80	mem	con	low	low	mod	tg	ms	wh/0305.bmp
365.04	0.72	498	3	7	40	mem	con	mod	mod	mod	nt	ms	nh/0564_nh.bmp
365.76	0.72	499	1	7	67	mem	con	low	low	mod	tg	ms	wh/0372.bmp
366.48	0.72	500	5	5	115	per	lib	low	mod	low	tg	ht	wh/0780.bmp
367.20	0.72	501	4	7	94	per	lib	mod	mod	mod	tg	ht	wh/0544.bmp
367.92	0.72	502	3	6	76	per	con	low	mod	low	nt	cr	nh/0618_nh.bmp
368.64	0.72	503	3	6	26	per	lib	mod	mod	mod	tg	ht	wh/0436.bmp
369.36	0.72	504	3	7	58	per	lib	low	mod	low	tg	ht	wh/0521.bmp
370.08	0.72	505	2	6	74	per	con	low	mod	low	tg	ht	wh/0986.bmp
370.80	0.72	506	5	8	14	per	con	mod	mod	mod	tg	ht	wh/0638.bmp
371.52	0.72	507	4	6	72	per	con	low	mod	low	nt	cr	nh/0018_nh.bmp
372.24	0.72	508	1	8	119	per	lib	low	low	low	tg	ht	wh/0226.bmp
372.96	0.72	509	3	7	128	per	con	low	mod	low	nt	cr	nh/0734_nh.bmp
373.68	0.72	510	4	7	59	per	lib	low	mod	low	nt	fa	nh/0042_nh.bmp
374.40	0.72	511	4	6	67	per	con	low	mod	low	nt	cr	nh/0678_nh.bmp
375.12	0.72	512	4	6	85	mem	lib	mod	mod	mod	nt	ms	nh/0715_nh.bmp
375.84	0.72	513	4	6	81	mem	lib	mod	mod	mod	nt	ht	nh/0851_nh.bmp
376.56	0.72	514	5	7	116	per	con	low	mod	low	nt	fa	nh/0647_nh.bmp
377.28	0.72	515	3	5	3	mem	con	mod	mod	low	tg	ht	wh/0491.bmp
378.00	0.72	516	2	8	5	per	con	mod	mod	mod	nt	cr	nh/0827_nh.bmp
378.72	0.72	517	3	6	69	per	con	low	mod	low	tg	ms	wh/1019.bmp
379.44	0.72	518	4	8	90	mem	con	mod	mod	low	nt	ht	nh/0114_nh.bmp
380.16	0.72	519	2	7	44	mem	con	mod	mod	mod	nt	ht	nh/0835_nh.bmp
380.88	0.72	520	5	6	81	mem	lib	mod	mod	mod	nt	ht	nh/0851_nh.bmp
381.60	0.72	521	5	7	55	per	lib	low	mod	low	nt	fa	nh/0848_nh.bmp
382.32	0.72	522	1	5	63	per	lib	mod	low	mod	nt	fa	nh/0051_nh.bmp
383.04	0.72	523	4	5	118	per	lib	low	mod	low	nt	fa	nh/0111_nh.bmp
383.76	0.72	524	5	8	90	mem	con	mod	mod	low	nt	ht	nh/0114_nh.bmp
384.48	0.72	525	6	8	90	mem	con	mod	mod	low	nt	ht	nh/0114_nh.bmp
385.20	0.72	526	4	6	20	per	lib	mod	mod	mod	tg	ht	wh/0822.bmp
385.92	0.72	527	4	7	119	per	con	low	mod	low	tg	ms	wh/0249.bmp
386.64	0.72	528	6	5	28	per	con	mod	mod	mod	nt	cr	nh/0952_nh.bmp
387.36	0.72	529	5	7	26	mem	lib	mod	mod	mod	tg	ht	wh/0420.bmp
388.08	0.72	530	3	6	68	per	con	low	mod	low	tg	ms	wh/0170.bmp
388.80	0.72	531	3	8	5	per	con	mod	mod	mod	nt	cr	nh/0827_nh.bmp
389.52	0.72	532	2	7	62	per	lib	low	mod	low	tg	ht	wh/0450.bmp
390.24	0.72	533	4	8	93	mem	con	mod	mod	low	nt	ms	nh/0176_nh.bmp
390.96	0.72	534	4	5	6	mem	con	mod	mod	low	tg	ht	wh/0820.bmp
391.68	0.72	535	1	7	4	per	con	mod	low	mod	nt	cr	nh/0373_nh.bmp
392.40	0.72	536	5	8	46	mem	lib	mod	mod	low	nt	ms	nh/0024_nh.bmp
393.12	0.72	537	3	7	44	mem	con	mod	mod	mod	nt	ht	nh/0835_nh.bmp
393.84	0.72	538	5	5	41	mem	lib	mod	mod	low	tg	ht	wh/0118.bmp
394.56	0.72	539	3	6	88	mem	lib	mod	mod	mod	tg	ht	wh/0602.bmp
395.28	0.72	540	4	6	91	mem	lib	mod	mod	mod	nt	ms	nh/0495_nh.bmp
396.00	0.72	541	3	8	48	mem	lib	mod	mod	low	tg	ht	wh/0157.bmp
396.72	0.72	542	2	6	54	mem	con	mod	mod	mod	nt	ms	nh/0623_nh.bmp
397.44	0.72	543	6	6	57	mem	con	mod	mod	mod	nt	ms	nh/0337_nh.bmp
398.16	0.72	544	4	6	26	per	lib	mod	mod	mod	tg	ht	wh/0436.bmp
398.88	0.72	545	1	6	15	per	con	mod	low	mod	nt	cr	nh/0308_nh.bmp
399.60	0.72	546	3	5	24	per	con	mod	mod	mod	tg	ht	wh/0694.bmp
400.32	0.72	547	4	8	5	per	con	mod	mod	mod	nt	cr	nh/0827_nh.bmp
401.04	0.72	548	1	6	121	mem	lib	low	low	low	nt	ht	nh/0280_nh.bmp
401.76	0.72	549	1	6	39	mem	con	low	low	low	nt	ms	nh/0566_nh.bmp
402.48	0.72	550	1	8	99	mem	lib	low	low	mod	tg	ht	wh/0084.bmp
403.20	0.72	551	1	7	105	mem	lib	low	low	low	nt	ht	nh/0034_nh.bmp
403.92	0.72	552	1	7	66	mem	con	low	low	mod	nt	ms	nh/0982_nh.bmp
404.64	0.72	553	3	6	54	mem	con	mod	mod	mod	nt	ms	nh/0623_nh.bmp
405.36	0.72	554	4	7	92	per	lib	mod	mod	mod	nt	cr	nh/0300_nh.bmp
406.08	0.72	555	1	8	28	per	con	low	low	low	nt	cr	nh/0198_nh.bmp
406.80	0.72	556	5	5	4	mem	con	mod	mod	low	nt	ht	nh/0574_nh.bmp
407.52	0.72	557	3	7	62	per	lib	low	mod	low	tg	ht	wh/0450.bmp
408.24	0.72	558	4	7	58	per	lib	low	mod	low	tg	ht	wh/0521.bmp
408.96	0.72	559	4	8	92	mem	con	mod	mod	low	tg	ht	wh/0453.bmp
409.68	0.72	560	3	7	87	per	lib	mod	mod	mod	tg	ht	wh/0552.bmp
410.40	0.72	561	4	5	113	per	lib	low	mod	low	nt	cr	nh/0064_nh.bmp
411.12	0.72	562	4	6	76	per	con	low	mod	low	nt	cr	nh/0618_nh.bmp
411.84	0.72	563	5	7	25	mem	lib	mod	mod	mod	tg	ht	wh/0546.bmp
412.56	0.72	564	4	5	114	per	lib	low	mod	low	nt	fa	nh/0640_nh.bmp
413.28	0.72	565	2	7	24	mem	lib	mod	mod	mod	tg	ht	wh/0958.bmp
414.00	0.72	566	4	7	54	per	lib	low	mod	low	nt	cr	nh/0939_nh.bmp
414.72	0.72	567	4	8	95	mem	con	mod	mod	low	nt	ht	nh/0248_nh.bmp
415.44	0.72	568	2	7	63	per	lib	low	mod	low	tg	ht	wh/0388.bmp
416.16	0.72	569	4	7	62	per	lib	low	mod	low	tg	ht	wh/0450.bmp
416.88	0.72	570	4	7	40	mem	con	mod	mod	mod	nt	ms	nh/0564_nh.bmp
417.60	0.72	571	3	7	81	per	lib	mod	mod	mod	nt	fa	nh/0586_nh.bmp
418.32	0.72	572	5	6	91	mem	lib	mod	mod	mod	nt	ms	nh/0495_nh.bmp
419.04	0.72	573	5	8	92	mem	con	mod	mod	low	tg	ht	wh/0453.bmp
419.76	0.72	574	4	7	32	mem	lib	mod	mod	mod	nt	ht	nh/0060_nh.bmp
420.48	0.72	575	3	5	44	mem	lib	mod	mod	low	tg	ht	wh/0793.bmp
421.20	0.72	576	1	7	9	per	con	mod	low	mod	tg	ht	wh/0751.bmp
421.92	0.72	577	3	5	31	per	con	mod	mod	mod	nt	cr	nh/0378_nh.bmp
422.64	0.72	578	5	8	33	mem	lib	mod	mod	low	nt	ht	nh/0519_nh.bmp
423.36	0.72	579	2	7	90	per	lib	mod	mod	mod	tg	ht	wh/0763.bmp
424.08	0.72	580	1	5	112	per	con	low	low	low	nt	cr	nh/0005_nh.bmp
424.80	0.72	581	3	7	90	per	lib	mod	mod	mod	tg	ht	wh/0763.bmp
425.52	0.72	582	4	6	51	mem	con	mod	mod	mod	tg	ht	wh/0599.bmp
426.24	0.72	583	4	6	32	per	lib	mod	mod	mod	tg	ht	wh/0971.bmp
426.96	0.72	584	5	7	85	per	lib	mod	mod	mod	nt	cr	nh/0832_nh.bmp
427.68	0.72	585	1	8	17	per	con	low	low	low	tg	ms	wh/0737.bmp
428.40	0.72	586	3	6	74	per	con	low	mod	low	tg	ht	wh/0986.bmp
429.12	0.72	587	6	5	10	mem	con	mod	mod	low	nt	ms	nh/0241_nh.bmp
429.84	0.72	588	4	7	81	per	lib	mod	mod	mod	nt	fa	nh/0586_nh.bmp
430.56	0.72	589	5	8	95	mem	con	mod	mod	low	nt	ht	nh/0248_nh.bmp
431.28	0.72	590	5	6	32	per	lib	mod	mod	mod	tg	ht	wh/0971.bmp
432.00	0.72	591	6	7	55	per	lib	low	mod	low	nt	fa	nh/0848_nh.bmp
432.72	0.72	592	4	5	121	per	lib	low	mod	low	tg	ht	wh/0012.bmp
433.44	0.72	593	5	7	89	per	lib	mod	mod	mod	nt	cr	nh/0852_nh.bmp
434.16	0.72	594	5	7	40	mem	con	mod	mod	mod	nt	ms	nh/0564_nh.bmp
434.88	0.72	595	6	8	33	mem	lib	mod	mod	low	nt	ht	nh/0519_nh.bmp
435.60	0.72	596	6	8	14	per	con	mod	mod	mod	tg	ht	wh/0638.bmp
436.32	0.72	597	4	7	125	per	con	low	mod	low	tg	ms	wh/0108.bmp
437.04	0.72	598	3	5	36	mem	lib	mod	mod	low	nt	ht	nh/0374_nh.bmp
437.76	0.72	599	4	6	84	mem	lib	mod	mod	mod	tg	ht	wh/0871.bmp
438.48	0.72	600	4	5	14	mem	con	mod	mod	low	nt	ht	nh/1004_nh.bmp
439.20	0.72	601	4	5	36	mem	lib	mod	mod	low	nt	ht	nh/0374_nh.bmp
439.92	0.72	602	3	7	24	mem	lib	mod	mod	mod	tg	ht	wh/0958.bmp
440.64	0.72	603	3	7	115	per	con	low	mod	low	nt	cr	nh/0247_nh.bmp
441.36	0.72	604	4	7	115	per	con	low	mod	low	nt	cr	nh/0247_nh.bmp
442.08	0.72	605	4	5	31	per	con	mod	mod	mod	nt	cr	nh/0378_nh.bmp
442.80	0.72	606	5	5	118	per	lib	low	mod	low	nt	fa	nh/0111_nh.bmp
443.52	0.72	607	5	5	114	per	lib	low	mod	low	nt	fa	nh/0640_nh.bmp
444.24	0.72	608	4	5	22	per	con	mod	mod	mod	tg	ms	wh/0239.bmp
444.96	0.72	609	4	5	45	mem	lib	mod	mod	low	tg	ht	wh/0746.bmp
445.68	0.72	610	5	5	45	mem	lib	mod	mod	low	tg	ht	wh/0746.bmp
446.40	0.72	611	1	5	52	per	lib	mod	low	mod	tg	ht	wh/0334.bmp
447.12	0.72	612	1	6	10	per	con	mod	low	mod	tg	ms	wh/0093.bmp
447.84	0.72	613	5	6	85	mem	lib	mod	mod	mod	nt	ms	nh/0715_nh.bmp
448.56	0.72	614	5	6	51	mem	con	mod	mod	mod	tg	ht	wh/0599.bmp
449.28	0.72	615	6	7	26	mem	lib	mod	mod	mod	tg	ht	wh/0420.bmp
450.00	0.72	616	5	8	5	per	con	mod	mod	mod	nt	cr	nh/0827_nh.bmp
450.72	0.72	617	1	6	9	per	con	mod	low	mod	nt	cr	nh/0779_nh.bmp
451.44	0.72	618	3	5	38	mem	lib	mod	mod	low	nt	ht	nh/0165_nh.bmp
452.16	0.72	619	5	7	54	per	lib	low	mod	low	nt	cr	nh/0939_nh.bmp
452.88	0.72	620	4	7	87	per	lib	mod	mod	mod	tg	ht	wh/0552.bmp
453.60	0.72	621	1	5	89	mem	con	low	low	mod	nt	ms	nh/0749_nh.bmp
454.32	0.72	622	5	6	26	per	lib	mod	mod	mod	tg	ht	wh/0436.bmp
455.04	0.72	623	6	5	26	per	con	mod	mod	mod	tg	ht	wh/0556.bmp
455.76	0.72	624	4	7	24	mem	lib	mod	mod	mod	tg	ht	wh/0958.bmp
456.48	0.72	625	5	7	20	mem	lib	mod	mod	mod	nt	ht	nh/0888_nh.bmp
457.20	0.72	626	5	7	81	per	lib	mod	mod	mod	nt	fa	nh/0586_nh.bmp
457.92	0.72	627	6	7	124	per	con	low	mod	low	tg	ht	wh/0262.bmp
458.64	0.72	628	6	6	52	mem	con	mod	mod	mod	tg	ht	wh/0408.bmp
459.36	0.72	629	6	5	128	per	lib	low	mod	low	tg	ht	wh/0254.bmp
460.08	0.72	630	6	5	45	mem	lib	mod	mod	low	tg	ht	wh/0746.bmp
460.80	0.72	631	5	5	36	mem	lib	mod	mod	low	nt	ht	nh/0374_nh.bmp
461.52	0.72	632	1	8	102	mem	lib	low	low	mod	tg	ht	wh/0416.bmp
462.24	0.72	633	3	6	90	mem	lib	mod	mod	mod	tg	ht	wh/0609.bmp
462.96	0.72	634	5	5	6	mem	con	mod	mod	low	tg	ht	wh/0820.bmp
463.68	0.72	635	4	6	74	per	con	low	mod	low	tg	ht	wh/0986.bmp
464.40	0.72	636	3	7	63	per	lib	low	mod	low	tg	ht	wh/0388.bmp
465.12	0.72	637	5	7	125	per	con	low	mod	low	tg	ms	wh/0108.bmp
465.84	0.72	638	5	5	13	mem	con	mod	mod	low	tg	ms	wh/0073.bmp
466.56	0.72	639	4	8	8	per	con	mod	mod	mod	tg	ht	wh/0821.bmp
467.28	0.72	640	1	8	52	mem	con	low	low	low	nt	ht	nh/0865_nh.bmp
468.00	0.72	641	5	5	14	mem	con	mod	mod	low	nt	ht	nh/1004_nh.bmp
468.72	0.72	642	4	5	44	mem	lib	mod	mod	low	tg	ht	wh/0793.bmp
469.44	0.72	643	4	7	44	mem	con	mod	mod	mod	nt	ht	nh/0835_nh.bmp
470.16	0.72	644	3	8	82	mem	con	mod	mod	low	tg	ms	wh/0394.bmp
470.88	0.72	645	4	8	9	per	con	mod	mod	mod	nt	fa	nh/0968_nh.bmp
471.60	0.72	646	5	7	87	per	lib	mod	mod	mod	tg	ht	wh/0552.bmp
472.32	0.72	647	5	5	35	mem	lib	mod	mod	low	nt	ht	nh/0193_nh.bmp
473.04	0.72	648	5	6	20	per	lib	mod	mod	mod	tg	ht	wh/0822.bmp
473.76	0.72	649	1	8	106	mem	lib	low	low	mod	nt	ht	nh/0924_nh.bmp
474.48	0.72	650	4	7	93	per	lib	mod	mod	mod	tg	ht	wh/0978.bmp
475.20	0.72	651	5	8	93	mem	con	mod	mod	low	nt	ms	nh/0176_nh.bmp
475.92	0.72	652	5	5	125	per	lib	low	mod	low	nt	cr	nh/1014_nh.bmp
476.64	0.72	653	5	8	87	mem	con	mod	mod	low	tg	ms	wh/0401.bmp
477.36	0.72	654	1	5	66	mem	lib	low	low	mod	nt	ms	nh/0840_nh.bmp
478.08	0.72	655	5	7	62	per	lib	low	mod	low	tg	ht	wh/0450.bmp
478.80	0.72	656	6	7	116	per	con	low	mod	low	nt	fa	nh/0647_nh.bmp
479.52	0.72	657	4	6	54	mem	con	mod	mod	mod	nt	ms	nh/0623_nh.bmp
480.24	0.72	658	1	6	107	per	lib	low	low	low	tg	ms	wh/0842.bmp
480.96	0.72	659	1	8	27	per	con	low	low	low	tg	ms	wh/0516.bmp
481.68	0.72	660	4	5	24	per	con	mod	mod	mod	tg	ht	wh/0694.bmp
482.40	0.72	661	4	6	69	per	con	low	mod	low	tg	ms	wh/1019.bmp
483.12	0.72	662	4	6	71	per	con	low	mod	low	nt	cr	nh/0023_nh.bmp
483.84	0.72	663	3	6	28	per	lib	mod	mod	mod	nt	cr	nh/0366_nh.bmp
484.56	0.72	664	5	6	18	per	lib	mod	mod	mod	nt	fa	nh/0056_nh.bmp
485.28	0.72	665	5	5	121	per	lib	low	mod	low	tg	ht	wh/0012.bmp
486.00	0.72	666	5	6	72	per	con	low	mod	low	nt	cr	nh/0018_nh.bmp
486.72	0.72	667	4	5	18	per	con	mod	mod	mod	nt	cr	nh/0717_nh.bmp
487.44	0.72	668	5	5	113	per	lib	low	mod	low	nt	cr	nh/0064_nh.bmp
488.16	0.72	669	5	7	59	per	lib	low	mod	low	nt	fa	nh/0042_nh.bmp
488.88	0.72	670	1	7	3	per	con	mod	low	mod	nt	cr	nh/0980_nh.bmp
489.60	0.72	671	6	7	20	mem	lib	mod	mod	mod	nt	ht	nh/0888_nh.bmp
490.32	0.72	672	4	6	94	mem	lib	mod	mod	mod	nt	ht	nh/0764_nh.bmp
491.04	0.72	673	6	5	36	mem	lib	mod	mod	low	nt	ht	nh/0374_nh.bmp
491.76	0.72	674	3	6	24	per	lib	mod	mod	mod	nt	cr	nh/0629_nh.bmp
492.48	0.72	675	5	7	58	per	lib	low	mod	low	tg	ht	wh/0521.bmp
493.20	0.72	676	5	6	54	mem	con	mod	mod	mod	nt	ms	nh/0623_nh.bmp
493.92	0.72	677	5	7	32	mem	lib	mod	mod	mod	nt	ht	nh/0060_nh.bmp
494.64	0.72	678	6	6	51	mem	con	mod	mod	mod	tg	ht	wh/0599.bmp
495.36	0.72	679	5	6	69	per	con	low	mod	low	tg	ms	wh/1019.bmp
496.08	0.72	680	6	8	93	mem	con	mod	mod	low	nt	ms	nh/0176_nh.bmp
496.80	0.72	681	6	6	81	mem	lib	mod	mod	mod	nt	ht	nh/0851_nh.bmp
497.52	0.72	682	5	8	36	mem	lib	mod	mod	low	nt	ht	nh/0863_nh.bmp
498.24	0.72	683	5	8	8	per	con	mod	mod	mod	tg	ht	wh/0821.bmp
498.96	0.72	684	2	6	60	mem	con	mod	mod	mod	tg	ms	wh/0797.bmp
499.68	0.72	685	1	7	1	per	con	mod	low	mod	nt	cr	nh/0688_nh.bmp
500.40	0.72	686	4	6	90	mem	lib	mod	mod	mod	tg	ht	wh/0609.bmp
501.12	0.72	687	4	8	82	mem	con	mod	mod	low	tg	ms	wh/0394.bmp
501.84	0.72	688	1	6	34	mem	con	low	low	low	tg	ms	wh/0767.bmp
502.56	0.72	689	5	5	17	per	con	mod	mod	mod	nt	cr	nh/0020_nh.bmp
503.28	0.72	690	6	7	125	per	con	low	mod	low	tg	ms	wh/0108.bmp
504.00	0.72	691	4	7	30	mem	lib	mod	mod	mod	nt	ht	nh/0294_nh.bmp
504.72	0.72	692	1	5	69	mem	lib	low	low	mod	tg	ht	wh/0101.bmp
505.44	0.72	693	5	8	82	mem	con	mod	mod	low	tg	ms	wh/0394.bmp
506.16	0.72	694	3	7	28	mem	lib	mod	mod	mod	nt	ht	nh/0441_nh.bmp
506.88	0.72	695	5	5	31	per	con	mod	mod	mod	nt	cr	nh/0378_nh.bmp
507.60	0.72	696	5	7	24	mem	lib	mod	mod	mod	tg	ht	wh/0958.bmp
508.32	0.72	697	5	7	43	mem	con	mod	mod	mod	tg	ht	wh/0735.bmp
509.04	0.72	698	4	8	47	mem	lib	mod	mod	low	tg	ht	wh/0297.bmp
509.76	0.72	699	5	7	115	per	con	low	mod	low	nt	cr	nh/0247_nh.bmp
510.48	0.72	700	6	5	32	per	con	mod	mod	mod	tg	ht	wh/0603.bmp
511.20	0.72	701	1	7	108	mem	lib	low	low	low	tg	ms	wh/0728.bmp
511.92	0.72	702	6	7	81	per	lib	mod	mod	mod	nt	fa	nh/0586_nh.bmp
512.64	0.72	703	6	8	87	mem	con	mod	mod	low	tg	ms	wh/0401.bmp
513.36	0.72	704	4	5	3	mem	con	mod	mod	low	tg	ht	wh/0491.bmp
514.08	0.72	705	5	5	12	mem	con	mod	mod	low	nt	ht	nh/0875_nh.bmp
514.80	0.72	706	4	6	88	mem	lib	mod	mod	mod	tg	ht	wh/0602.bmp
515.52	0.72	707	1	8	111	mem	lib	low	low	mod	tg	ht	wh/0091.bmp
516.24	0.72	708	1	8	77	per	lib	mod	low	mod	tg	ht	wh/0611.bmp
516.96	0.72	709	5	5	22	per	con	mod	mod	mod	tg	ms	wh/0239.bmp
517.68	0.72	710	5	5	44	mem	lib	mod	mod	low	tg	ht	wh/0793.bmp
518.40	0.72	711	5	7	34	mem	con	mod	mod	mod	nt	ms	nh/0086_nh.bmp
519.12	0.72	712	1	8	70	per	lib	mod	low	mod	tg	ht	wh/0186.bmp
519.84	0.72	713	6	5	41	mem	lib	mod	mod	low	tg	ht	wh/0118.bmp
520.56	0.72	714	4	7	47	mem	con	mod	mod	mod	nt	ht	nh/0318_nh.bmp
521.28	0.72	715	6	7	59	per	lib	low	mod	low	nt	fa	nh/0042_nh.bmp
522.00	0.72	716	6	6	53	mem	con	mod	mod	mod	nt	ms	nh/0560_nh.bmp
522.72	0.72	717	4	7	28	mem	lib	mod	mod	mod	nt	ht	nh/0441_nh.bmp
523.44	0.72	718	6	5	121	per	lib	low	mod	low	tg	ht	wh/0012.bmp
524.16	0.72	719	6	8	36	mem	lib	mod	mod	low	nt	ht	nh/0863_nh.bmp
524.88	0.72	720	5	6	61	mem	con	mod	mod	mod	nt	ms	nh/0995_nh.bmp
525.60	0.72	721	5	8	47	mem	lib	mod	mod	low	tg	ht	wh/0297.bmp
526.32	0.72	722	6	8	43	mem	lib	mod	mod	low	nt	ht	nh/0612_nh.bmp
527.04	0.72	723	5	6	88	mem	lib	mod	mod	mod	tg	ht	wh/0602.bmp
527.76	0.72	724	5	7	92	per	lib	mod	mod	mod	nt	cr	nh/0300_nh.bmp
528.48	0.72	725	6	6	26	per	lib	mod	mod	mod	tg	ht	wh/0436.bmp
529.20	0.72	726	4	6	24	per	lib	mod	mod	mod	nt	cr	nh/0629_nh.bmp
529.92	0.72	727	5	6	95	mem	lib	mod	mod	mod	tg	ht	wh/0269.bmp
530.64	0.72	728	4	7	63	per	lib	low	mod	low	tg	ht	wh/0388.bmp
531.36	0.72	729	1	6	115	mem	lib	low	low	low	tg	ht	wh/0045.bmp
532.08	0.72	730	5	6	71	per	con	low	mod	low	nt	cr	nh/0023_nh.bmp
532.80	0.72	731	4	6	28	per	lib	mod	mod	mod	nt	cr	nh/0366_nh.bmp
533.52	0.72	732	5	6	74	per	con	low	mod	low	tg	ht	wh/0986.bmp
534.24	0.72	733	1	6	45	mem	con	low	low	low	tg	ms	wh/0352.bmp
534.96	0.72	734	6	5	118	per	lib	low	mod	low	nt	fa	nh/0111_nh.bmp
535.68	0.72	735	6	6	22	per	lib	mod	mod	mod	nt	fa	nh/0179_nh.bmp
536.40	0.72	736	5	7	47	mem	con	mod	mod	mod	nt	ht	nh/0318_nh.bmp
537.12	0.72	737	1	5	108	per	con	low	low	low	nt	cr	nh/0144_nh.bmp
537.84	0.72	738	5	6	24	per	lib	mod	mod	mod	nt	cr	nh/0629_nh.bmp
538.56	0.72	739	4	7	90	per	lib	mod	mod	mod	tg	ht	wh/0763.bmp
539.28	0.72	740	5	6	76	per	con	low	mod	low	nt	cr	nh/0618_nh.bmp
540.00	0.72	741	6	7	85	per	lib	mod	mod	mod	nt	cr	nh/0832_nh.bmp
540.72	0.72	742	5	6	67	per	con	low	mod	low	nt	cr	nh/0678_nh.bmp
541.44	0.72	743	5	8	81	mem	con	mod	mod	low	tg	ht	wh/0756.bmp
542.16	0.72	744	4	6	65	per	con	low	mod	low	tg	ht	wh/0892.bmp
542.88	0.72	745	6	8	8	per	con	mod	mod	mod	tg	ht	wh/0821.bmp
543.60	0.72	746	5	6	65	per	con	low	mod	low	tg	ht	wh/0892.bmp
544.32	0.72	747	4	7	128	per	con	low	mod	low	nt	cr	nh/0734_nh.bmp
545.04	0.72	748	4	7	60	per	lib	low	mod	low	nt	fa	nh/0255_nh.bmp
545.76	0.72	749	5	7	119	per	con	low	mod	low	tg	ms	wh/0249.bmp
546.48	0.72	750	1	6	7	per	con	mod	low	mod	tg	ht	wh/0188.bmp
547.20	0.72	751	6	6	91	mem	lib	mod	mod	mod	nt	ms	nh/0495_nh.bmp
547.92	0.72	752	5	6	94	mem	lib	mod	mod	mod	nt	ht	nh/0764_nh.bmp
548.64	0.72	753	4	6	68	per	con	low	mod	low	tg	ms	wh/0170.bmp
549.36	0.72	754	5	6	84	mem	lib	mod	mod	mod	tg	ht	wh/0871.bmp
550.08	0.72	755	5	7	30	mem	lib	mod	mod	mod	nt	ht	nh/0294_nh.bmp
550.80	0.72	756	5	8	38	mem	lib	mod	mod	low	tg	ht	wh/0883.bmp
551.52	0.72	757	6	7	58	per	lib	low	mod	low	tg	ht	wh/0521.bmp
552.24	0.72	758	6	7	34	mem	con	mod	mod	mod	nt	ms	nh/0086_nh.bmp
552.96	0.72	759	6	5	4	mem	con	mod	mod	low	nt	ht	nh/0574_nh.bmp
553.68	0.72	760	6	6	84	mem	lib	mod	mod	mod	tg	ht	wh/0871.bmp
554.40	0.72	761	5	7	60	per	lib	low	mod	low	nt	fa	nh/0255_nh.bmp
555.12	0.72	762	6	6	76	per	con	low	mod	low	nt	cr	nh/0618_nh.bmp
555.84	0.72	763	6	6	85	mem	lib	mod	mod	mod	nt	ms	nh/0715_nh.bmp
556.56	0.72	764	5	7	39	mem	con	mod	mod	mod	tg	ht	wh/0778.bmp
557.28	0.72	765	6	6	18	per	lib	mod	mod	mod	nt	fa	nh/0056_nh.bmp
558.00	0.72	766	6	5	13	mem	con	mod	mod	low	tg	ms	wh/0073.bmp
558.72	0.72	767	1	5	53	per	lib	mod	low	mod	tg	ms	wh/0037.bmp
559.44	0.72	768	6	6	54	mem	con	mod	mod	mod	nt	ms	nh/0623_nh.bmp
560.16	0.72	769	6	8	41	mem	lib	mod	mod	low	tg	ht	wh/0253.bmp
560.88	0.72	770	6	7	24	mem	lib	mod	mod	mod	tg	ht	wh/0958.bmp
561.60	0.72	771	6	8	5	per	con	mod	mod	mod	nt	cr	nh/0827_nh.bmp
562.32	0.72	772	6	6	69	per	con	low	mod	low	tg	ms	wh/1019.bmp
563.04	0.72	773	6	6	24	per	lib	mod	mod	mod	nt	cr	nh/0629_nh.bmp
563.76	0.72	774	5	5	34	mem	lib	mod	mod	low	nt	ht	nh/0578_nh.bmp
564.48	0.72	775	5	7	63	per	lib	low	mod	low	tg	ht	wh/0388.bmp
565.20	0.72	776	5	5	46	mem	lib	mod	mod	low	tg	ht	wh/0403.bmp
565.92	0.72	777	6	5	22	per	con	mod	mod	mod	tg	ms	wh/0239.bmp
566.64	0.72	778	3	6	60	mem	con	mod	mod	mod	tg	ms	wh/0797.bmp
567.36	0.72	779	5	6	28	per	lib	mod	mod	mod	nt	cr	nh/0366_nh.bmp
568.08	0.72	780	6	7	43	mem	con	mod	mod	mod	tg	ht	wh/0735.bmp
568.80	0.72	781	6	7	39	mem	con	mod	mod	mod	tg	ht	wh/0778.bmp
569.52	0.72	782	6	6	20	per	lib	mod	mod	mod	tg	ht	wh/0822.bmp
570.24	0.72	783	1	6	46	mem	con	low	low	low	nt	ms	nh/0135_nh.bmp
570.96	0.72	784	1	5	50	per	lib	mod	low	mod	nt	fa	nh/0537_nh.bmp
571.68	0.72	785	1	7	103	mem	lib	low	low	low	tg	ht	wh/0106.bmp
572.40	0.72	786	5	7	94	per	lib	mod	mod	mod	tg	ht	wh/0544.bmp
573.12	0.72	787	5	6	68	per	con	low	mod	low	tg	ms	wh/0170.bmp
573.84	0.72	788	1	6	126	mem	lib	low	low	low	tg	ht	wh/0617.bmp
574.56	0.72	789	5	5	3	mem	con	mod	mod	low	tg	ht	wh/0491.bmp
575.28	0.72	790	6	7	62	per	lib	low	mod	low	tg	ht	wh/0450.bmp
576.00	0.72	791	6	5	44	mem	lib	mod	mod	low	tg	ht	wh/0793.bmp
576.72	0.72	792	5	7	90	per	lib	mod	mod	mod	tg	ht	wh/0763.bmp
577.44	0.72	793	6	6	94	mem	lib	mod	mod	mod	nt	ht	nh/0764_nh.bmp
578.16	0.72	794	5	5	18	per	con	mod	mod	mod	nt	cr	nh/0717_nh.bmp
578.88	0.72	795	5	8	9	per	con	mod	mod	mod	nt	fa	nh/0968_nh.bmp
579.60	0.72	796	6	7	30	mem	lib	mod	mod	mod	nt	ht	nh/0294_nh.bmp
580.32	0.72	797	5	7	44	mem	con	mod	mod	mod	nt	ht	nh/0835_nh.bmp
581.04	0.72	798	6	6	67	per	con	low	mod	low	nt	cr	nh/0678_nh.bmp
581.76	0.72	799	4	6	60	mem	con	mod	mod	mod	tg	ms	wh/0797.bmp
582.48	0.72	800	5	6	19	per	lib	mod	mod	mod	tg	ht	wh/0549.bmp
583.20	0.72	801	6	7	40	mem	con	mod	mod	mod	nt	ms	nh/0564_nh.bmp
583.92	0.72	802	1	8	64	mem	con	low	low	low	nt	ms	nh/0285_nh.bmp
584.64	0.72	803	5	7	93	per	lib	mod	mod	mod	tg	ht	wh/0978.bmp
585.36	0.72	804	6	7	54	per	lib	low	mod	low	nt	cr	nh/0939_nh.bmp
586.08	0.72	805	5	7	28	mem	lib	mod	mod	mod	nt	ht	nh/0441_nh.bmp
586.80	0.72	806	6	6	65	per	con	low	mod	low	tg	ht	wh/0892.bmp
587.52	0.72	807	6	8	47	mem	lib	mod	mod	low	tg	ht	wh/0297.bmp
588.24	0.72	808	6	7	32	mem	lib	mod	mod	mod	nt	ht	nh/0060_nh.bmp
588.96	0.72	809	4	5	38	mem	lib	mod	mod	low	nt	ht	nh/0165_nh.bmp
589.68	0.72	810	6	7	87	per	lib	mod	mod	mod	tg	ht	wh/0552.bmp
590.40	0.72	811	6	7	28	mem	lib	mod	mod	mod	nt	ht	nh/0441_nh.bmp
591.12	0.72	812	6	8	92	mem	con	mod	mod	low	tg	ht	wh/0453.bmp
591.84	0.72	813	6	8	46	mem	lib	mod	mod	low	nt	ms	nh/0024_nh.bmp
592.56	0.72	814	4	5	123	per	lib	low	mod	low	tg	ht	wh/0139.bmp
593.28	0.72	815	1	5	105	per	con	low	low	low	tg	ms	wh/0181.bmp
594.00	0.72	816	1	6	14	per	con	mod	low	mod	nt	cr	nh/0953_nh.bmp
594.72	0.72	817	1	6	40	mem	con	low	low	low	tg	ms	wh/0480.bmp
595.44	0.72	818	6	6	19	per	lib	mod	mod	mod	tg	ht	wh/0549.bmp
596.16	0.72	819	5	5	38	mem	lib	mod	mod	low	nt	ht	nh/0165_nh.bmp
596.88	0.72	820	5	7	22	mem	lib	mod	mod	mod	tg	ht	wh/0686.bmp
597.60	0.72	821	5	7	42	mem	con	mod	mod	mod	tg	ms	wh/0385.bmp
598.32	0.72	822	4	5	2	mem	con	mod	mod	low	tg	ht	wh/0582.bmp
599.04	0.72	823	5	5	2	mem	con	mod	mod	low	tg	ht	wh/0582.bmp
599.76	0.72	824	5	6	90	mem	lib	mod	mod	mod	tg	ht	wh/0609.bmp
600.48	0.72	825	6	6	71	per	con	low	mod	low	nt	cr	nh/0023_nh.bmp
601.20	0.72	826	6	7	89	per	lib	mod	mod	mod	nt	cr	nh/0852_nh.bmp
601.92	0.72	827	6	7	92	per	lib	mod	mod	mod	nt	cr	nh/0300_nh.bmp
602.64	0.72	828	6	7	63	per	lib	low	mod	low	tg	ht	wh/0388.bmp
603.36	0.72	829	6	8	3	per	con	mod	mod	mod	tg	ht	wh/0275.bmp
604.08	0.72	830	1	5	76	mem	lib	low	low	mod	tg	ht	wh/0559.bmp
604.80	0.72	831	1	5	75	mem	lib	low	low	mod	nt	ht	nh/0389_nh.bmp
605.52	0.72	832	5	5	24	per	con	mod	mod	mod	tg	ht	wh/0694.bmp
606.24	0.72	833	1	8	123	per	lib	low	low	low	nt	fa	nh/0147_nh.bmp
606.96	0.72	834	6	5	38	mem	lib	mod	mod	low	nt	ht	nh/0165_nh.bmp
607.68	0.72	835	5	8	12	per	con	mod	mod	mod	nt	cr	nh/0915_nh.bmp
608.40	0.72	836	6	5	113	per	lib	low	mod	low	nt	cr	nh/0064_nh.bmp
609.12	0.72	837	6	7	94	per	lib	mod	mod	mod	tg	ht	wh/0544.bmp
609.84	0.72	838	6	6	28	per	lib	mod	mod	mod	nt	cr	nh/0366_nh.bmp
610.56	0.72	839	6	6	95	mem	lib	mod	mod	mod	tg	ht	wh/0269.bmp
611.28	0.72	840	6	7	119	per	con	low	mod	low	tg	ms	wh/0249.bmp
612.00	0.72	841	1	5	71	mem	lib	low	low	mod	nt	ht	nh/1008_nh.bmp
612.72	0.72	842	6	7	22	mem	lib	mod	mod	mod	tg	ht	wh/0686.bmp
613.44	0.72	843	6	8	95	mem	con	mod	mod	low	nt	ht	nh/0248_nh.bmp
614.16	0.72	844	5	6	60	mem	con	mod	mod	mod	tg	ms	wh/0797.bmp
614.88	0.72	845	6	6	61	mem	con	mod	mod	mod	nt	ms	nh/0995_nh.bmp
615.60	0.72	846	6	7	60	per	lib	low	mod	low	nt	fa	nh/0255_nh.bmp
616.32	0.72	847	6	7	115	per	con	low	mod	low	nt	cr	nh/0247_nh.bmp
617.04	0.72	848	6	8	84	mem	con	mod	mod	low	nt	ms	nh/0814_nh.bmp
617.76	0.72	849	6	6	74	per	con	low	mod	low	tg	ht	wh/0986.bmp
618.48	0.72	850	1	5	95	mem	con	low	low	mod	tg	ms	wh/0207.bmp
619.20	0.72	851	6	7	90	per	lib	mod	mod	mod	tg	ht	wh/0763.bmp
619.92	0.72	852	6	6	32	per	lib	mod	mod	mod	tg	ht	wh/0971.bmp
620.64	0.72	853	4	8	48	mem	lib	mod	mod	low	tg	ht	wh/0157.bmp
621.36	0.72	854	6	5	3	mem	con	mod	mod	low	tg	ht	wh/0491.bmp
622.08	0.72	855	6	7	25	mem	lib	mod	mod	mod	tg	ht	wh/0546.bmp
622.80	0.72	856	5	8	48	mem	lib	mod	mod	low	tg	ht	wh/0157.bmp
623.52	0.72	857	6	8	38	mem	lib	mod	mod	low	tg	ht	wh/0883.bmp
624.24	0.72	858	6	5	14	mem	con	mod	mod	low	nt	ht	nh/1004_nh.bmp
624.96	0.72	859	1	6	44	mem	con	low	low	low	tg	ms	wh/0376.bmp
625.68	0.72	860	6	6	90	mem	lib	mod	mod	mod	tg	ht	wh/0609.bmp
626.40	0.72	861	6	8	9	per	con	mod	mod	mod	nt	fa	nh/0968_nh.bmp
627.12	0.72	862	6	6	60	mem	con	mod	mod	mod	tg	ms	wh/0797.bmp
627.84	0.72	863	6	5	24	per	con	mod	mod	mod	tg	ht	wh/0694.bmp
628.56	0.72	864	6	8	12	per	con	mod	mod	mod	nt	cr	nh/0915_nh.bmp
629.28	0.72	865	6	8	82	mem	con	mod	mod	low	tg	ms	wh/0394.bmp
630.00	0.72	866	6	7	93	per	lib	mod	mod	mod	tg	ht	wh/0978.bmp
630.72	0.72	867	6	8	13	per	con	mod	mod	mod	nt	cr	nh/0590_nh.bmp
631.44	0.72	868	5	7	128	per	con	low	mod	low	nt	cr	nh/0734_nh.bmp
632.16	0.72	869	6	5	46	mem	lib	mod	mod	low	tg	ht	wh/0403.bmp
632.88	0.72	870	6	7	128	per	con	low	mod	low	nt	cr	nh/0734_nh.bmp
633.60	0.72	871	6	5	31	per	con	mod	mod	mod	nt	cr	nh/0378_nh.bmp
634.32	0.72	872	6	5	6	mem	con	mod	mod	low	tg	ht	wh/0820.bmp
635.04	0.72	873	5	5	123	per	lib	low	mod	low	tg	ht	wh/0139.bmp
635.76	0.72	874	6	5	125	per	lib	low	mod	low	nt	cr	nh/1014_nh.bmp
636.48	0.72	875	6	7	44	mem	con	mod	mod	mod	nt	ht	nh/0835_nh.bmp
637.20	0.72	876	1	8	23	per	con	low	low	low	nt	cr	nh/0022_nh.bmp
637.92	0.72	877	6	8	48	mem	lib	mod	mod	low	tg	ht	wh/0157.bmp
638.64	0.72	878	6	5	123	per	lib	low	mod	low	tg	ht	wh/0139.bmp
639.36	0.72	879	6	7	47	mem	con	mod	mod	mod	nt	ht	nh/0318_nh.bmp
640.08	0.72	880	6	6	68	per	con	low	mod	low	tg	ms	wh/0170.bmp
640.80	0.72	881	6	5	2	mem	con	mod	mod	low	tg	ht	wh/0582.bmp
641.52	0.72	882	6	5	114	per	lib	low	mod	low	nt	fa	nh/0640_nh.bmp
642.24	0.72	883	1	5	87	mem	con	low	low	mod	tg	ht	wh/0837.bmp
642.96	0.72	884	6	8	81	mem	con	mod	mod	low	tg	ht	wh/0756.bmp
643.68	0.72	885	6	6	72	per	con	low	mod	low	nt	cr	nh/0018_nh.bmp
644.40	0.72	886	6	5	35	mem	lib	mod	mod	low	nt	ht	nh/0193_nh.bmp
645.12	0.72	887	1	5	80	mem	lib	low	low	mod	nt	ht	nh/0668_nh.bmp
645.84	0.72	888	6	5	18	per	con	mod	mod	mod	nt	cr	nh/0717_nh.bmp
646.56	0.72	889	6	5	34	mem	lib	mod	mod	low	nt	ht	nh/0578_nh.bmp
647.28	0.72	890	6	6	88	mem	lib	mod	mod	mod	tg	ht	wh/0602.bmp
648.00	0.72	891	6	5	115	per	lib	low	mod	low	tg	ht	wh/0780.bmp
648.72	0.72	892	1	6	119	mem	lib	low	low	low	nt	ms	nh/0929_nh.bmp
649.44	0.72	893	6	7	53	per	lib	low	mod	low	tg	ht	wh/0172.bmp
650.16	0.72	894	6	5	12	mem	con	mod	mod	low	nt	ht	nh/0875_nh.bmp
650.88	0.72	895	6	5	17	per	con	mod	mod	mod	nt	cr	nh/0020_nh.bmp
651.60	0.72	896	6	7	42	mem	con	mod	mod	mod	tg	ms	wh/0385.bmp
