onset	duration	trial	pres	ts_blk	ts_trl	task	crit	disc	mem_disc	per_disc	per_type	accuracy	stim_file
7.20	0.72	1	1	5	125	mem	lib	mod	mod	mod	nt	ht	nh/0086_nh.bmp
7.92	0.72	2	1	5	82	per	con	mod	mod	mod	tg	ht	wh/0544.bmp
8.64	0.72	3	1	8	50	mem	con	mod	mod	low	tg	ht	wh/0118.bmp
9.36	0.72	4	1	6	44	per	lib	low	mod	low	tg	ht	wh/0262.bmp
10.08	0.72	5	1	7	17	mem	lib	mod	mod	mod	tg	ht	wh/0599.bmp
10.80	0.72	6	2	7	17	mem	lib	mod	mod	mod	tg	ht	wh/0599.bmp
11.52	0.72	7	1	6	46	per	lib	low	mod	low	nt	fa	nh/0164_nh.bmp
12.24	0.72	8	1	6	85	per	con	low	mod	low	tg	ms	wh/0521.bmp
12.96	0.72	9	1	6	61	mem	lib	mod	mod	low	tg	ht	wh/0394.bmp
13.68	0.72	10	1	6	57	mem	lib	mod	mod	low	tg	ht	wh/0453.bmp
14.40	0.72	11	1	8	68	mem	lib	mod	mod	low	tg	ht	wh/0582.bmp
15.12	0.72	12	1	6	111	mem	con	low	low	low	nt	ms	nh/0034_nh.bmp
15.84	0.72	13	1	6	73	mem	con	mod	mod	low	nt	ms	nh/0519_nh.bmp
16.56	0.72	14	1	8	126	per	lib	low	mod	low	nt	fa	nh/0018_nh.bmp
17.28	0.72	15	1	6	66	mem	con	mod	mod	low	tg	ht	wh/0297.bmp
18.00	0.72	16	1	6	35	per	lib	low	mod	low	tg	ms	wh/0249.bmp
18.72	0.72	17	1	8	101	per	con	low	mod	low	nt	cr	nh/0111_nh.bmp
19.44	0.72	18	1	5	21	mem	con	mod	mod	mod	tg	ht	wh/0420.bmp
20.16	0.72	19	1	8	119	per	lib	low	mod	low	nt	fa	nh/0618_nh.bmp
20.88	0.72	20	1	5	10	per	lib	low	low	low	tg	ht	wh/0737.bmp
21.60	0.72	21	1	5	78	mem	con	low	low	mod	nt	ms	nh/0673_nh.bmp
22.32	0.72	22	2	5	82	per	con	mod	mod	mod	tg	ht	wh/0544.bmp
23.04	0.72	23	1	7	23	mem	lib	mod	mod	mod	tg	ht	wh/0408.bmp
23.76	0.72	24	1	6	62	mem	lib	mod	mod	low	nt	ht	nh/0248_nh.bmp
24.48	0.72	25	2	6	57	mem	lib	mod	mod	low	tg	ht	wh/0453.bmp
25.20	0.72	26	1	5	93	per	con	mod	mod	mod	nt	cr	nh/0852_nh.bmp
25.92	0.72	27	1	5	87	per	con	mod	mod	mod	nt	cr	nh/0832_nh.bmp
26.64	0.72	28	1	7	56	mem	lib	low	low	mod	nt	ms	nh/0545_nh.bmp
27.36	0.72	29	1	8	57	mem	con	mod	mod	low	tg	ht	wh/0746.bmp
28.08	0.72	30	1	5	25	mem	con	mod	mod	mod	tg	ms	wh/0958.bmp
28.80	0.72	31	1	7	110	per	lib	mod	low	mod	nt	cr	nh/0869_nh.bmp
29.52	0.72	32	1	7	40	mem	con	mod	mod	mod	tg	ht	wh/0609.bmp
30.24	0.72	33	2	6	46	per	lib	low	mod	low	nt	fa	nh/0164_nh.bmp
30.96	0.72	34	2	8	57	mem	con	mod	mod	low	tg	ht	wh/0746.bmp
31.68	0.72	35	1	7	29	mem	lib	mod	mod	mod	tg	ht	wh/0797.bmp
32.40	0.72	36	1	7	73	per	con	mod	mod	mod	nt	cr	nh/0056_nh.bmp
33.12	0.72	37	1	6	49	mem	lib	mod	mod	low	nt	ht	nh/0814_nh.bmp
33.84	0.72	38	1	6	42	per	lib	low	mod	low	tg	ht	wh/0143.bmp
34.56	0.72	39	2	6	85	per	con	low	mod	low	tg	ms	wh/0521.bmp
35.28	0.72	40	1	8	94	per	con	mod	low	mod	tg	ht	wh/1005.bmp
36.00	0.72	41	2	8	50	mem	con	mod	mod	low	tg	ht	wh/0118.bmp
36.72	0.72	42	1	8	51	mem	con	mod	mod	low	tg	ht	wh/0793.bmp
37.44	0.72	43	1	7	42	mem	con	mod	mod	mod	nt	ms	nh/0495_nh.bmp
38.16	0.72	44	1	5	70	mem	con	low	low	mod	tg	ht	wh/0416.bmp
38.88	0.72	45	1	6	69	mem	con	mod	mod	low	tg	ms	wh/0157.bmp
39.60	0.72	46	1	8	55	mem	con	mod	mod	low	nt	ht	nh/0193_nh.bmp
40.32	0.72	47	1	7	30	mem	lib	mod	mod	mod	nt	ht	nh/0623_nh.bmp
41.04	0.72	48	1	6	21	per	lib	mod	mod	mod	nt	fa	nh/0590_nh.bmp
41.76	0.72	49	1	5	26	mem	con	mod	mod	mod	nt	ms	nh/0441_nh.bmp
42.48	0.72	50	1	6	31	per	lib	mod	mod	mod	tg	ht	wh/0666.bmp
43.20	0.72	51	1	7	13	per	con	low	low	low	tg	ht	wh/0842.bmp
43.92	0.72	52	2	5	87	per	con	mod	mod	mod	nt	cr	nh/0832_nh.bmp
44.64	0.72	53	1	7	20	mem	lib	mod	mod	mod	tg	ht	wh/0833.bmp
45.36	0.72	54	1	6	38	per	lib	low	mod	low	tg	ht	wh/0108.bmp
46.08	0.72	55	1	7	121	mem	con	low	low	mod	nt	ms	nh/0840_nh.bmp
46.80	0.72	56	3	8	57	mem	con	mod	mod	low	tg	ht	wh/0746.bmp
47.52	0.72	57	2	8	55	mem	con	mod	mod	low	nt	ht	nh/0193_nh.bmp
48.24	0.72	58	1	5	23	mem	con	mod	mod	mod	tg	ht	wh/0546.bmp
48.96	0.72	59	1	8	97	per	con	low	mod	low	tg	ms	wh/0012.bmp
49.68	0.72	60	1	6	76	mem	con	mod	mod	low	nt	ms	nh/0024_nh.bmp
50.40	0.72	61	1	7	70	per	con	mod	mod	mod	tg	ms	wh/0436.bmp
51.12	0.72	62	2	5	93	per	con	mod	mod	mod	nt	cr	nh/0852_nh.bmp
51.84	0.72	63	1	6	26	per	lib	mod	mod	mod	tg	ht	wh/0638.bmp
52.56	0.72	64	2	6	49	mem	lib	mod	mod	low	nt	ht	nh/0814_nh.bmp
53.28	0.72	65	1	5	127	mem	lib	mod	mod	mod	tg	ht	wh/0385.bmp
54.00	0.72	66	1	8	27	per	lib	mod	mod	mod	tg	ht	wh/0603.bmp
54.72	0.72	67	1	5	124	mem	lib	mod	mod	mod	nt	ht	nh/0564_nh.bmp
55.44	0.72	68	1	8	109	per	con	low	mod	low	nt	cr	nh/0640_nh.bmp
56.16	0.72	69	1	7	44	mem	con	mod	mod	mod	tg	ht	wh/0602.bmp
56.88	0.72	70	1	8	107	per	con	low	mod	low	tg	ms	wh/0780.bmp
57.60	0.72	71	1	7	38	mem	con	mod	mod	mod	nt	ht	nh/0764_nh.bmp
58.32	0.72	72	2	5	124	mem	lib	mod	mod	mod	nt	ht	nh/0564_nh.bmp
59.04	0.72	73	1	8	70	mem	lib	mod	mod	low	nt	ht	nh/0875_nh.bmp
59.76	0.72	74	2	8	109	per	con	low	mod	low	nt	cr	nh/0640_nh.bmp
60.48	0.72	75	1	7	47	mem	con	mod	mod	mod	nt	ms	nh/0715_nh.bmp
61.20	0.72	76	1	5	49	per	lib	mod	low	mod	nt	cr	nh/0980_nh.bmp
61.92	0.72	77	2	7	44	mem	con	mod	mod	mod	tg	ht	wh/0602.bmp
62.64	0.72	78	1	8	122	per	lib	low	mod	low	nt	cr	nh/0023_nh.bmp
63.36	0.72	79	1	8	66	mem	lib	mod	mod	low	nt	ht	nh/0241_nh.bmp
64.08	0.72	80	3	8	109	per	con	low	mod	low	nt	cr	nh/0640_nh.bmp
64.80	0.72	81	1	8	116	per	lib	low	mod	low	tg	ht	wh/1019.bmp
65.52	0.72	82	1	8	21	per	lib	mod	mod	mod	tg	ht	wh/0556.bmp
66.24	0.72	83	1	6	67	mem	con	mod	mod	low	tg	ht	wh/0883.bmp
66.96	0.72	84	2	8	122	per	lib	low	mod	low	nt	cr	nh/0023_nh.bmp
67.68	0.72	85	2	6	21	per	lib	mod	mod	mod	nt	fa	nh/0590_nh.bmp
68.40	0.72	86	3	8	122	per	lib	low	mod	low	nt	cr	nh/0023_nh.bmp
69.12	0.72	87	1	8	111	per	con	low	mod	low	nt	cr	nh/1014_nh.bmp
69.84	0.72	88	1	7	65	per	con	mod	mod	mod	nt	cr	nh/0366_nh.bmp
70.56	0.72	89	2	6	67	mem	con	mod	mod	low	tg	ht	wh/0883.bmp
71.28	0.72	90	1	7	77	per	con	mod	mod	mod	tg	ht	wh/0822.bmp
72.00	0.72	91	1	7	22	mem	lib	mod	mod	mod	nt	ht	nh/0337_nh.bmp
72.72	0.72	92	1	5	89	per	con	mod	mod	mod	tg	ms	wh/0978.bmp
73.44	0.72	93	1	8	56	mem	con	mod	mod	low	tg	ht	wh/0403.bmp
74.16	0.72	94	2	7	23	mem	lib	mod	mod	mod	tg	ht	wh/0408.bmp
74.88	0.72	95	1	8	120	per	lib	low	mod	low	tg	ht	wh/0170.bmp
75.60	0.72	96	1	8	125	per	lib	low	mod	low	tg	ms	wh/0986.bmp
76.32	0.72	97	1	8	77	mem	lib	mod	mod	low	tg	ht	wh/0073.bmp
77.04	0.72	98	1	8	17	per	lib	mod	mod	mod	nt	fa	nh/0020_nh.bmp
77.76	0.72	99	1	7	93	per	lib	low	low	low	nt	fa	nh/0005_nh.bmp
78.48	0.72	100	1	7	69	per	con	mod	mod	mod	nt	cr	nh/0179_nh.bmp
79.20	0.72	101	1	6	95	per	con	low	mod	low	nt	cr	nh/0848_nh.bmp
79.92	0.72	102	1	8	49	mem	con	mod	mod	low	nt	ms	nh/0374_nh.bmp
80.64	0.72	103	1	8	100	per	con	low	mod	low	tg	ms	wh/0254.bmp
81.36	0.72	104	2	8	77	mem	lib	mod	mod	low	tg	ht	wh/0073.bmp
82.08	0.72	105	2	8	111	per	con	low	mod	low	nt	cr	nh/1014_nh.bmp
82.80	0.72	106	1	7	39	mem	con	mod	mod	mod	tg	ms	wh/0871.bmp
83.52	0.72	107	2	8	70	mem	lib	mod	mod	low	nt	ht	nh/0875_nh.bmp
84.24	0.72	108	1	8	112	per	con	low	mod	low	nt	cr	nh/0064_nh.bmp
84.96	0.72	109	1	7	46	mem	con	mod	mod	mod	nt	n/a	nh/0851_nh.bmp
85.68	0.72	110	2	6	76	mem	con	mod	mod	low	nt	ms	nh/0024_nh.bmp
86.40	0.72	111	2	7	65	per	con	mod	mod	mod	nt	cr	nh/0366_nh.bmp
87.12	0.72	112	1	8	73	mem	lib	mod	mod	low	nt	ht	nh/1004_nh.bmp
87.84	0.72	113	1	5	86	per	con	mod	mod	mod	nt	fa	nh/0586_nh.bmp
88.56	0.72	114	3	7	65	per	con	mod	mod	mod	nt	cr	nh/0366_nh.bmp
89.28	0.72	115	2	8	17	per	lib	mod	mod	mod	nt	fa	nh/0020_nh.bmp
90.00	0.72	116	2	7	40	mem	con	mod	mod	mod	tg	ht	wh/0609.bmp
90.72	0.72	117	1	8	61	mem	con	mod	mod	low	nt	ms	nh/0578_nh.bmp
91.44	0.72	118	2	5	89	per	con	mod	mod	mod	tg	ms	wh/0978.bmp
92.16	0.72	119	2	8	66	mem	lib	mod	mod	low	nt	ht	nh/0241_nh.bmp
92.88	0.72	120	3	8	17	per	lib	mod	mod	mod	nt	fa	nh/0020_nh.bmp
93.60	0.72	121	1	6	96	per	con	low	mod	low	tg	ms	wh/0172.bmp
94.32	0.72	122	1	8	53	mem	con	mod	mod	low	nt	ms	nh/0165_nh.bmp
95.04	0.72	123	1	5	19	mem	con	mod	mod	mod	nt	ht	nh/0060_nh.bmp
95.76	0.72	124	1	6	104	mem	con	low	low	low	nt	ms	nh/0994_nh.bmp
96.48	0.72	125	1	7	43	mem	con	mod	mod	mod	tg	ms	wh/0269.bmp
97.20	0.72	126	3	6	85	per	con	low	mod	low	tg	ms	wh/0521.bmp
97.92	0.72	127	3	8	77	mem	lib	mod	mod	low	tg	ht	wh/0073.bmp
98.64	0.72	128	2	6	62	mem	lib	mod	mod	low	nt	ht	nh/0248_nh.bmp
99.36	0.72	129	2	8	101	per	con	low	mod	low	nt	cr	nh/0111_nh.bmp
100.08	0.72	130	2	8	49	mem	con	mod	mod	low	nt	ms	nh/0374_nh.bmp
100.80	0.72	131	1	6	58	mem	lib	mod	mod	low	nt	ht	nh/0114_nh.bmp
101.52	0.72	132	3	8	111	per	con	low	mod	low	nt	cr	nh/1014_nh.bmp
102.24	0.72	133	3	8	70	mem	lib	mod	mod	low	nt	ht	nh/0875_nh.bmp
102.96	0.72	134	1	7	78	per	con	mod	mod	mod	nt	cr	nh/0629_nh.bmp
103.68	0.72	135	2	7	43	mem	con	mod	mod	mod	tg	ms	wh/0269.bmp
104.40	0.72	136	2	6	95	per	con	low	mod	low	nt	cr	nh/0848_nh.bmp
105.12	0.72	137	2	7	42	mem	con	mod	mod	mod	nt	ms	nh/0495_nh.bmp
105.84	0.72	138	2	8	51	mem	con	mod	mod	low	tg	ht	wh/0793.bmp
106.56	0.72	139	2	6	58	mem	lib	mod	mod	low	nt	ht	nh/0114_nh.bmp
107.28	0.72	140	2	8	126	per	lib	low	mod	low	nt	fa	nh/0018_nh.bmp
108.00	0.72	141	3	7	44	mem	con	mod	mod	mod	tg	ht	wh/0602.bmp
108.72	0.72	142	3	8	126	per	lib	low	mod	low	nt	fa	nh/0018_nh.bmp
109.44	0.72	143	1	6	24	per	lib	mod	mod	mod	tg	ht	wh/0821.bmp
110.16	0.72	144	1	5	18	mem	con	mod	mod	mod	nt	ms	nh/0294_nh.bmp
110.88	0.72	145	3	5	124	mem	lib	mod	mod	mod	nt	ht	nh/0564_nh.bmp
111.60	0.72	146	3	6	76	mem	con	mod	mod	low	nt	ms	nh/0024_nh.bmp
112.32	0.72	147	4	6	76	mem	con	mod	mod	low	nt	ms	nh/0024_nh.bmp
113.04	0.72	148	2	6	44	per	lib	low	mod	low	tg	ht	wh/0262.bmp
113.76	0.72	149	1	5	107	mem	lib	low	low	low	nt	ht	nh/0468_nh.bmp
114.48	0.72	150	3	6	21	per	lib	mod	mod	mod	nt	fa	nh/0590_nh.bmp
115.20	0.72	151	2	6	42	per	lib	low	mod	low	tg	ht	wh/0143.bmp
115.92	0.72	152	1	7	24	mem	lib	mod	mod	mod	nt	ht	nh/0560_nh.bmp
116.64	0.72	153	2	8	61	mem	con	mod	mod	low	nt	ms	nh/0578_nh.bmp
117.36	0.72	154	2	8	116	per	lib	low	mod	low	tg	ht	wh/1019.bmp
118.08	0.72	155	1	5	80	mem	con	low	low	mod	tg	ms	wh/0084.bmp
118.80	0.72	156	4	8	111	per	con	low	mod	low	nt	cr	nh/1014_nh.bmp
119.52	0.72	157	1	6	75	mem	con	mod	mod	low	nt	ms	nh/0612_nh.bmp
120.24	0.72	158	2	7	29	mem	lib	mod	mod	mod	tg	ht	wh/0797.bmp
120.96	0.72	159	1	5	120	mem	lib	mod	mod	mod	nt	ht	nh/0318_nh.bmp
121.68	0.72	160	3	6	49	mem	lib	mod	mod	low	nt	ht	nh/0814_nh.bmp
122.40	0.72	161	1	8	47	mem	lib	low	low	low	tg	ht	wh/0376.bmp
123.12	0.72	162	4	8	109	per	con	low	mod	low	nt	cr	nh/0640_nh.bmp
123.84	0.72	163	1	8	83	per	con	mod	low	mod	nt	cr	nh/0051_nh.bmp
124.56	0.72	164	2	8	68	mem	lib	mod	mod	low	tg	ht	wh/0582.bmp
125.28	0.72	165	2	5	18	mem	con	mod	mod	mod	nt	ms	nh/0294_nh.bmp
126.00	0.72	166	3	6	42	per	lib	low	mod	low	tg	ht	wh/0143.bmp
126.72	0.72	167	1	5	48	per	con	low	low	low	tg	ms	wh/0202.bmp
127.44	0.72	168	2	5	21	mem	con	mod	mod	mod	tg	ht	wh/0420.bmp
128.16	0.72	169	1	7	50	mem	lib	low	low	mod	nt	ht	nh/0749_nh.bmp
128.88	0.72	170	2	5	25	mem	con	mod	mod	mod	tg	ms	wh/0958.bmp
129.60	0.72	171	1	8	9	mem	con	low	low	low	tg	ms	wh/0617.bmp
130.32	0.72	172	2	8	73	mem	lib	mod	mod	low	nt	ht	nh/1004_nh.bmp
131.04	0.72	173	3	8	49	mem	con	mod	mod	low	nt	ms	nh/0374_nh.bmp
131.76	0.72	174	2	5	86	per	con	mod	mod	mod	nt	fa	nh/0586_nh.bmp
132.48	0.72	175	2	7	69	per	con	mod	mod	mod	nt	cr	nh/0179_nh.bmp
133.20	0.72	176	1	8	69	mem	lib	mod	mod	low	nt	ht	nh/0574_nh.bmp
133.92	0.72	177	3	5	89	per	con	mod	mod	mod	tg	ms	wh/0978.bmp
134.64	0.72	178	1	8	118	per	lib	low	mod	low	nt	cr	nh/0678_nh.bmp
135.36	0.72	179	1	5	43	per	con	low	low	low	nt	cr	nh/0147_nh.bmp
136.08	0.72	180	2	6	69	mem	con	mod	mod	low	tg	ms	wh/0157.bmp
136.80	0.72	181	4	8	126	per	lib	low	mod	low	nt	fa	nh/0018_nh.bmp
137.52	0.72	182	1	6	40	per	lib	low	mod	low	nt	fa	nh/0647_nh.bmp
138.24	0.72	183	1	8	98	per	con	low	mod	low	tg	ms	wh/0139.bmp
138.96	0.72	184	1	5	36	per	con	low	low	low	tg	ms	wh/0058.bmp
139.68	0.72	185	1	7	76	per	con	mod	mod	mod	tg	ht	wh/0971.bmp
140.40	0.72	186	1	6	70	mem	con	mod	mod	low	tg	ht	wh/0253.bmp
141.12	0.72	187	2	7	70	per	con	mod	mod	mod	tg	ms	wh/0436.bmp
141.84	0.72	188	3	8	68	mem	lib	mod	mod	low	tg	ht	wh/0582.bmp
142.56	0.72	189	1	5	95	per	con	mod	mod	mod	nt	cr	nh/0300_nh.bmp
143.28	0.72	190	1	6	30	per	lib	mod	mod	mod	nt	fa	nh/0915_nh.bmp
144.00	0.72	191	1	8	90	per	con	mod	low	mod	tg	ht	wh/0334.bmp
144.72	0.72	192	3	8	66	mem	lib	mod	mod	low	nt	ht	nh/0241_nh.bmp
145.44	0.72	193	1	8	75	mem	lib	mod	mod	low	tg	ht	wh/0820.bmp
146.16	0.72	194	1	5	17	mem	con	mod	mod	mod	tg	ht	wh/0686.bmp
146.88	0.72	195	1	6	94	per	con	low	mod	low	nt	cr	nh/0939_nh.bmp
147.60	0.72	196	4	8	49	mem	con	mod	mod	low	nt	ms	nh/0374_nh.bmp
148.32	0.72	197	1	7	9	per	con	low	low	low	nt	cr	nh/0825_nh.bmp
149.04	0.72	198	4	6	85	per	con	low	mod	low	tg	ms	wh/0521.bmp
149.76	0.72	199	2	6	66	mem	con	mod	mod	low	tg	ht	wh/0297.bmp
150.48	0.72	200	1	6	63	mem	lib	mod	mod	low	tg	ht	wh/0401.bmp
151.20	0.72	201	3	6	66	mem	con	mod	mod	low	tg	ht	wh/0297.bmp
151.92	0.72	202	2	8	107	per	con	low	mod	low	tg	ms	wh/0780.bmp
152.64	0.72	203	1	6	89	per	con	low	mod	low	nt	cr	nh/0255_nh.bmp
153.36	0.72	204	1	6	92	per	con	low	mod	low	tg	ht	wh/0450.bmp
154.08	0.72	205	2	7	39	mem	con	mod	mod	mod	tg	ms	wh/0871.bmp
154.80	0.72	206	5	6	85	per	con	low	mod	low	tg	ms	wh/0521.bmp
155.52	0.72	207	2	8	27	per	lib	mod	mod	mod	tg	ht	wh/0603.bmp
156.24	0.72	208	1	5	31	mem	con	mod	mod	mod	nt	ht	nh/0888_nh.bmp
156.96	0.72	209	1	6	32	per	lib	mod	mod	mod	nt	fa	nh/0968_nh.bmp
157.68	0.72	210	4	6	42	per	lib	low	mod	low	tg	ht	wh/0143.bmp
158.40	0.72	211	2	8	75	mem	lib	mod	mod	low	tg	ht	wh/0820.bmp
159.12	0.72	212	2	7	47	mem	con	mod	mod	mod	nt	ms	nh/0715_nh.bmp
159.84	0.72	213	1	8	80	mem	lib	mod	mod	low	tg	ms	wh/0491.bmp
160.56	0.72	214	2	6	89	per	con	low	mod	low	nt	cr	nh/0255_nh.bmp
161.28	0.72	215	1	7	89	per	lib	low	low	low	tg	ht	wh/0224.bmp
162.00	0.72	216	1	6	91	per	con	low	mod	low	tg	ms	wh/0388.bmp
162.72	0.72	217	2	6	26	per	lib	mod	mod	mod	tg	ht	wh/0638.bmp
163.44	0.72	218	3	5	87	per	con	mod	mod	mod	nt	cr	nh/0832_nh.bmp
164.16	0.72	219	1	7	51	mem	lib	low	low	mod	nt	ht	nh/0907_nh.bmp
164.88	0.72	220	2	8	112	per	con	low	mod	low	nt	cr	nh/0064_nh.bmp
165.60	0.72	221	1	8	22	per	lib	mod	mod	mod	nt	fa	nh/0717_nh.bmp
166.32	0.72	222	3	5	93	per	con	mod	mod	mod	nt	cr	nh/0852_nh.bmp
167.04	0.72	223	1	8	92	per	con	mod	low	mod	nt	cr	nh/0537_nh.bmp
167.76	0.72	224	1	8	24	per	lib	mod	mod	mod	nt	cr	nh/0378_nh.bmp
168.48	0.72	225	1	7	85	per	lib	low	low	low	nt	fa	nh/0144_nh.bmp
169.20	0.72	226	1	5	90	per	con	mod	mod	mod	tg	ht	wh/0552.bmp
169.92	0.72	227	2	8	22	per	lib	mod	mod	mod	nt	fa	nh/0717_nh.bmp
170.64	0.72	228	2	7	76	per	con	mod	mod	mod	tg	ht	wh/0971.bmp
171.36	0.72	229	2	6	73	mem	con	mod	mod	low	nt	ms	nh/0519_nh.bmp
172.08	0.72	230	3	8	112	per	con	low	mod	low	nt	cr	nh/0064_nh.bmp
172.80	0.72	231	2	6	40	per	lib	low	mod	low	nt	fa	nh/0647_nh.bmp
173.52	0.72	232	2	7	38	mem	con	mod	mod	mod	nt	ht	nh/0764_nh.bmp
174.24	0.72	233	2	8	120	per	lib	low	mod	low	tg	ht	wh/0170.bmp
174.96	0.72	234	4	6	21	per	lib	mod	mod	mod	nt	fa	nh/0590_nh.bmp
175.68	0.72	235	2	8	24	per	lib	mod	mod	mod	nt	cr	nh/0378_nh.bmp
176.40	0.72	236	1	5	60	per	lib	mod	low	mod	tg	ht	wh/0622.bmp
177.12	0.72	237	1	7	60	mem	lib	low	low	mod	nt	ht	nh/0180_nh.bmp
177.84	0.72	238	1	5	16	per	lib	low	low	low	tg	ht	wh/0990.bmp
178.56	0.72	239	2	6	96	per	con	low	mod	low	tg	ms	wh/0172.bmp
179.28	0.72	240	4	7	65	per	con	mod	mod	mod	nt	cr	nh/0366_nh.bmp
180.00	0.72	241	2	6	38	per	lib	low	mod	low	tg	ht	wh/0108.bmp
180.72	0.72	242	4	7	44	mem	con	mod	mod	mod	tg	ht	wh/0602.bmp
181.44	0.72	243	4	8	17	per	lib	mod	mod	mod	nt	fa	nh/0020_nh.bmp
182.16	0.72	244	1	8	28	per	lib	mod	mod	mod	nt	cr	nh/0952_nh.bmp
182.88	0.72	245	1	6	18	per	lib	mod	mod	mod	tg	ht	wh/0275.bmp
183.60	0.72	246	2	7	30	mem	lib	mod	mod	mod	nt	ht	nh/0623_nh.bmp
184.32	0.72	247	4	8	112	per	con	low	mod	low	nt	cr	nh/0064_nh.bmp
185.04	0.72	248	3	7	69	per	con	mod	mod	mod	nt	cr	nh/0179_nh.bmp
185.76	0.72	249	1	7	63	mem	lib	low	low	mod	tg	ht	wh/0948.bmp
186.48	0.72	250	2	8	118	per	lib	low	mod	low	nt	cr	nh/0678_nh.bmp
187.20	0.72	251	5	6	76	mem	con	mod	mod	low	nt	ms	nh/0024_nh.bmp
187.92	0.72	252	1	6	105	mem	con	low	low	low	tg	ht	wh/0728.bmp
188.64	0.72	253	4	6	49	mem	lib	mod	mod	low	nt	ht	nh/0814_nh.bmp
189.36	0.72	254	3	6	95	per	con	low	mod	low	nt	cr	nh/0848_nh.bmp
190.08	0.72	255	2	7	73	per	con	mod	mod	mod	nt	cr	nh/0056_nh.bmp
190.80	0.72	256	2	6	32	per	lib	mod	mod	mod	nt	fa	nh/0968_nh.bmp
191.52	0.72	257	3	6	38	per	lib	low	mod	low	tg	ht	wh/0108.bmp
192.24	0.72	258	1	6	109	mem	con	low	low	low	tg	ms	wh/0518.bmp
192.96	0.72	259	3	7	73	per	con	mod	mod	mod	nt	cr	nh/0056_nh.bmp
193.68	0.72	260	3	7	70	per	con	mod	mod	mod	tg	ms	wh/0436.bmp
194.40	0.72	261	3	5	25	mem	con	mod	mod	mod	tg	ms	wh/0958.bmp
195.12	0.72	262	4	5	89	per	con	mod	mod	mod	tg	ms	wh/0978.bmp
195.84	0.72	263	3	8	50	mem	con	mod	mod	low	tg	ht	wh/0118.bmp
196.56	0.72	264	3	6	69	mem	con	mod	mod	low	tg	ms	wh/0157.bmp
197.28	0.72	265	1	7	113	mem	con	low	low	mod	tg	ht	wh/0559.bmp
198.00	0.72	266	2	8	125	per	lib	low	mod	low	tg	ms	wh/0986.bmp
198.72	0.72	267	2	5	90	per	con	mod	mod	mod	tg	ht	wh/0552.bmp
199.44	0.72	268	1	8	10	mem	con	low	low	low	tg	ms	wh/0063.bmp
200.16	0.72	269	4	5	25	mem	con	mod	mod	mod	tg	ms	wh/0958.bmp
200.88	0.72	270	3	8	118	per	lib	low	mod	low	nt	cr	nh/0678_nh.bmp
201.60	0.72	271	3	6	73	mem	con	mod	mod	low	nt	ms	nh/0519_nh.bmp
202.32	0.72	272	1	5	98	mem	lib	low	low	low	nt	ht	nh/0136_nh.bmp
203.04	0.72	273	4	8	118	per	lib	low	mod	low	nt	cr	nh/0678_nh.bmp
203.76	0.72	274	2	7	20	mem	lib	mod	mod	mod	tg	ht	wh/0833.bmp
204.48	0.72	275	4	6	69	mem	con	mod	mod	low	tg	ms	wh/0157.bmp
205.20	0.72	276	1	5	112	mem	lib	low	low	low	nt	ht	nh/0865_nh.bmp
205.92	0.72	277	3	7	20	mem	lib	mod	mod	mod	tg	ht	wh/0833.bmp
206.64	0.72	278	2	8	97	per	con	low	mod	low	tg	ms	wh/0012.bmp
207.36	0.72	279	3	8	101	per	con	low	mod	low	nt	cr	nh/0111_nh.bmp
208.08	0.72	280	1	6	47	per	lib	low	mod	low	nt	fa	nh/0247_nh.bmp
208.80	0.72	281	1	6	19	per	lib	mod	mod	mod	nt	cr	nh/0827_nh.bmp
209.52	0.72	282	1	6	13	mem	lib	low	low	mod	tg	ht	wh/0221.bmp
210.24	0.72	283	1	5	114	mem	lib	mod	mod	mod	tg	ht	wh/0399.bmp
210.96	0.72	284	4	7	20	mem	lib	mod	mod	mod	tg	ht	wh/0833.bmp
211.68	0.72	285	3	8	97	per	con	low	mod	low	tg	ms	wh/0012.bmp
212.40	0.72	286	2	5	127	mem	lib	mod	mod	mod	tg	ht	wh/0385.bmp
213.12	0.72	287	1	5	91	per	con	mod	mod	mod	tg	ht	wh/0763.bmp
213.84	0.72	288	1	5	113	mem	lib	mod	mod	mod	nt	ht	nh/0835_nh.bmp
214.56	0.72	289	2	5	19	mem	con	mod	mod	mod	nt	ht	nh/0060_nh.bmp
215.28	0.72	290	4	8	77	mem	lib	mod	mod	low	tg	ht	wh/0073.bmp
216.00	0.72	291	2	5	31	mem	con	mod	mod	mod	nt	ht	nh/0888_nh.bmp
216.72	0.72	292	1	8	20	per	lib	mod	mod	mod	tg	ht	wh/0694.bmp
217.44	0.72	293	2	5	120	mem	lib	mod	mod	mod	nt	ht	nh/0318_nh.bmp
218.16	0.72	294	2	8	53	mem	con	mod	mod	low	nt	ms	nh/0165_nh.bmp
218.88	0.72	295	3	8	116	per	lib	low	mod	low	tg	ht	wh/1019.bmp
219.60	0.72	296	2	7	22	mem	lib	mod	mod	mod	nt	ht	nh/0337_nh.bmp
220.32	0.72	297	2	5	125	mem	lib	mod	mod	mod	nt	ht	nh/0086_nh.bmp
221.04	0.72	298	1	5	115	mem	lib	mod	mod	mod	tg	ht	wh/0778.bmp
221.76	0.72	299	3	7	76	per	con	mod	mod	mod	tg	ht	wh/0971.bmp
222.48	0.72	300	3	7	38	mem	con	mod	mod	mod	nt	ht	nh/0764_nh.bmp
223.20	0.72	301	2	6	91	per	con	low	mod	low	tg	ms	wh/0388.bmp
223.92	0.72	302	1	7	21	mem	lib	mod	mod	mod	nt	ht	nh/0995_nh.bmp
224.64	0.72	303	4	7	76	per	con	mod	mod	mod	tg	ht	wh/0971.bmp
225.36	0.72	304	3	8	125	per	lib	low	mod	low	tg	ms	wh/0986.bmp
226.08	0.72	305	1	5	103	mem	lib	low	low	low	nt	ht	nh/0285_nh.bmp
226.80	0.72	306	1	6	115	per	con	mod	low	mod	tg	ht	wh/0839.bmp
227.52	0.72	307	5	7	76	per	con	mod	mod	mod	tg	ht	wh/0971.bmp
228.24	0.72	308	2	5	91	per	con	mod	mod	mod	tg	ht	wh/0763.bmp
228.96	0.72	309	2	8	20	per	lib	mod	mod	mod	tg	ht	wh/0694.bmp
229.68	0.72	310	3	7	43	mem	con	mod	mod	mod	tg	ms	wh/0269.bmp
230.40	0.72	311	4	6	73	mem	con	mod	mod	low	nt	ms	nh/0519_nh.bmp
231.12	0.72	312	3	5	127	mem	lib	mod	mod	mod	tg	ht	wh/0385.bmp
231.84	0.72	313	4	7	69	per	con	mod	mod	mod	nt	cr	nh/0179_nh.bmp
232.56	0.72	314	3	6	46	per	lib	low	mod	low	nt	fa	nh/0164_nh.bmp
233.28	0.72	315	4	8	66	mem	lib	mod	mod	low	nt	ht	nh/0241_nh.bmp
234.00	0.72	316	2	6	35	per	lib	low	mod	low	tg	ms	wh/0249.bmp
234.72	0.72	317	5	5	25	mem	con	mod	mod	mod	tg	ms	wh/0958.bmp
235.44	0.72	318	2	6	61	mem	lib	mod	mod	low	tg	ht	wh/0394.bmp
236.16	0.72	319	3	8	120	per	lib	low	mod	low	tg	ht	wh/0170.bmp
236.88	0.72	320	2	7	24	mem	lib	mod	mod	mod	nt	ht	nh/0560_nh.bmp
237.60	0.72	321	1	6	34	per	lib	low	mod	low	nt	cr	nh/0734_nh.bmp
238.32	0.72	322	3	5	82	per	con	mod	mod	mod	tg	ht	wh/0544.bmp
239.04	0.72	323	1	7	59	mem	lib	low	low	mod	tg	ht	wh/0837.bmp
239.76	0.72	324	5	6	21	per	lib	mod	mod	mod	nt	fa	nh/0590_nh.bmp
240.48	0.72	325	2	8	80	mem	lib	mod	mod	low	tg	ms	wh/0491.bmp
241.20	0.72	326	2	6	19	per	lib	mod	mod	mod	nt	cr	nh/0827_nh.bmp
241.92	0.72	327	2	7	77	per	con	mod	mod	mod	tg	ht	wh/0822.bmp
242.64	0.72	328	4	5	87	per	con	mod	mod	mod	nt	cr	nh/0832_nh.bmp
243.36	0.72	329	2	6	31	per	lib	mod	mod	mod	tg	ht	wh/0666.bmp
244.08	0.72	330	3	6	32	per	lib	mod	mod	mod	nt	fa	nh/0968_nh.bmp
244.80	0.72	331	3	7	47	mem	con	mod	mod	mod	nt	ms	nh/0715_nh.bmp
245.52	0.72	332	3	5	125	mem	lib	mod	mod	mod	nt	ht	nh/0086_nh.bmp
246.24	0.72	333	2	8	21	per	lib	mod	mod	mod	tg	ht	wh/0556.bmp
246.96	0.72	334	4	8	116	per	lib	low	mod	low	tg	ht	wh/1019.bmp
247.68	0.72	335	1	6	117	per	con	mod	low	mod	tg	ht	wh/0349.bmp
248.40	0.72	336	1	8	19	per	lib	mod	mod	mod	tg	ht	wh/0239.bmp
249.12	0.72	337	2	5	23	mem	con	mod	mod	mod	tg	ht	wh/0546.bmp
249.84	0.72	338	5	7	65	per	con	mod	mod	mod	nt	cr	nh/0366_nh.bmp
250.56	0.72	339	3	6	44	per	lib	low	mod	low	tg	ht	wh/0262.bmp
251.28	0.72	340	1	6	4	mem	lib	low	low	mod	nt	ht	nh/1002_nh.bmp
252.00	0.72	341	2	5	17	mem	con	mod	mod	mod	tg	ht	wh/0686.bmp
252.72	0.72	342	4	8	57	mem	con	mod	mod	low	tg	ht	wh/0746.bmp
253.44	0.72	343	3	6	96	per	con	low	mod	low	tg	ms	wh/0172.bmp
254.16	0.72	344	3	6	19	per	lib	mod	mod	mod	nt	cr	nh/0827_nh.bmp
254.88	0.72	345	3	6	31	per	lib	mod	mod	mod	tg	ht	wh/0666.bmp
255.60	0.72	346	2	6	30	per	lib	mod	mod	mod	nt	fa	nh/0915_nh.bmp
256.32	0.72	347	4	6	44	per	lib	low	mod	low	tg	ht	wh/0262.bmp
257.04	0.72	348	1	6	82	per	con	low	mod	low	nt	fa	nh/0042_nh.bmp
257.76	0.72	349	4	8	68	mem	lib	mod	mod	low	tg	ht	wh/0582.bmp
258.48	0.72	350	1	5	73	mem	con	low	low	mod	nt	ms	nh/0924_nh.bmp
259.20	0.72	351	1	5	59	per	lib	mod	low	mod	tg	ht	wh/0402.bmp
259.92	0.72	352	1	7	79	per	con	mod	mod	mod	tg	ht	wh/0549.bmp
260.64	0.72	353	2	6	70	mem	con	mod	mod	low	tg	ht	wh/0253.bmp
261.36	0.72	354	1	7	116	mem	con	low	low	mod	nt	n/a	nh/1008_nh.bmp
262.08	0.72	355	1	6	112	mem	con	low	low	low	tg	ms	wh/0106.bmp
262.80	0.72	356	2	7	21	mem	lib	mod	mod	mod	nt	ht	nh/0995_nh.bmp
263.52	0.72	357	4	8	50	mem	con	mod	mod	low	tg	ht	wh/0118.bmp
264.24	0.72	358	3	6	35	per	lib	low	mod	low	tg	ms	wh/0249.bmp
264.96	0.72	359	2	5	114	mem	lib	mod	mod	mod	tg	ht	wh/0399.bmp
265.68	0.72	360	2	5	95	per	con	mod	mod	mod	nt	cr	nh/0300_nh.bmp
266.40	0.72	361	3	8	20	per	lib	mod	mod	mod	tg	ht	wh/0694.bmp
267.12	0.72	362	3	5	23	mem	con	mod	mod	mod	tg	ht	wh/0546.bmp
267.84	0.72	363	3	8	22	per	lib	mod	mod	mod	nt	fa	nh/0717_nh.bmp
268.56	0.72	364	2	6	47	per	lib	low	mod	low	nt	fa	nh/0247_nh.bmp
269.28	0.72	365	2	8	19	per	lib	mod	mod	mod	tg	ht	wh/0239.bmp
270.00	0.72	366	4	6	31	per	lib	mod	mod	mod	tg	ht	wh/0666.bmp
270.72	0.72	367	3	7	23	mem	lib	mod	mod	mod	tg	ht	wh/0408.bmp
271.44	0.72	368	5	7	44	mem	con	mod	mod	mod	tg	ht	wh/0602.bmp
272.16	0.72	369	2	6	92	per	con	low	mod	low	tg	ht	wh/0450.bmp
272.88	0.72	370	1	7	99	per	lib	mod	low	mod	nt	cr	nh/0308_nh.bmp
273.60	0.72	371	4	7	38	mem	con	mod	mod	mod	nt	ht	nh/0764_nh.bmp
274.32	0.72	372	2	6	18	per	lib	mod	mod	mod	tg	ht	wh/0275.bmp
275.04	0.72	373	3	7	39	mem	con	mod	mod	mod	tg	ms	wh/0871.bmp
275.76	0.72	374	3	8	80	mem	lib	mod	mod	low	tg	ms	wh/0491.bmp
276.48	0.72	375	3	8	61	mem	con	mod	mod	low	nt	ms	nh/0578_nh.bmp
277.20	0.72	376	1	8	96	per	con	mod	low	mod	nt	cr	nh/0234_nh.bmp
277.92	0.72	377	1	5	61	per	lib	mod	low	mod	tg	ht	wh/0751.bmp
278.64	0.72	378	1	6	80	mem	con	mod	mod	low	nt	ht	nh/0863_nh.bmp
279.36	0.72	379	5	8	17	per	lib	mod	mod	mod	nt	fa	nh/0020_nh.bmp
280.08	0.72	380	4	7	70	per	con	mod	mod	mod	tg	ms	wh/0436.bmp
280.80	0.72	381	2	6	75	mem	con	mod	mod	low	nt	ms	nh/0612_nh.bmp
281.52	0.72	382	1	5	14	per	lib	low	low	low	nt	fa	nh/0022_nh.bmp
282.24	0.72	383	2	7	46	mem	con	mod	mod	mod	nt	n/a	nh/0851_nh.bmp
282.96	0.72	384	1	5	119	mem	lib	mod	mod	mod	tg	ht	wh/0735.bmp
283.68	0.72	385	3	5	86	per	con	mod	mod	mod	nt	fa	nh/0586_nh.bmp
284.40	0.72	386	4	5	82	per	con	mod	mod	mod	tg	ht	wh/0544.bmp
285.12	0.72	387	4	6	35	per	lib	low	mod	low	tg	ms	wh/0249.bmp
285.84	0.72	388	1	6	98	mem	con	low	low	low	nt	ms	nh/0043_nh.bmp
286.56	0.72	389	1	5	108	mem	lib	low	low	low	tg	ht	wh/1015.bmp
287.28	0.72	390	1	6	50	mem	lib	mod	mod	low	tg	ht	wh/0756.bmp
288.00	0.72	391	1	6	118	per	con	mod	low	mod	nt	cr	nh/0046_nh.bmp
288.72	0.72	392	3	6	89	per	con	low	mod	low	nt	cr	nh/0255_nh.bmp
289.44	0.72	393	4	8	80	mem	lib	mod	mod	low	tg	ms	wh/0491.bmp
290.16	0.72	394	1	5	75	mem	con	low	low	mod	nt	ms	nh/0663_nh.bmp
290.88	0.72	395	5	8	126	per	lib	low	mod	low	nt	fa	nh/0018_nh.bmp
291.60	0.72	396	5	8	118	per	lib	low	mod	low	nt	cr	nh/0678_nh.bmp
292.32	0.72	397	4	8	125	per	lib	low	mod	low	tg	ms	wh/0986.bmp
293.04	0.72	398	3	8	55	mem	con	mod	mod	low	nt	ht	nh/0193_nh.bmp
293.76	0.72	399	3	7	42	mem	con	mod	mod	mod	nt	ms	nh/0495_nh.bmp
294.48	0.72	400	1	5	40	per	con	low	low	low	nt	cr	nh/0506_nh.bmp
295.20	0.72	401	4	7	47	mem	con	mod	mod	mod	nt	ms	nh/0715_nh.bmp
295.92	0.72	402	4	7	42	mem	con	mod	mod	mod	nt	ms	nh/0495_nh.bmp
296.64	0.72	403	3	5	17	mem	con	mod	mod	mod	tg	ht	wh/0686.bmp
297.36	0.72	404	3	5	21	mem	con	mod	mod	mod	tg	ht	wh/0420.bmp
298.08	0.72	405	3	7	46	mem	con	mod	mod	mod	nt	n/a	nh/0851_nh.bmp
298.80	0.72	406	4	7	46	mem	con	mod	mod	mod	nt	n/a	nh/0851_nh.bmp
299.52	0.72	407	2	8	98	per	con	low	mod	low	tg	ms	wh/0139.bmp
300.24	0.72	408	4	8	97	per	con	low	mod	low	tg	ms	wh/0012.bmp
300.96	0.72	409	3	6	70	mem	con	mod	mod	low	tg	ht	wh/0253.bmp
301.68	0.72	410	4	8	61	mem	con	mod	mod	low	nt	ms	nh/0578_nh.bmp
302.40	0.72	411	1	5	34	per	con	low	low	low	nt	cr	nh/0089_nh.bmp
303.12	0.72	412	1	8	2	mem	con	low	low	low	nt	ms	nh/0280_nh.bmp
303.84	0.72	413	3	6	91	per	con	low	mod	low	tg	ms	wh/0388.bmp
304.56	0.72	414	1	7	81	per	lib	low	low	low	tg	ms	wh/0181.bmp
305.28	0.72	415	3	6	58	mem	lib	mod	mod	low	nt	ht	nh/0114_nh.bmp
306.00	0.72	416	3	5	90	per	con	mod	mod	mod	tg	ht	wh/0552.bmp
306.72	0.72	417	1	6	1	mem	lib	low	low	mod	nt	ht	nh/0395_nh.bmp
307.44	0.72	418	5	6	42	per	lib	low	mod	low	tg	ht	wh/0143.bmp
308.16	0.72	419	3	7	17	mem	lib	mod	mod	mod	tg	ht	wh/0599.bmp
308.88	0.72	420	3	5	18	mem	con	mod	mod	mod	nt	ms	nh/0294_nh.bmp
309.60	0.72	421	1	5	37	per	con	low	low	low	tg	ms	wh/0226.bmp
310.32	0.72	422	2	5	119	mem	lib	mod	mod	mod	tg	ht	wh/0735.bmp
311.04	0.72	423	4	5	125	mem	lib	mod	mod	mod	nt	ht	nh/0086_nh.bmp
311.76	0.72	424	5	7	42	mem	con	mod	mod	mod	nt	ms	nh/0495_nh.bmp
312.48	0.72	425	2	6	94	per	con	low	mod	low	nt	cr	nh/0939_nh.bmp
313.20	0.72	426	5	8	109	per	con	low	mod	low	nt	cr	nh/0640_nh.bmp
313.92	0.72	427	2	6	63	mem	lib	mod	mod	low	tg	ht	wh/0401.bmp
314.64	0.72	428	2	6	80	mem	con	mod	mod	low	nt	ht	nh/0863_nh.bmp
315.36	0.72	429	5	8	80	mem	lib	mod	mod	low	tg	ms	wh/0491.bmp
316.08	0.72	430	3	7	29	mem	lib	mod	mod	mod	tg	ht	wh/0797.bmp
316.80	0.72	431	4	6	46	per	lib	low	mod	low	nt	fa	nh/0164_nh.bmp
317.52	0.72	432	4	6	58	mem	lib	mod	mod	low	nt	ht	nh/0114_nh.bmp
318.24	0.72	433	1	5	62	per	lib	mod	low	mod	nt	cr	nh/0945_nh.bmp
318.96	0.72	434	3	8	19	per	lib	mod	mod	mod	tg	ht	wh/0239.bmp
319.68	0.72	435	5	5	125	mem	lib	mod	mod	mod	nt	ht	nh/0086_nh.bmp
320.40	0.72	436	1	5	41	per	con	low	low	low	nt	cr	nh/0587_nh.bmp
321.12	0.72	437	1	5	104	mem	lib	low	low	low	tg	ht	wh/0154.bmp
321.84	0.72	438	3	6	75	mem	con	mod	mod	low	nt	ms	nh/0612_nh.bmp
322.56	0.72	439	4	6	91	per	con	low	mod	low	tg	ms	wh/0388.bmp
323.28	0.72	440	4	8	122	per	lib	low	mod	low	nt	cr	nh/0023_nh.bmp
324.00	0.72	441	1	7	125	mem	con	low	low	mod	tg	ms	wh/0532.bmp
324.72	0.72	442	5	7	38	mem	con	mod	mod	mod	nt	ht	nh/0764_nh.bmp
325.44	0.72	443	3	7	40	mem	con	mod	mod	mod	tg	ht	wh/0609.bmp
326.16	0.72	444	4	7	43	mem	con	mod	mod	mod	tg	ms	wh/0269.bmp
326.88	0.72	445	3	6	80	mem	con	mod	mod	low	nt	ht	nh/0863_nh.bmp
327.60	0.72	446	3	7	22	mem	lib	mod	mod	mod	nt	ht	nh/0337_nh.bmp
328.32	0.72	447	3	6	67	mem	con	mod	mod	low	tg	ht	wh/0883.bmp
329.04	0.72	448	2	5	115	mem	lib	mod	mod	mod	tg	ht	wh/0778.bmp
329.76	0.72	449	3	6	63	mem	lib	mod	mod	low	tg	ht	wh/0401.bmp
330.48	0.72	450	2	6	82	per	con	low	mod	low	nt	fa	nh/0042_nh.bmp
331.20	0.72	451	5	8	97	per	con	low	mod	low	tg	ms	wh/0012.bmp
331.92	0.72	452	3	5	120	mem	lib	mod	mod	mod	nt	ht	nh/0318_nh.bmp
332.64	0.72	453	1	8	34	mem	lib	low	low	low	tg	ht	wh/0352.bmp
333.36	0.72	454	5	8	111	per	con	low	mod	low	nt	cr	nh/1014_nh.bmp
334.08	0.72	455	2	8	28	per	lib	mod	mod	mod	nt	cr	nh/0952_nh.bmp
334.80	0.72	456	5	6	31	per	lib	mod	mod	mod	tg	ht	wh/0666.bmp
335.52	0.72	457	2	8	100	per	con	low	mod	low	tg	ms	wh/0254.bmp
336.24	0.72	458	4	7	73	per	con	mod	mod	mod	nt	cr	nh/0056_nh.bmp
336.96	0.72	459	4	8	101	per	con	low	mod	low	nt	cr	nh/0111_nh.bmp
337.68	0.72	460	1	6	127	per	con	mod	low	mod	nt	cr	nh/0921_nh.bmp
338.40	0.72	461	5	6	44	per	lib	low	mod	low	tg	ht	wh/0262.bmp
339.12	0.72	462	4	8	22	per	lib	mod	mod	mod	nt	fa	nh/0717_nh.bmp
339.84	0.72	463	1	8	7	mem	con	low	low	low	tg	ms	wh/0045.bmp
340.56	0.72	464	1	8	37	mem	lib	low	low	low	tg	ht	wh/0480.bmp
341.28	0.72	465	4	8	70	mem	lib	mod	mod	low	nt	ht	nh/0875_nh.bmp
342.00	0.72	466	4	7	17	mem	lib	mod	mod	mod	tg	ht	wh/0599.bmp
342.72	0.72	467	4	5	17	mem	con	mod	mod	mod	tg	ht	wh/0686.bmp
343.44	0.72	468	3	6	26	per	lib	mod	mod	mod	tg	ht	wh/0638.bmp
344.16	0.72	469	4	8	19	per	lib	mod	mod	mod	tg	ht	wh/0239.bmp
344.88	0.72	470	3	7	24	mem	lib	mod	mod	mod	nt	ht	nh/0560_nh.bmp
345.60	0.72	471	4	6	26	per	lib	mod	mod	mod	tg	ht	wh/0638.bmp
346.32	0.72	472	5	6	49	mem	lib	mod	mod	low	nt	ht	nh/0814_nh.bmp
347.04	0.72	473	1	7	64	mem	lib	low	low	mod	tg	ht	wh/0016.bmp
347.76	0.72	474	4	5	124	mem	lib	mod	mod	mod	nt	ht	nh/0564_nh.bmp
348.48	0.72	475	4	5	86	per	con	mod	mod	mod	nt	fa	nh/0586_nh.bmp
349.20	0.72	476	5	8	116	per	lib	low	mod	low	tg	ht	wh/1019.bmp
349.92	0.72	477	4	8	55	mem	con	mod	mod	low	nt	ht	nh/0193_nh.bmp
350.64	0.72	478	5	8	50	mem	con	mod	mod	low	tg	ht	wh/0118.bmp
351.36	0.72	479	1	5	44	per	con	low	low	low	tg	ms	wh/1011.bmp
352.08	0.72	480	1	6	12	mem	lib	low	low	mod	nt	ht	nh/0381_nh.bmp
352.80	0.72	481	2	8	69	mem	lib	mod	mod	low	nt	ht	nh/0574_nh.bmp
353.52	0.72	482	3	5	31	mem	con	mod	mod	mod	nt	ht	nh/0888_nh.bmp
354.24	0.72	483	1	8	43	mem	lib	low	low	low	nt	ht	nh/0135_nh.bmp
354.96	0.72	484	4	5	21	mem	con	mod	mod	mod	tg	ht	wh/0420.bmp
355.68	0.72	485	3	6	30	per	lib	mod	mod	mod	nt	fa	nh/0915_nh.bmp
356.40	0.72	486	4	5	31	mem	con	mod	mod	mod	nt	ht	nh/0888_nh.bmp
357.12	0.72	487	1	8	127	per	lib	low	mod	low	tg	ht	wh/0892.bmp
357.84	0.72	488	6	8	109	per	con	low	mod	low	nt	cr	nh/0640_nh.bmp
358.56	0.72	489	4	6	70	mem	con	mod	mod	low	tg	ht	wh/0253.bmp
359.28	0.72	490	1	6	124	per	con	mod	low	mod	tg	ms	wh/0186.bmp
360.00	0.72	491	1	8	44	mem	lib	low	low	low	nt	ht	nh/0260_nh.bmp
360.72	0.72	492	2	8	127	per	lib	low	mod	low	tg	ht	wh/0892.bmp
361.44	0.72	493	3	5	95	per	con	mod	mod	mod	nt	cr	nh/0300_nh.bmp
362.16	0.72	494	3	8	98	per	con	low	mod	low	tg	ms	wh/0139.bmp
362.88	0.72	495	3	8	21	per	lib	mod	mod	mod	tg	ht	wh/0556.bmp
363.60	0.72	496	3	6	57	mem	lib	mod	mod	low	tg	ht	wh/0453.bmp
364.32	0.72	497	5	8	55	mem	con	mod	mod	low	nt	ht	nh/0193_nh.bmp
365.04	0.72	498	5	8	66	mem	lib	mod	mod	low	nt	ht	nh/0241_nh.bmp
365.76	0.72	499	5	7	20	mem	lib	mod	mod	mod	tg	ht	wh/0833.bmp
366.48	0.72	500	2	8	119	per	lib	low	mod	low	nt	fa	nh/0618_nh.bmp
367.20	0.72	501	3	8	27	per	lib	mod	mod	mod	tg	ht	wh/0603.bmp
367.92	0.72	502	1	7	87	per	lib	low	low	low	nt	fa	nh/0219_nh.bmp
368.64	0.72	503	4	5	93	per	con	mod	mod	mod	nt	cr	nh/0852_nh.bmp
369.36	0.72	504	2	7	78	per	con	mod	mod	mod	nt	cr	nh/0629_nh.bmp
370.08	0.72	505	1	6	56	mem	lib	mod	mod	low	nt	n/a	nh/0176_nh.bmp
370.80	0.72	506	4	6	38	per	lib	low	mod	low	tg	ht	wh/0108.bmp
371.52	0.72	507	4	6	19	per	lib	mod	mod	mod	nt	cr	nh/0827_nh.bmp
372.24	0.72	508	4	6	96	per	con	low	mod	low	tg	ms	wh/0172.bmp
372.96	0.72	509	1	7	101	per	lib	mod	low	mod	nt	cr	nh/0953_nh.bmp
373.68	0.72	510	5	7	69	per	con	mod	mod	mod	nt	cr	nh/0179_nh.bmp
374.40	0.72	511	4	7	39	mem	con	mod	mod	mod	tg	ms	wh/0871.bmp
375.12	0.72	512	3	6	47	per	lib	low	mod	low	nt	fa	nh/0247_nh.bmp
375.84	0.72	513	5	7	39	mem	con	mod	mod	mod	tg	ms	wh/0871.bmp
376.56	0.72	514	5	6	70	mem	con	mod	mod	low	tg	ht	wh/0253.bmp
377.28	0.72	515	3	5	115	mem	lib	mod	mod	mod	tg	ht	wh/0778.bmp
378.00	0.72	516	4	7	40	mem	con	mod	mod	mod	tg	ht	wh/0609.bmp
378.72	0.72	517	4	7	22	mem	lib	mod	mod	mod	nt	ht	nh/0337_nh.bmp
379.44	0.72	518	5	8	68	mem	lib	mod	mod	low	tg	ht	wh/0582.bmp
380.16	0.72	519	4	6	30	per	lib	mod	mod	mod	nt	fa	nh/0915_nh.bmp
380.88	0.72	520	6	6	42	per	lib	low	mod	low	tg	ht	wh/0143.bmp
381.60	0.72	521	4	5	120	mem	lib	mod	mod	mod	nt	ht	nh/0318_nh.bmp
382.32	0.72	522	5	6	19	per	lib	mod	mod	mod	nt	cr	nh/0827_nh.bmp
383.04	0.72	523	5	6	58	mem	lib	mod	mod	low	nt	ht	nh/0114_nh.bmp
383.76	0.72	524	5	8	22	per	lib	mod	mod	mod	nt	fa	nh/0717_nh.bmp
384.48	0.72	525	3	8	127	per	lib	low	mod	low	tg	ht	wh/0892.bmp
385.20	0.72	526	6	8	116	per	lib	low	mod	low	tg	ht	wh/1019.bmp
385.92	0.72	527	4	6	75	mem	con	mod	mod	low	nt	ms	nh/0612_nh.bmp
386.64	0.72	528	4	6	89	per	con	low	mod	low	nt	cr	nh/0255_nh.bmp
387.36	0.72	529	5	8	77	mem	lib	mod	mod	low	tg	ht	wh/0073.bmp
388.08	0.72	530	4	6	47	per	lib	low	mod	low	nt	fa	nh/0247_nh.bmp
388.80	0.72	531	3	8	119	per	lib	low	mod	low	nt	fa	nh/0618_nh.bmp
389.52	0.72	532	5	6	75	mem	con	mod	mod	low	nt	ms	nh/0612_nh.bmp
390.24	0.72	533	1	6	128	per	con	mod	low	mod	nt	cr	nh/0347_nh.bmp
390.96	0.72	534	4	8	21	per	lib	mod	mod	mod	tg	ht	wh/0556.bmp
391.68	0.72	535	1	7	3	per	con	low	low	low	tg	ms	wh/0859.bmp
392.40	0.72	536	5	6	96	per	con	low	mod	low	tg	ms	wh/0172.bmp
393.12	0.72	537	5	6	89	per	con	low	mod	low	nt	cr	nh/0255_nh.bmp
393.84	0.72	538	5	5	93	per	con	mod	mod	mod	nt	cr	nh/0852_nh.bmp
394.56	0.72	539	5	6	47	per	lib	low	mod	low	nt	fa	nh/0247_nh.bmp
395.28	0.72	540	5	5	120	mem	lib	mod	mod	mod	nt	ht	nh/0318_nh.bmp
396.00	0.72	541	1	7	109	per	lib	mod	low	mod	nt	cr	nh/0779_nh.bmp
396.72	0.72	542	3	7	21	mem	lib	mod	mod	mod	nt	ht	nh/0995_nh.bmp
397.44	0.72	543	3	7	30	mem	lib	mod	mod	mod	nt	ht	nh/0623_nh.bmp
398.16	0.72	544	1	5	53	per	lib	mod	low	mod	tg	ht	wh/1016.bmp
398.88	0.72	545	3	8	73	mem	lib	mod	mod	low	nt	ht	nh/1004_nh.bmp
399.60	0.72	546	5	7	46	mem	con	mod	mod	mod	nt	n/a	nh/0851_nh.bmp
400.32	0.72	547	4	5	115	mem	lib	mod	mod	mod	tg	ht	wh/0778.bmp
401.04	0.72	548	4	5	90	per	con	mod	mod	mod	tg	ht	wh/0552.bmp
401.76	0.72	549	3	6	18	per	lib	mod	mod	mod	tg	ht	wh/0275.bmp
402.48	0.72	550	5	5	90	per	con	mod	mod	mod	tg	ht	wh/0552.bmp
403.20	0.72	551	2	6	24	per	lib	mod	mod	mod	tg	ht	wh/0821.bmp
403.92	0.72	552	5	7	40	mem	con	mod	mod	mod	tg	ht	wh/0609.bmp
404.64	0.72	553	6	7	38	mem	con	mod	mod	mod	nt	ht	nh/0764_nh.bmp
405.36	0.72	554	6	7	40	mem	con	mod	mod	mod	tg	ht	wh/0609.bmp
406.08	0.72	555	4	5	127	mem	lib	mod	mod	mod	tg	ht	wh/0385.bmp
406.80	0.72	556	1	6	15	mem	lib	low	low	mod	tg	ht	wh/0372.bmp
407.52	0.72	557	4	6	32	per	lib	mod	mod	mod	nt	fa	nh/0968_nh.bmp
408.24	0.72	558	5	5	86	per	con	mod	mod	mod	nt	fa	nh/0586_nh.bmp
408.96	0.72	559	5	8	61	mem	con	mod	mod	low	nt	ms	nh/0578_nh.bmp
409.68	0.72	560	1	5	77	mem	con	low	low	mod	nt	ms	nh/0732_nh.bmp
410.40	0.72	561	5	5	21	mem	con	mod	mod	mod	tg	ht	wh/0420.bmp
411.12	0.72	562	3	8	75	mem	lib	mod	mod	low	tg	ht	wh/0820.bmp
411.84	0.72	563	6	8	77	mem	lib	mod	mod	low	tg	ht	wh/0073.bmp
412.56	0.72	564	3	7	77	per	con	mod	mod	mod	tg	ht	wh/0822.bmp
413.28	0.72	565	3	8	100	per	con	low	mod	low	tg	ms	wh/0254.bmp
414.00	0.72	566	6	8	68	mem	lib	mod	mod	low	tg	ht	wh/0582.bmp
414.72	0.72	567	4	7	24	mem	lib	mod	mod	mod	nt	ht	nh/0560_nh.bmp
415.44	0.72	568	4	7	30	mem	lib	mod	mod	mod	nt	ht	nh/0623_nh.bmp
416.16	0.72	569	3	6	62	mem	lib	mod	mod	low	nt	ht	nh/0248_nh.bmp
416.88	0.72	570	6	7	39	mem	con	mod	mod	mod	tg	ms	wh/0871.bmp
417.60	0.72	571	4	8	20	per	lib	mod	mod	mod	tg	ht	wh/0694.bmp
418.32	0.72	572	2	6	34	per	lib	low	mod	low	nt	cr	nh/0734_nh.bmp
419.04	0.72	573	4	8	119	per	lib	low	mod	low	nt	fa	nh/0618_nh.bmp
419.76	0.72	574	3	6	92	per	con	low	mod	low	tg	ht	wh/0450.bmp
420.48	0.72	575	1	8	15	mem	con	low	low	low	tg	ht	wh/0244.bmp
421.20	0.72	576	1	8	85	per	con	mod	low	mod	tg	ms	wh/0037.bmp
421.92	0.72	577	4	8	100	per	con	low	mod	low	tg	ms	wh/0254.bmp
422.64	0.72	578	3	7	78	per	con	mod	mod	mod	nt	cr	nh/0629_nh.bmp
423.36	0.72	579	5	8	49	mem	con	mod	mod	low	nt	ms	nh/0374_nh.bmp
424.08	0.72	580	3	6	82	per	con	low	mod	low	nt	fa	nh/0042_nh.bmp
424.80	0.72	581	6	5	90	per	con	mod	mod	mod	tg	ht	wh/0552.bmp
425.52	0.72	582	1	5	2	per	lib	low	low	low	tg	ms	wh/0610.bmp
426.24	0.72	583	4	6	62	mem	lib	mod	mod	low	nt	ht	nh/0248_nh.bmp
426.96	0.72	584	4	8	27	per	lib	mod	mod	mod	tg	ht	wh/0603.bmp
427.68	0.72	585	4	5	23	mem	con	mod	mod	mod	tg	ht	wh/0546.bmp
428.40	0.72	586	5	6	91	per	con	low	mod	low	tg	ms	wh/0388.bmp
429.12	0.72	587	4	7	78	per	con	mod	mod	mod	nt	cr	nh/0629_nh.bmp
429.84	0.72	588	3	8	28	per	lib	mod	mod	mod	nt	cr	nh/0952_nh.bmp
430.56	0.72	589	4	6	18	per	lib	mod	mod	mod	tg	ht	wh/0275.bmp
431.28	0.72	590	4	8	98	per	con	low	mod	low	tg	ms	wh/0139.bmp
432.00	0.72	591	2	5	26	mem	con	mod	mod	mod	nt	ms	nh/0441_nh.bmp
432.72	0.72	592	4	6	57	mem	lib	mod	mod	low	tg	ht	wh/0453.bmp
433.44	0.72	593	1	8	46	mem	lib	low	low	low	tg	ht	wh/0767.bmp
434.16	0.72	594	5	6	30	per	lib	mod	mod	mod	nt	fa	nh/0915_nh.bmp
434.88	0.72	595	2	7	79	per	con	mod	mod	mod	tg	ht	wh/0549.bmp
435.60	0.72	596	6	8	126	per	lib	low	mod	low	nt	fa	nh/0018_nh.bmp
436.32	0.72	597	1	8	13	mem	con	low	low	low	nt	ms	nh/0570_nh.bmp
437.04	0.72	598	6	6	19	per	lib	mod	mod	mod	nt	cr	nh/0827_nh.bmp
437.76	0.72	599	5	5	89	per	con	mod	mod	mod	tg	ms	wh/0978.bmp
438.48	0.72	600	6	7	42	mem	con	mod	mod	mod	nt	ms	nh/0495_nh.bmp
439.20	0.72	601	4	7	29	mem	lib	mod	mod	mod	tg	ht	wh/0797.bmp
439.92	0.72	602	1	7	96	per	lib	low	low	low	tg	ms	wh/0770.bmp
440.64	0.72	603	6	8	61	mem	con	mod	mod	low	nt	ms	nh/0578_nh.bmp
441.36	0.72	604	2	6	56	mem	lib	mod	mod	low	nt	n/a	nh/0176_nh.bmp
442.08	0.72	605	5	7	29	mem	lib	mod	mod	mod	tg	ht	wh/0797.bmp
442.80	0.72	606	6	6	44	per	lib	low	mod	low	tg	ht	wh/0262.bmp
443.52	0.72	607	3	8	53	mem	con	mod	mod	low	nt	ms	nh/0165_nh.bmp
444.24	0.72	608	1	5	12	per	lib	low	low	low	nt	fa	nh/0198_nh.bmp
444.96	0.72	609	1	7	92	per	lib	low	low	low	nt	fa	nh/0639_nh.bmp
445.68	0.72	610	6	5	93	per	con	mod	mod	mod	nt	cr	nh/0852_nh.bmp
446.40	0.72	611	1	8	91	per	con	mod	low	mod	tg	ht	wh/0475.bmp
447.12	0.72	612	3	6	40	per	lib	low	mod	low	nt	fa	nh/0647_nh.bmp
447.84	0.72	613	2	6	50	mem	lib	mod	mod	low	tg	ht	wh/0756.bmp
448.56	0.72	614	3	6	34	per	lib	low	mod	low	nt	cr	nh/0734_nh.bmp
449.28	0.72	615	3	5	19	mem	con	mod	mod	mod	nt	ht	nh/0060_nh.bmp
450.00	0.72	616	5	8	119	per	lib	low	mod	low	nt	fa	nh/0618_nh.bmp
450.72	0.72	617	3	8	51	mem	con	mod	mod	low	tg	ht	wh/0793.bmp
451.44	0.72	618	1	6	107	mem	con	low	low	low	tg	ms	wh/0636.bmp
452.16	0.72	619	6	6	49	mem	lib	mod	mod	low	nt	ht	nh/0814_nh.bmp
452.88	0.72	620	4	5	19	mem	con	mod	mod	mod	nt	ht	nh/0060_nh.bmp
453.60	0.72	621	6	5	120	mem	lib	mod	mod	mod	nt	ht	nh/0318_nh.bmp
454.32	0.72	622	5	6	38	per	lib	low	mod	low	tg	ht	wh/0108.bmp
455.04	0.72	623	2	5	113	mem	lib	mod	mod	mod	nt	ht	nh/0835_nh.bmp
455.76	0.72	624	5	7	24	mem	lib	mod	mod	mod	nt	ht	nh/0560_nh.bmp
456.48	0.72	625	2	8	56	mem	con	mod	mod	low	tg	ht	wh/0403.bmp
457.20	0.72	626	5	8	98	per	con	low	mod	low	tg	ms	wh/0139.bmp
457.92	0.72	627	6	6	70	mem	con	mod	mod	low	tg	ht	wh/0253.bmp
458.64	0.72	628	4	6	67	mem	con	mod	mod	low	tg	ht	wh/0883.bmp
459.36	0.72	629	4	6	92	per	con	low	mod	low	tg	ht	wh/0450.bmp
460.08	0.72	630	5	6	35	per	lib	low	mod	low	tg	ms	wh/0249.bmp
460.80	0.72	631	3	6	56	mem	lib	mod	mod	low	nt	n/a	nh/0176_nh.bmp
461.52	0.72	632	5	6	62	mem	lib	mod	mod	low	nt	ht	nh/0248_nh.bmp
462.24	0.72	633	4	6	40	per	lib	low	mod	low	nt	fa	nh/0647_nh.bmp
462.96	0.72	634	4	8	51	mem	con	mod	mod	low	tg	ht	wh/0793.bmp
463.68	0.72	635	5	8	21	per	lib	mod	mod	mod	tg	ht	wh/0556.bmp
464.40	0.72	636	4	8	73	mem	lib	mod	mod	low	nt	ht	nh/1004_nh.bmp
465.12	0.72	637	5	6	32	per	lib	mod	mod	mod	nt	fa	nh/0968_nh.bmp
465.84	0.72	638	5	6	26	per	lib	mod	mod	mod	tg	ht	wh/0638.bmp
466.56	0.72	639	1	7	118	mem	con	low	low	mod	tg	ht	wh/0101.bmp
467.28	0.72	640	4	8	127	per	lib	low	mod	low	tg	ht	wh/0892.bmp
468.00	0.72	641	5	7	43	mem	con	mod	mod	mod	tg	ms	wh/0269.bmp
468.72	0.72	642	4	6	66	mem	con	mod	mod	low	tg	ht	wh/0297.bmp
469.44	0.72	643	3	5	113	mem	lib	mod	mod	mod	nt	ht	nh/0835_nh.bmp
470.16	0.72	644	5	5	17	mem	con	mod	mod	mod	tg	ht	wh/0686.bmp
470.88	0.72	645	5	6	46	per	lib	low	mod	low	nt	fa	nh/0164_nh.bmp
471.60	0.72	646	5	8	112	per	con	low	mod	low	nt	cr	nh/0064_nh.bmp
472.32	0.72	647	4	6	34	per	lib	low	mod	low	nt	cr	nh/0734_nh.bmp
473.04	0.72	648	1	7	103	per	lib	mod	low	mod	tg	ht	wh/0418.bmp
473.76	0.72	649	4	6	63	mem	lib	mod	mod	low	tg	ht	wh/0401.bmp
474.48	0.72	650	4	6	95	per	con	low	mod	low	nt	cr	nh/0848_nh.bmp
475.20	0.72	651	4	6	56	mem	lib	mod	mod	low	nt	n/a	nh/0176_nh.bmp
475.92	0.72	652	6	5	86	per	con	mod	mod	mod	nt	fa	nh/0586_nh.bmp
476.64	0.72	653	1	7	5	per	con	low	low	low	nt	cr	nh/0175_nh.bmp
477.36	0.72	654	1	7	114	mem	con	low	low	mod	tg	ms	wh/0631.bmp
478.08	0.72	655	5	8	125	per	lib	low	mod	low	tg	ms	wh/0986.bmp
478.80	0.72	656	3	8	69	mem	lib	mod	mod	low	nt	ht	nh/0574_nh.bmp
479.52	0.72	657	3	6	94	per	con	low	mod	low	nt	cr	nh/0939_nh.bmp
480.24	0.72	658	5	5	19	mem	con	mod	mod	mod	nt	ht	nh/0060_nh.bmp
480.96	0.72	659	5	6	57	mem	lib	mod	mod	low	tg	ht	wh/0453.bmp
481.68	0.72	660	4	6	80	mem	con	mod	mod	low	nt	ht	nh/0863_nh.bmp
482.40	0.72	661	5	6	69	mem	con	mod	mod	low	tg	ms	wh/0157.bmp
483.12	0.72	662	5	8	100	per	con	low	mod	low	tg	ms	wh/0254.bmp
483.84	0.72	663	5	6	63	mem	lib	mod	mod	low	tg	ht	wh/0401.bmp
484.56	0.72	664	3	5	114	mem	lib	mod	mod	mod	tg	ht	wh/0399.bmp
485.28	0.72	665	5	5	127	mem	lib	mod	mod	mod	tg	ht	wh/0385.bmp
486.00	0.72	666	4	7	77	per	con	mod	mod	mod	tg	ht	wh/0822.bmp
486.72	0.72	667	5	6	92	per	con	low	mod	low	tg	ht	wh/0450.bmp
487.44	0.72	668	1	6	119	per	con	mod	low	mod	tg	ms	wh/0611.bmp
488.16	0.72	669	3	5	119	mem	lib	mod	mod	mod	tg	ht	wh/0735.bmp
488.88	0.72	670	5	5	124	mem	lib	mod	mod	mod	nt	ht	nh/0564_nh.bmp
489.60	0.72	671	4	5	95	per	con	mod	mod	mod	nt	cr	nh/0300_nh.bmp
490.32	0.72	672	3	8	107	per	con	low	mod	low	tg	ms	wh/0780.bmp
491.04	0.72	673	6	5	125	mem	lib	mod	mod	mod	nt	ht	nh/0086_nh.bmp
491.76	0.72	674	5	8	51	mem	con	mod	mod	low	tg	ht	wh/0793.bmp
492.48	0.72	675	5	7	30	mem	lib	mod	mod	mod	nt	ht	nh/0623_nh.bmp
493.20	0.72	676	5	7	47	mem	con	mod	mod	mod	nt	ms	nh/0715_nh.bmp
493.92	0.72	677	4	5	18	mem	con	mod	mod	mod	nt	ms	nh/0294_nh.bmp
494.64	0.72	678	4	8	28	per	lib	mod	mod	mod	nt	cr	nh/0952_nh.bmp
495.36	0.72	679	3	6	50	mem	lib	mod	mod	low	tg	ht	wh/0756.bmp
496.08	0.72	680	6	6	92	per	con	low	mod	low	tg	ht	wh/0450.bmp
496.80	0.72	681	5	5	115	mem	lib	mod	mod	mod	tg	ht	wh/0778.bmp
497.52	0.72	682	5	5	23	mem	con	mod	mod	mod	tg	ht	wh/0546.bmp
498.24	0.72	683	5	8	70	mem	lib	mod	mod	low	nt	ht	nh/0875_nh.bmp
498.96	0.72	684	5	6	18	per	lib	mod	mod	mod	tg	ht	wh/0275.bmp
499.68	0.72	685	5	6	95	per	con	low	mod	low	nt	cr	nh/0848_nh.bmp
500.40	0.72	686	5	7	73	per	con	mod	mod	mod	nt	cr	nh/0056_nh.bmp
501.12	0.72	687	1	6	2	mem	lib	low	low	mod	tg	ht	wh/0867.bmp
501.84	0.72	688	5	5	87	per	con	mod	mod	mod	nt	cr	nh/0832_nh.bmp
502.56	0.72	689	1	8	93	per	con	mod	low	mod	nt	cr	nh/0625_nh.bmp
503.28	0.72	690	4	6	94	per	con	low	mod	low	nt	cr	nh/0939_nh.bmp
504.00	0.72	691	3	6	24	per	lib	mod	mod	mod	tg	ht	wh/0821.bmp
504.72	0.72	692	6	5	21	mem	con	mod	mod	mod	tg	ht	wh/0420.bmp
505.44	0.72	693	5	5	31	mem	con	mod	mod	mod	nt	ht	nh/0888_nh.bmp
506.16	0.72	694	1	6	108	mem	con	low	low	low	nt	ms	nh/0657_nh.bmp
506.88	0.72	695	5	7	70	per	con	mod	mod	mod	tg	ms	wh/0436.bmp
507.60	0.72	696	5	6	34	per	lib	low	mod	low	nt	cr	nh/0734_nh.bmp
508.32	0.72	697	5	7	17	mem	lib	mod	mod	mod	tg	ht	wh/0599.bmp
509.04	0.72	698	6	6	18	per	lib	mod	mod	mod	tg	ht	wh/0275.bmp
509.76	0.72	699	5	6	40	per	lib	low	mod	low	nt	fa	nh/0647_nh.bmp
510.48	0.72	700	4	6	82	per	con	low	mod	low	nt	fa	nh/0042_nh.bmp
511.20	0.72	701	4	8	107	per	con	low	mod	low	tg	ms	wh/0780.bmp
511.92	0.72	702	6	5	31	mem	con	mod	mod	mod	nt	ht	nh/0888_nh.bmp
512.64	0.72	703	6	8	21	per	lib	mod	mod	mod	tg	ht	wh/0556.bmp
513.36	0.72	704	6	5	115	mem	lib	mod	mod	mod	tg	ht	wh/0778.bmp
514.08	0.72	705	4	8	120	per	lib	low	mod	low	tg	ht	wh/0170.bmp
514.80	0.72	706	4	6	24	per	lib	mod	mod	mod	tg	ht	wh/0821.bmp
515.52	0.72	707	5	5	18	mem	con	mod	mod	mod	nt	ms	nh/0294_nh.bmp
516.24	0.72	708	6	8	17	per	lib	mod	mod	mod	nt	fa	nh/0020_nh.bmp
516.96	0.72	709	1	5	9	per	lib	low	low	low	nt	fa	nh/0830_nh.bmp
517.68	0.72	710	1	6	3	mem	lib	low	low	mod	nt	ms	nh/0982_nh.bmp
518.40	0.72	711	4	5	119	mem	lib	mod	mod	mod	tg	ht	wh/0735.bmp
519.12	0.72	712	6	8	51	mem	con	mod	mod	low	tg	ht	wh/0793.bmp
519.84	0.72	713	5	6	24	per	lib	mod	mod	mod	tg	ht	wh/0821.bmp
520.56	0.72	714	3	6	61	mem	lib	mod	mod	low	tg	ht	wh/0394.bmp
521.28	0.72	715	4	8	75	mem	lib	mod	mod	low	tg	ht	wh/0820.bmp
522.00	0.72	716	1	7	117	mem	con	low	low	mod	nt	ms	nh/0668_nh.bmp
522.72	0.72	717	1	7	100	per	lib	mod	low	mod	tg	ht	wh/0951.bmp
523.44	0.72	718	3	5	91	per	con	mod	mod	mod	tg	ht	wh/0763.bmp
524.16	0.72	719	6	6	91	per	con	low	mod	low	tg	ms	wh/0388.bmp
524.88	0.72	720	5	8	19	per	lib	mod	mod	mod	tg	ht	wh/0239.bmp
525.60	0.72	721	6	5	19	mem	con	mod	mod	mod	nt	ht	nh/0060_nh.bmp
526.32	0.72	722	4	5	114	mem	lib	mod	mod	mod	tg	ht	wh/0399.bmp
527.04	0.72	723	6	8	19	per	lib	mod	mod	mod	tg	ht	wh/0239.bmp
527.76	0.72	724	3	5	26	mem	con	mod	mod	mod	nt	ms	nh/0441_nh.bmp
528.48	0.72	725	3	8	24	per	lib	mod	mod	mod	nt	cr	nh/0378_nh.bmp
529.20	0.72	726	4	8	69	mem	lib	mod	mod	low	nt	ht	nh/0574_nh.bmp
529.92	0.72	727	6	6	24	per	lib	mod	mod	mod	tg	ht	wh/0821.bmp
530.64	0.72	728	6	7	76	per	con	mod	mod	mod	tg	ht	wh/0971.bmp
531.36	0.72	729	1	7	83	per	lib	low	low	low	tg	ms	wh/0240.bmp
532.08	0.72	730	4	6	61	mem	lib	mod	mod	low	tg	ht	wh/0394.bmp
532.80	0.72	731	5	8	20	per	lib	mod	mod	mod	tg	ht	wh/0694.bmp
533.52	0.72	732	5	8	107	per	con	low	mod	low	tg	ms	wh/0780.bmp
534.24	0.72	733	3	7	79	per	con	mod	mod	mod	tg	ht	wh/0549.bmp
534.96	0.72	734	5	8	73	mem	lib	mod	mod	low	nt	ht	nh/1004_nh.bmp
535.68	0.72	735	6	7	46	mem	con	mod	mod	mod	nt	n/a	nh/0851_nh.bmp
536.40	0.72	736	6	8	111	per	con	low	mod	low	nt	cr	nh/1014_nh.bmp
537.12	0.72	737	5	8	122	per	lib	low	mod	low	nt	cr	nh/0023_nh.bmp
537.84	0.72	738	4	8	24	per	lib	mod	mod	mod	nt	cr	nh/0378_nh.bmp
538.56	0.72	739	5	6	61	mem	lib	mod	mod	low	tg	ht	wh/0394.bmp
539.28	0.72	740	5	8	75	mem	lib	mod	mod	low	tg	ht	wh/0820.bmp
540.00	0.72	741	4	8	53	mem	con	mod	mod	low	nt	ms	nh/0165_nh.bmp
540.72	0.72	742	5	6	73	mem	con	mod	mod	low	nt	ms	nh/0519_nh.bmp
541.44	0.72	743	5	5	95	per	con	mod	mod	mod	nt	cr	nh/0300_nh.bmp
542.16	0.72	744	1	5	63	per	lib	mod	low	mod	nt	fa	nh/0688_nh.bmp
542.88	0.72	745	6	6	40	per	lib	low	mod	low	nt	fa	nh/0647_nh.bmp
543.60	0.72	746	6	6	63	mem	lib	mod	mod	low	tg	ht	wh/0401.bmp
544.32	0.72	747	6	7	47	mem	con	mod	mod	mod	nt	ms	nh/0715_nh.bmp
545.04	0.72	748	6	8	100	per	con	low	mod	low	tg	ms	wh/0254.bmp
545.76	0.72	749	1	7	58	mem	lib	low	low	mod	tg	ht	wh/0207.bmp
546.48	0.72	750	4	5	26	mem	con	mod	mod	mod	nt	ms	nh/0441_nh.bmp
547.20	0.72	751	6	5	23	mem	con	mod	mod	mod	tg	ht	wh/0546.bmp
547.92	0.72	752	1	7	111	per	lib	mod	low	mod	tg	ht	wh/0093.bmp
548.64	0.72	753	4	7	23	mem	lib	mod	mod	mod	tg	ht	wh/0408.bmp
549.36	0.72	754	1	5	56	per	lib	mod	low	mod	nt	fa	nh/0373_nh.bmp
550.08	0.72	755	5	6	56	mem	lib	mod	mod	low	nt	n/a	nh/0176_nh.bmp
550.80	0.72	756	6	6	62	mem	lib	mod	mod	low	nt	ht	nh/0248_nh.bmp
551.52	0.72	757	5	6	67	mem	con	mod	mod	low	tg	ht	wh/0883.bmp
552.24	0.72	758	5	6	82	per	con	low	mod	low	nt	fa	nh/0042_nh.bmp
552.96	0.72	759	5	8	101	per	con	low	mod	low	nt	cr	nh/0111_nh.bmp
553.68	0.72	760	1	7	104	per	lib	mod	low	mod	tg	ms	wh/0188.bmp
554.40	0.72	761	6	8	66	mem	lib	mod	mod	low	nt	ht	nh/0241_nh.bmp
555.12	0.72	762	1	5	71	mem	con	low	low	mod	tg	ms	wh/0091.bmp
555.84	0.72	763	6	8	101	per	con	low	mod	low	nt	cr	nh/0111_nh.bmp
556.56	0.72	764	6	6	96	per	con	low	mod	low	tg	ms	wh/0172.bmp
557.28	0.72	765	6	5	18	mem	con	mod	mod	mod	nt	ms	nh/0294_nh.bmp
558.00	0.72	766	5	8	127	per	lib	low	mod	low	tg	ht	wh/0892.bmp
558.72	0.72	767	6	8	119	per	lib	low	mod	low	nt	fa	nh/0618_nh.bmp
559.44	0.72	768	5	8	57	mem	con	mod	mod	low	tg	ht	wh/0746.bmp
560.16	0.72	769	6	6	30	per	lib	mod	mod	mod	nt	fa	nh/0915_nh.bmp
560.88	0.72	770	6	8	20	per	lib	mod	mod	mod	tg	ht	wh/0694.bmp
561.60	0.72	771	4	7	79	per	con	mod	mod	mod	tg	ht	wh/0549.bmp
562.32	0.72	772	6	8	73	mem	lib	mod	mod	low	nt	ht	nh/1004_nh.bmp
563.04	0.72	773	6	5	127	mem	lib	mod	mod	mod	tg	ht	wh/0385.bmp
563.76	0.72	774	6	6	57	mem	lib	mod	mod	low	tg	ht	wh/0453.bmp
564.48	0.72	775	6	6	38	per	lib	low	mod	low	tg	ht	wh/0108.bmp
565.20	0.72	776	4	6	50	mem	lib	mod	mod	low	tg	ht	wh/0756.bmp
565.92	0.72	777	6	6	76	mem	con	mod	mod	low	nt	ms	nh/0024_nh.bmp
566.64	0.72	778	1	7	1	per	con	low	low	low	tg	ms	wh/0676.bmp
567.36	0.72	779	6	6	34	per	lib	low	mod	low	nt	cr	nh/0734_nh.bmp
568.08	0.72	780	5	5	82	per	con	mod	mod	mod	tg	ht	wh/0544.bmp
568.80	0.72	781	6	8	107	per	con	low	mod	low	tg	ms	wh/0780.bmp
569.52	0.72	782	5	6	80	mem	con	mod	mod	low	nt	ht	nh/0863_nh.bmp
570.24	0.72	783	6	6	69	mem	con	mod	mod	low	tg	ms	wh/0157.bmp
570.96	0.72	784	5	7	22	mem	lib	mod	mod	mod	nt	ht	nh/0337_nh.bmp
571.68	0.72	785	6	6	35	per	lib	low	mod	low	tg	ms	wh/0249.bmp
572.40	0.72	786	5	7	78	per	con	mod	mod	mod	nt	cr	nh/0629_nh.bmp
573.12	0.72	787	1	8	36	mem	lib	low	low	low	nt	ht	nh/0268_nh.bmp
573.84	0.72	788	1	7	2	per	con	low	low	low	tg	ms	wh/0360.bmp
574.56	0.72	789	5	8	24	per	lib	mod	mod	mod	nt	cr	nh/0378_nh.bmp
575.28	0.72	790	6	6	26	per	lib	mod	mod	mod	tg	ht	wh/0638.bmp
576.00	0.72	791	6	6	95	per	con	low	mod	low	nt	cr	nh/0848_nh.bmp
576.72	0.72	792	1	6	16	mem	lib	low	low	mod	tg	ht	wh/0305.bmp
577.44	0.72	793	4	7	21	mem	lib	mod	mod	mod	nt	ht	nh/0995_nh.bmp
578.16	0.72	794	5	5	26	mem	con	mod	mod	mod	nt	ms	nh/0441_nh.bmp
578.88	0.72	795	6	5	26	mem	con	mod	mod	mod	nt	ms	nh/0441_nh.bmp
579.60	0.72	796	5	8	69	mem	lib	mod	mod	low	nt	ht	nh/0574_nh.bmp
580.32	0.72	797	5	7	21	mem	lib	mod	mod	mod	nt	ht	nh/0995_nh.bmp
581.04	0.72	798	5	8	28	per	lib	mod	mod	mod	nt	cr	nh/0952_nh.bmp
581.76	0.72	799	5	6	94	per	con	low	mod	low	nt	cr	nh/0939_nh.bmp
582.48	0.72	800	6	6	67	mem	con	mod	mod	low	tg	ht	wh/0883.bmp
583.20	0.72	801	6	5	82	per	con	mod	mod	mod	tg	ht	wh/0544.bmp
583.92	0.72	802	6	6	58	mem	lib	mod	mod	low	nt	ht	nh/0114_nh.bmp
584.64	0.72	803	1	5	100	mem	lib	low	low	low	tg	ht	wh/0258.bmp
585.36	0.72	804	6	5	87	per	con	mod	mod	mod	nt	cr	nh/0832_nh.bmp
586.08	0.72	805	5	5	119	mem	lib	mod	mod	mod	tg	ht	wh/0735.bmp
586.80	0.72	806	3	8	56	mem	con	mod	mod	low	tg	ht	wh/0403.bmp
587.52	0.72	807	4	8	56	mem	con	mod	mod	low	tg	ht	wh/0403.bmp
588.24	0.72	808	6	8	69	mem	lib	mod	mod	low	nt	ht	nh/0574_nh.bmp
588.96	0.72	809	1	6	121	per	con	mod	low	mod	nt	cr	nh/0227_nh.bmp
589.68	0.72	810	6	7	44	mem	con	mod	mod	mod	tg	ht	wh/0602.bmp
590.40	0.72	811	6	8	50	mem	con	mod	mod	low	tg	ht	wh/0118.bmp
591.12	0.72	812	6	8	80	mem	lib	mod	mod	low	tg	ms	wh/0491.bmp
591.84	0.72	813	5	6	66	mem	con	mod	mod	low	tg	ht	wh/0297.bmp
592.56	0.72	814	6	8	22	per	lib	mod	mod	mod	nt	fa	nh/0717_nh.bmp
593.28	0.72	815	6	7	43	mem	con	mod	mod	mod	tg	ms	wh/0269.bmp
594.00	0.72	816	6	6	47	per	lib	low	mod	low	nt	fa	nh/0247_nh.bmp
594.72	0.72	817	6	6	56	mem	lib	mod	mod	low	nt	n/a	nh/0176_nh.bmp
595.44	0.72	818	4	5	91	per	con	mod	mod	mod	tg	ht	wh/0763.bmp
596.16	0.72	819	6	6	75	mem	con	mod	mod	low	nt	ms	nh/0612_nh.bmp
596.88	0.72	820	5	6	50	mem	lib	mod	mod	low	tg	ht	wh/0756.bmp
597.60	0.72	821	6	7	29	mem	lib	mod	mod	mod	tg	ht	wh/0797.bmp
598.32	0.72	822	5	5	91	per	con	mod	mod	mod	tg	ht	wh/0763.bmp
599.04	0.72	823	6	6	82	per	con	low	mod	low	nt	fa	nh/0042_nh.bmp
599.76	0.72	824	6	5	119	mem	lib	mod	mod	mod	tg	ht	wh/0735.bmp
600.48	0.72	825	1	5	8	per	lib	low	low	low	tg	ht	wh/0516.bmp
601.20	0.72	826	5	5	114	mem	lib	mod	mod	mod	tg	ht	wh/0399.bmp
601.92	0.72	827	6	6	61	mem	lib	mod	mod	low	tg	ht	wh/0394.bmp
602.64	0.72	828	5	8	27	per	lib	mod	mod	mod	tg	ht	wh/0603.bmp
603.36	0.72	829	1	5	101	mem	lib	low	low	low	tg	ht	wh/0482.bmp
604.08	0.72	830	1	8	42	mem	lib	low	low	low	nt	ht	nh/0566_nh.bmp
604.80	0.72	831	4	5	113	mem	lib	mod	mod	mod	nt	ht	nh/0835_nh.bmp
605.52	0.72	832	1	5	6	per	lib	low	low	low	nt	fa	nh/0041_nh.bmp
606.24	0.72	833	5	7	79	per	con	mod	mod	mod	tg	ht	wh/0549.bmp
606.96	0.72	834	5	7	23	mem	lib	mod	mod	mod	tg	ht	wh/0408.bmp
607.68	0.72	835	6	5	124	mem	lib	mod	mod	mod	nt	ht	nh/0564_nh.bmp
608.40	0.72	836	6	6	85	per	con	low	mod	low	tg	ms	wh/0521.bmp
609.12	0.72	837	6	6	80	mem	con	mod	mod	low	nt	ht	nh/0863_nh.bmp
609.84	0.72	838	5	8	120	per	lib	low	mod	low	tg	ht	wh/0170.bmp
610.56	0.72	839	1	8	11	mem	con	low	low	low	nt	ms	nh/0929_nh.bmp
611.28	0.72	840	5	5	113	mem	lib	mod	mod	mod	nt	ht	nh/0835_nh.bmp
612.00	0.72	841	6	8	122	per	lib	low	mod	low	nt	cr	nh/0023_nh.bmp
612.72	0.72	842	6	5	89	per	con	mod	mod	mod	tg	ms	wh/0978.bmp
613.44	0.72	843	6	8	24	per	lib	mod	mod	mod	nt	cr	nh/0378_nh.bmp
614.16	0.72	844	6	6	73	mem	con	mod	mod	low	nt	ms	nh/0519_nh.bmp
614.88	0.72	845	6	6	66	mem	con	mod	mod	low	tg	ht	wh/0297.bmp
615.60	0.72	846	6	7	24	mem	lib	mod	mod	mod	nt	ht	nh/0560_nh.bmp
616.32	0.72	847	6	6	32	per	lib	mod	mod	mod	nt	fa	nh/0968_nh.bmp
617.04	0.72	848	6	7	73	per	con	mod	mod	mod	nt	cr	nh/0056_nh.bmp
617.76	0.72	849	6	7	22	mem	lib	mod	mod	mod	nt	ht	nh/0337_nh.bmp
618.48	0.72	850	6	6	31	per	lib	mod	mod	mod	tg	ht	wh/0666.bmp
619.20	0.72	851	5	7	77	per	con	mod	mod	mod	tg	ht	wh/0822.bmp
619.92	0.72	852	6	7	70	per	con	mod	mod	mod	tg	ms	wh/0436.bmp
620.64	0.72	853	6	7	30	mem	lib	mod	mod	mod	nt	ht	nh/0623_nh.bmp
621.36	0.72	854	5	8	53	mem	con	mod	mod	low	nt	ms	nh/0165_nh.bmp
622.08	0.72	855	6	7	65	per	con	mod	mod	mod	nt	cr	nh/0366_nh.bmp
622.80	0.72	856	6	5	25	mem	con	mod	mod	mod	tg	ms	wh/0958.bmp
623.52	0.72	857	1	7	14	per	con	low	low	low	nt	cr	nh/0138_nh.bmp
624.24	0.72	858	6	8	125	per	lib	low	mod	low	tg	ms	wh/0986.bmp
624.96	0.72	859	6	7	17	mem	lib	mod	mod	mod	tg	ht	wh/0599.bmp
625.68	0.72	860	6	7	78	per	con	mod	mod	mod	nt	cr	nh/0629_nh.bmp
626.40	0.72	861	6	5	17	mem	con	mod	mod	mod	tg	ht	wh/0686.bmp
627.12	0.72	862	6	8	120	per	lib	low	mod	low	tg	ht	wh/0170.bmp
627.84	0.72	863	6	8	55	mem	con	mod	mod	low	nt	ht	nh/0193_nh.bmp
628.56	0.72	864	6	7	21	mem	lib	mod	mod	mod	nt	ht	nh/0995_nh.bmp
629.28	0.72	865	6	8	49	mem	con	mod	mod	low	nt	ms	nh/0374_nh.bmp
630.00	0.72	866	6	7	77	per	con	mod	mod	mod	tg	ht	wh/0822.bmp
630.72	0.72	867	6	8	57	mem	con	mod	mod	low	tg	ht	wh/0746.bmp
631.44	0.72	868	1	5	69	mem	con	low	low	mod	tg	ht	wh/0342.bmp
632.16	0.72	869	6	8	112	per	con	low	mod	low	nt	cr	nh/0064_nh.bmp
632.88	0.72	870	6	8	75	mem	lib	mod	mod	low	tg	ht	wh/0820.bmp
633.60	0.72	871	1	7	7	per	con	low	low	low	nt	cr	nh/0677_nh.bmp
634.32	0.72	872	6	5	95	per	con	mod	mod	mod	nt	cr	nh/0300_nh.bmp
635.04	0.72	873	1	7	119	mem	con	low	low	mod	nt	ms	nh/0389_nh.bmp
635.76	0.72	874	6	8	70	mem	lib	mod	mod	low	nt	ht	nh/0875_nh.bmp
636.48	0.72	875	6	8	127	per	lib	low	mod	low	tg	ht	wh/0892.bmp
637.20	0.72	876	6	6	89	per	con	low	mod	low	nt	cr	nh/0255_nh.bmp
637.92	0.72	877	6	6	46	per	lib	low	mod	low	nt	fa	nh/0164_nh.bmp
638.64	0.72	878	6	7	23	mem	lib	mod	mod	mod	tg	ht	wh/0408.bmp
639.36	0.72	879	6	8	118	per	lib	low	mod	low	nt	cr	nh/0678_nh.bmp
640.08	0.72	880	5	8	56	mem	con	mod	mod	low	tg	ht	wh/0403.bmp
640.80	0.72	881	6	6	50	mem	lib	mod	mod	low	tg	ht	wh/0756.bmp
641.52	0.72	882	6	7	79	per	con	mod	mod	mod	tg	ht	wh/0549.bmp
642.24	0.72	883	6	6	94	per	con	low	mod	low	nt	cr	nh/0939_nh.bmp
642.96	0.72	884	1	8	12	mem	con	low	low	low	nt	ht	nh/0880_nh.bmp
643.68	0.72	885	6	8	28	per	lib	mod	mod	mod	nt	cr	nh/0952_nh.bmp
644.40	0.72	886	6	5	113	mem	lib	mod	mod	mod	nt	ht	nh/0835_nh.bmp
645.12	0.72	887	6	7	69	per	con	mod	mod	mod	nt	cr	nh/0179_nh.bmp
645.84	0.72	888	6	8	53	mem	con	mod	mod	low	nt	ms	nh/0165_nh.bmp
646.56	0.72	889	6	7	20	mem	lib	mod	mod	mod	tg	ht	wh/0833.bmp
647.28	0.72	890	6	8	56	mem	con	mod	mod	low	tg	ht	wh/0403.bmp
648.00	0.72	891	6	5	91	per	con	mod	mod	mod	tg	ht	wh/0763.bmp
648.72	0.72	892	6	8	97	per	con	low	mod	low	tg	ms	wh/0012.bmp
649.44	0.72	893	6	8	98	per	con	low	mod	low	tg	ms	wh/0139.bmp
650.16	0.72	894	6	5	114	mem	lib	mod	mod	mod	tg	ht	wh/0399.bmp
650.88	0.72	895	6	8	27	per	lib	mod	mod	mod	tg	ht	wh/0603.bmp
651.60	0.72	896	6	6	21	per	lib	mod	mod	mod	nt	fa	nh/0590_nh.bmp
