onset	duration	block	trial	task	crit	disc	mem_disc	per_disc	trial_type	mem_type	per_type	left_option	resp_hand	response	accuracy	response_time	stim_file	pay	pay_tot
7.2	7.2	1	n/a	per	con	low	n/a	n/a	instructions	n/a	n/a	n/a	n/a	n/a	n/a	n/a	n/a	n/a	n/a
16.16	1.38076	1	1	per	con	low	low	low	tg	tg	tg	tg	right	nt	ms	0.98076	wh/0676.bmp	0	21.15
19.04	0.88103	1	2	per	con	low	low	low	tg	tg	tg	tg	right	nt	ms	0.48103	wh/0360.bmp	0	21.15
21.92	1.02459	1	3	per	con	low	low	low	tg	tg	tg	tg	right	nt	ms	0.62459	wh/0859.bmp	0	21.15
26.24	1.06841	1	4	per	con	low	low	low	tg	nt	tg	nt	right	tg	ht	0.66841	wh/0215.bmp	0.05	21.2
29.84	0.89119	1	5	per	con	low	low	low	nt	tg	nt	nt	left	nt	cr	0.49119	nh/0175_nh.bmp	0.05	21.25
33.44	1.05643	1	6	per	con	low	low	low	tg	nt	tg	nt	left	nt	ms	0.65643	wh/0488.bmp	0	21.25
37.04	0.94791	1	7	per	con	low	low	low	nt	tg	nt	tg	right	nt	cr	0.54791	nh/0677_nh.bmp	0.05	21.3
40.64	0.97874	1	8	per	con	low	low	low	nt	nt	nt	nt	left	nt	cr	0.57874	nh/1007_nh.bmp	0.05	21.35
43.52	1.4779	1	9	per	con	low	low	low	nt	tg	nt	nt	left	nt	cr	1.0779	nh/0825_nh.bmp	0.05	21.4
46.4	1.545	1	10	per	con	low	low	low	tg	nt	tg	nt	left	nt	ms	1.145	wh/0148.bmp	0	21.4
50	1.08095	1	11	per	con	low	low	low	nt	nt	nt	tg	right	nt	cr	0.68095	nh/0999_nh.bmp	0.05	21.45
52.88	1.2649	1	12	per	con	low	low	low	nt	nt	nt	tg	right	nt	cr	0.8649	nh/0112_nh.bmp	0.05	21.5
55.76	1.18183	1	13	per	con	low	low	low	tg	tg	tg	tg	left	tg	ht	0.78183	wh/0842.bmp	0.05	21.55
58.64	0.95504	1	14	per	con	low	low	low	nt	tg	nt	nt	left	nt	cr	0.55504	nh/0138_nh.bmp	0.05	21.6
61.52	1.31089	1	15	per	con	low	low	low	nt	nt	nt	nt	left	nt	cr	0.91089	nh/0431_nh.bmp	0.05	21.65
64.4	1.06794	1	16	per	con	low	low	low	tg	nt	tg	tg	right	nt	ms	0.66794	wh/0528.bmp	0	21.65
68.4	3.6	1	n/a	per	con	low	n/a	n/a	feedback	n/a	n/a	n/a	n/a	n/a	n/a	n/a	n/a	n/a	n/a
72.72	7.2	2	n/a	mem	lib	mod	n/a	n/a	instructions	n/a	n/a	n/a	n/a	n/a	n/a	n/a	n/a	n/a	n/a
80.24	1.24591	2	17	mem	lib	mod	mod	mod	tg	tg	tg	nt	right	tg	ht	0.84591	wh/0599.bmp	0.05	21.7
83.12	1.39379	2	18	mem	lib	mod	mod	mod	nt	nt	tg	tg	left	tg	fa	0.99379	wh/0209.bmp	0	21.7
86.72	1.31982	2	19	mem	lib	mod	mod	mod	nt	nt	nt	tg	right	nt	cr	0.91982	nh/0904_nh.bmp	0.05	21.75
90.32	0.96018	2	20	mem	lib	mod	mod	mod	tg	tg	tg	tg	left	tg	ht	0.56018	wh/0833.bmp	0.05	21.8
93.92	1.02833	2	21	mem	lib	mod	mod	mod	tg	tg	nt	nt	right	tg	ht	0.62833	nh/0995_nh.bmp	0.05	21.85
97.52	1.06854	2	22	mem	lib	mod	mod	mod	tg	tg	nt	tg	left	tg	ht	0.66854	nh/0337_nh.bmp	0.05	21.9
101.12	1.4249	2	23	mem	lib	mod	mod	mod	tg	tg	tg	tg	left	tg	ht	1.0249	wh/0408.bmp	0.05	21.95
104.72	1.5759	2	24	mem	lib	mod	mod	mod	tg	tg	nt	tg	left	tg	ht	1.1759	nh/0560_nh.bmp	0.05	22
107.6	1.9139	2	25	mem	lib	mod	mod	mod	nt	nt	tg	nt	left	nt	cr	1.5139	wh/0428.bmp	0.05	22.05
110.48	1.5249	2	26	mem	lib	mod	mod	mod	nt	nt	tg	nt	left	nt	cr	1.1249	wh/0805.bmp	0.05	22.1
113.36	1.15389	2	27	mem	lib	mod	mod	mod	nt	nt	nt	tg	right	nt	cr	0.75389	nh/0810_nh.bmp	0.05	22.15
116.96	1.7379	2	28	mem	lib	mod	mod	mod	nt	nt	nt	tg	left	tg	fa	1.3379	nh/0182_nh.bmp	0	22.15
119.84	0.92409	2	29	mem	lib	mod	mod	mod	tg	tg	tg	tg	left	tg	ht	0.52409	wh/0797.bmp	0.05	22.2
122.72	1.12787	2	30	mem	lib	mod	mod	mod	tg	tg	nt	nt	right	tg	ht	0.72787	nh/0623_nh.bmp	0.05	22.25
125.6	1.03187	2	31	mem	lib	mod	mod	mod	nt	nt	nt	nt	right	tg	fa	0.63187	nh/0650_nh.bmp	0	22.25
128.48	0.86555	2	32	mem	lib	mod	mod	mod	nt	nt	tg	tg	left	tg	fa	0.46555	wh/0273.bmp	0	22.25
131.04	3.6	2	n/a	mem	lib	mod	n/a	n/a	feedback	n/a	n/a	n/a	n/a	n/a	n/a	n/a	n/a	n/a	n/a
135.36	7.2	3	n/a	mem	con	mod	n/a	n/a	instructions	n/a	n/a	n/a	n/a	n/a	n/a	n/a	n/a	n/a	n/a
142.88	1.34993	3	33	mem	con	mod	mod	mod	nt	nt	nt	nt	left	nt	cr	0.94993	nh/0716_nh.bmp	0.05	22.3
146.48	1.5339	3	34	mem	con	mod	mod	mod	nt	nt	nt	nt	left	nt	cr	1.1339	nh/0540_nh.bmp	0.05	22.35
150.08	1.30494	3	35	mem	con	mod	mod	mod	nt	nt	tg	tg	left	tg	fa	0.90494	wh/0803.bmp	-0.1	22.25
153.68	1.501	3	36	mem	con	mod	mod	mod	nt	nt	tg	nt	left	nt	cr	1.101	wh/0909.bmp	0.05	22.3
157.28	1.7959	3	37	mem	con	mod	mod	mod	nt	nt	tg	tg	right	nt	cr	1.3959	wh/0371.bmp	0.05	22.35
161.6	0.9667	3	38	mem	con	mod	mod	mod	tg	tg	nt	tg	left	tg	ht	0.5667	nh/0764_nh.bmp	0.05	22.4
165.92	1.5768	3	39	mem	con	mod	mod	mod	tg	tg	tg	nt	left	nt	ms	1.1768	wh/0871.bmp	0	22.4
169.52	0.98059	3	40	mem	con	mod	mod	mod	tg	tg	tg	nt	right	tg	ht	0.58059	wh/0609.bmp	0.05	22.45
173.84	1.14092	3	41	mem	con	mod	mod	mod	nt	nt	nt	tg	left	tg	fa	0.74092	nh/0772_nh.bmp	-0.1	22.35
178.16	1.21182	3	42	mem	con	mod	mod	mod	tg	tg	nt	nt	left	nt	ms	0.81182	nh/0495_nh.bmp	0	22.35
181.76	2.0588	3	43	mem	con	mod	mod	mod	tg	tg	tg	nt	left	nt	ms	1.6588	wh/0269.bmp	0	22.35
184.64	1.17182	3	44	mem	con	mod	mod	mod	tg	tg	tg	nt	right	tg	ht	0.77182	wh/0602.bmp	0.05	22.4
188.24	1.07303	3	45	mem	con	mod	mod	mod	nt	nt	nt	nt	left	nt	cr	0.67303	nh/0807_nh.bmp	0.05	22.45
191.12	2.56	3	46	mem	con	mod	mod	mod	tg	tg	nt	tg	n/a	err	n/a	n/a	nh/0851_nh.bmp	0	22.45
194	0.89723	3	47	mem	con	mod	mod	mod	tg	tg	nt	nt	left	nt	ms	0.49723	nh/0715_nh.bmp	0	22.45
196.88	1.10436	3	48	mem	con	mod	mod	mod	nt	nt	tg	tg	right	nt	cr	0.70436	wh/0928.bmp	0.05	22.5
200.88	3.6	3	n/a	mem	con	mod	n/a	n/a	feedback	n/a	n/a	n/a	n/a	n/a	n/a	n/a	n/a	n/a	n/a
204.48	7.2	4	n/a	mem	lib	low	n/a	n/a	instructions	n/a	n/a	n/a	n/a	n/a	n/a	n/a	n/a	n/a	n/a
212	1.38987	4	49	mem	lib	low	low	mod	nt	nt	nt	tg	left	tg	fa	0.98987	nh/0584_nh.bmp	0	22.5
214.88	1.13082	4	50	mem	lib	low	low	mod	tg	tg	nt	nt	right	tg	ht	0.73082	nh/0749_nh.bmp	0.05	22.55
219.2	1.05554	4	51	mem	lib	low	low	mod	tg	tg	nt	tg	left	tg	ht	0.65554	nh/0907_nh.bmp	0.05	22.6
222.08	1.5157	4	52	mem	lib	low	low	mod	nt	nt	nt	tg	left	tg	fa	1.1157	nh/0581_nh.bmp	0	22.6
224.96	1.6059	4	53	mem	lib	low	low	mod	nt	nt	tg	nt	right	tg	fa	1.2059	wh/0936.bmp	0	22.6
228.56	1.05594	4	54	mem	lib	low	low	mod	nt	nt	tg	nt	left	nt	cr	0.65594	wh/0787.bmp	0.05	22.65
231.44	1.09068	4	55	mem	lib	low	low	mod	nt	nt	tg	nt	right	tg	fa	0.69068	wh/0966.bmp	0	22.65
234.32	1.38789	4	56	mem	lib	low	low	mod	tg	tg	nt	nt	left	nt	ms	0.98789	nh/0545_nh.bmp	-0.1	22.55
237.92	1.08354	4	57	mem	lib	low	low	mod	nt	nt	tg	nt	left	nt	cr	0.68354	wh/0531.bmp	0.05	22.6
241.52	1.24494	4	58	mem	lib	low	low	mod	tg	tg	tg	tg	left	tg	ht	0.84494	wh/0207.bmp	0.05	22.65
244.4	1.1259	4	59	mem	lib	low	low	mod	tg	tg	tg	nt	right	tg	ht	0.7259	wh/0837.bmp	0.05	22.7
248.72	1.9017	4	60	mem	lib	low	low	mod	tg	tg	nt	nt	right	tg	ht	1.5017	nh/0180_nh.bmp	0.05	22.75
252.32	1.4128	4	61	mem	lib	low	low	mod	nt	nt	nt	nt	left	nt	cr	1.0128	nh/0530_nh.bmp	0.05	22.8
255.92	1.00133	4	62	mem	lib	low	low	mod	nt	nt	nt	tg	left	tg	fa	0.60133	nh/0860_nh.bmp	0	22.8
259.52	1.4168	4	63	mem	lib	low	low	mod	tg	tg	tg	nt	right	tg	ht	1.0168	wh/0948.bmp	0.05	22.85
263.12	1.33882	4	64	mem	lib	low	low	mod	tg	tg	tg	nt	right	tg	ht	0.93882	wh/0016.bmp	0.05	22.9
266.4	3.6	4	n/a	mem	lib	low	n/a	n/a	feedback	n/a	n/a	n/a	n/a	n/a	n/a	n/a	n/a	n/a	n/a
271.44	7.2	5	n/a	per	con	mod	n/a	n/a	instructions	n/a	n/a	n/a	n/a	n/a	n/a	n/a	n/a	n/a	n/a
278.96	1.11397	5	65	per	con	mod	mod	mod	nt	tg	nt	nt	left	nt	cr	0.71397	nh/0366_nh.bmp	0.05	22.95
281.84	0.94293	5	66	per	con	mod	mod	mod	tg	nt	tg	tg	left	tg	ht	0.54293	wh/0957.bmp	0.05	23
284.72	0.9339	5	67	per	con	mod	mod	mod	tg	nt	tg	tg	left	tg	ht	0.5339	wh/0946.bmp	0.05	23.05
289.04	1.09299	5	68	per	con	mod	mod	mod	nt	nt	nt	nt	left	nt	cr	0.69299	nh/0350_nh.bmp	0.05	23.1
291.92	1.13587	5	69	per	con	mod	mod	mod	nt	tg	nt	tg	right	nt	cr	0.73587	nh/0179_nh.bmp	0.05	23.15
295.52	0.93687	5	70	per	con	mod	mod	mod	tg	tg	tg	nt	left	nt	ms	0.53687	wh/0436.bmp	0	23.15
299.12	1.25696	5	71	per	con	mod	mod	mod	nt	nt	nt	nt	left	nt	cr	0.85696	nh/0558_nh.bmp	0.05	23.2
302	0.96245	5	72	per	con	mod	mod	mod	tg	nt	tg	nt	right	tg	ht	0.56245	wh/0962.bmp	0.05	23.25
304.88	0.958	5	73	per	con	mod	mod	mod	nt	tg	nt	tg	right	nt	cr	0.558	nh/0056_nh.bmp	0.05	23.3
307.76	0.9515	5	74	per	con	mod	mod	mod	tg	nt	tg	nt	right	tg	ht	0.5515	wh/0748.bmp	0.05	23.35
312.08	1.01527	5	75	per	con	mod	mod	mod	nt	nt	nt	nt	left	nt	cr	0.61527	nh/0593_nh.bmp	0.05	23.4
316.4	1.16474	5	76	per	con	mod	mod	mod	tg	tg	tg	nt	right	tg	ht	0.76474	wh/0971.bmp	0.05	23.45
320	0.80664	5	77	per	con	mod	mod	mod	tg	tg	tg	nt	right	tg	ht	0.40664	wh/0822.bmp	0.05	23.5
324.32	0.94633	5	78	per	con	mod	mod	mod	nt	tg	nt	nt	left	nt	cr	0.54633	nh/0629_nh.bmp	0.05	23.55
328.64	0.90019	5	79	per	con	mod	mod	mod	tg	tg	tg	nt	right	tg	ht	0.50019	wh/0549.bmp	0.05	23.6
332.24	0.94154	5	80	per	con	mod	mod	mod	nt	nt	nt	nt	left	nt	cr	0.54154	nh/0339_nh.bmp	0.05	23.65
335.52	3.6	5	n/a	per	con	mod	n/a	n/a	feedback	n/a	n/a	n/a	n/a	n/a	n/a	n/a	n/a	n/a	n/a
339.12	7.2	6	n/a	per	lib	low	n/a	n/a	instructions	n/a	n/a	n/a	n/a	n/a	n/a	n/a	n/a	n/a	n/a
348.08	1.4449	6	81	per	lib	low	low	low	tg	tg	tg	nt	left	nt	ms	1.0449	wh/0181.bmp	-0.1	23.55
350.96	1.29187	6	82	per	lib	low	low	low	tg	nt	tg	nt	right	tg	ht	0.89187	wh/0930.bmp	0.05	23.6
355.28	1.3289	6	83	per	lib	low	low	low	tg	tg	tg	nt	left	nt	ms	0.9289	wh/0240.bmp	-0.1	23.5
358.88	1.5559	6	84	per	lib	low	low	low	nt	nt	nt	tg	right	nt	cr	1.1559	nh/0815_nh.bmp	0.05	23.55
361.76	1.17597	6	85	per	lib	low	low	low	nt	tg	nt	nt	right	tg	fa	0.77597	nh/0144_nh.bmp	0	23.55
366.08	1.30494	6	86	per	lib	low	low	low	tg	nt	tg	nt	right	tg	ht	0.90494	wh/0864.bmp	0.05	23.6
368.96	1.00164	6	87	per	lib	low	low	low	nt	tg	nt	tg	left	tg	fa	0.60164	nh/0219_nh.bmp	0	23.6
372.56	0.86666	6	88	per	lib	low	low	low	nt	nt	nt	nt	right	tg	fa	0.46666	nh/0579_nh.bmp	0	23.6
375.44	1.6279	6	89	per	lib	low	low	low	tg	tg	tg	tg	left	tg	ht	1.2279	wh/0224.bmp	0.05	23.65
379.76	1.07704	6	90	per	lib	low	low	low	nt	nt	nt	nt	right	tg	fa	0.67704	nh/0789_nh.bmp	0	23.65
383.36	1.9959	6	91	per	lib	low	low	low	nt	nt	nt	tg	right	nt	cr	1.5959	nh/0185_nh.bmp	0.05	23.7
386.24	1.6429	6	92	per	lib	low	low	low	nt	tg	nt	nt	right	tg	fa	1.2429	nh/0639_nh.bmp	0	23.7
389.12	1.33678	6	93	per	lib	low	low	low	nt	tg	nt	nt	right	tg	fa	0.93678	nh/0005_nh.bmp	0	23.7
392	1.4619	6	94	per	lib	low	low	low	tg	nt	tg	tg	left	tg	ht	1.0619	wh/0370.bmp	0.05	23.75
395.6	1.19896	6	95	per	lib	low	low	low	tg	nt	tg	tg	left	tg	ht	0.79896	wh/0701.bmp	0.05	23.8
399.92	1.9549	6	96	per	lib	low	low	low	tg	tg	tg	nt	left	nt	ms	1.5549	wh/0770.bmp	-0.1	23.7
403.92	3.6	6	n/a	per	lib	low	n/a	n/a	feedback	n/a	n/a	n/a	n/a	n/a	n/a	n/a	n/a	n/a	n/a
407.52	7.2	7	n/a	per	lib	mod	n/a	n/a	instructions	n/a	n/a	n/a	n/a	n/a	n/a	n/a	n/a	n/a	n/a
415.04	0.94842	7	97	per	lib	mod	low	mod	tg	nt	tg	nt	right	tg	ht	0.54842	wh/0340.bmp	0.05	23.75
417.92	0.86104	7	98	per	lib	mod	low	mod	tg	nt	tg	nt	right	tg	ht	0.46104	wh/0782.bmp	0.05	23.8
420.8	1.0766	7	99	per	lib	mod	low	mod	nt	tg	nt	tg	right	nt	cr	0.6766	nh/0308_nh.bmp	0.05	23.85
423.68	1.02026	7	100	per	lib	mod	low	mod	tg	tg	tg	nt	right	tg	ht	0.62026	wh/0951.bmp	0.05	23.9
426.56	1.22678	7	101	per	lib	mod	low	mod	nt	tg	nt	tg	right	nt	cr	0.82678	nh/0953_nh.bmp	0.05	23.95
429.44	1.4879	7	102	per	lib	mod	low	mod	nt	nt	nt	nt	right	tg	fa	1.0879	nh/0598_nh.bmp	0	23.95
433.04	2.1967	7	103	per	lib	mod	low	mod	tg	tg	tg	nt	right	tg	ht	1.7967	wh/0418.bmp	0.05	24
435.92	1.07335	7	104	per	lib	mod	low	mod	tg	tg	tg	nt	left	nt	ms	0.67335	wh/0188.bmp	-0.1	23.9
438.8	0.84751	7	105	per	lib	mod	low	mod	tg	nt	tg	nt	right	tg	ht	0.44751	wh/0316.bmp	0.05	23.95
441.68	1.06225	7	106	per	lib	mod	low	mod	nt	nt	nt	nt	left	nt	cr	0.66225	nh/0059_nh.bmp	0.05	24
444.56	1.3348	7	107	per	lib	mod	low	mod	nt	nt	nt	tg	left	tg	fa	0.9348	nh/0669_nh.bmp	0	24
448.88	0.91437	7	108	per	lib	mod	low	mod	tg	nt	tg	tg	left	tg	ht	0.51437	wh/0708.bmp	0.05	24.05
451.76	1.39283	7	109	per	lib	mod	low	mod	nt	tg	nt	tg	right	nt	cr	0.99283	nh/0779_nh.bmp	0.05	24.1
456.08	1.7989	7	110	per	lib	mod	low	mod	nt	tg	nt	nt	left	nt	cr	1.3989	nh/0869_nh.bmp	0.05	24.15
459.68	0.95973	7	111	per	lib	mod	low	mod	tg	tg	tg	nt	right	tg	ht	0.55973	wh/0093.bmp	0.05	24.2
464	1.8998	7	112	per	lib	mod	low	mod	nt	nt	nt	nt	left	nt	cr	1.4998	nh/0290_nh.bmp	0.05	24.25
468	3.6	7	n/a	per	lib	mod	n/a	n/a	feedback	n/a	n/a	n/a	n/a	n/a	n/a	n/a	n/a	n/a	n/a
473.04	7.2	8	n/a	mem	con	low	n/a	n/a	instructions	n/a	n/a	n/a	n/a	n/a	n/a	n/a	n/a	n/a	n/a
480.56	2.2199	8	113	mem	con	low	low	mod	tg	tg	tg	nt	right	tg	ht	1.8199	wh/0559.bmp	0.05	24.3
484.88	1.26683	8	114	mem	con	low	low	mod	tg	tg	tg	tg	right	nt	ms	0.86683	wh/0631.bmp	0	24.3
488.48	1.9077	8	115	mem	con	low	low	mod	nt	nt	nt	tg	right	nt	cr	1.5077	nh/0781_nh.bmp	0.05	24.35
491.36	2.56	8	116	mem	con	low	low	mod	tg	tg	nt	tg	n/a	n/a	n/a	n/a	nh/1008_nh.bmp	0	24.35
494.96	1.6288	8	117	mem	con	low	low	mod	tg	tg	nt	nt	left	nt	ms	1.2288	nh/0668_nh.bmp	0	24.35
497.84	1.4308	8	118	mem	con	low	low	mod	tg	tg	tg	nt	right	tg	ht	1.0308	wh/0101.bmp	0.05	24.4
501.44	0.96533	8	119	mem	con	low	low	mod	tg	tg	nt	tg	right	nt	ms	0.56533	nh/0389_nh.bmp	0	24.4
504.32	1.22369	8	120	mem	con	low	low	mod	nt	nt	nt	nt	left	nt	cr	0.82369	nh/0838_nh.bmp	0.05	24.45
507.2	0.88101	8	121	mem	con	low	low	mod	tg	tg	nt	nt	left	nt	ms	0.48101	nh/0840_nh.bmp	0	24.45
510.08	1.14472	8	122	mem	con	low	low	mod	nt	nt	nt	nt	left	nt	cr	0.74472	nh/0736_nh.bmp	0.05	24.5
512.96	0.92308	8	123	mem	con	low	low	mod	nt	nt	tg	nt	left	nt	cr	0.52308	wh/0949.bmp	0.05	24.55
515.84	1.4299	8	124	mem	con	low	low	mod	nt	nt	tg	nt	left	nt	cr	1.0299	wh/1024.bmp	0.05	24.6
520.16	1.19783	8	125	mem	con	low	low	mod	tg	tg	tg	nt	left	nt	ms	0.79783	wh/0532.bmp	0	24.6
523.04	1.17975	8	126	mem	con	low	low	mod	nt	nt	tg	nt	left	nt	cr	0.77975	wh/0849.bmp	0.05	24.65
527.36	1.37293	8	127	mem	con	low	low	mod	nt	nt	tg	nt	left	nt	cr	0.97293	wh/0461.bmp	0.05	24.7
530.96	1.19965	8	128	mem	con	low	low	mod	nt	nt	nt	nt	left	nt	cr	0.79965	nh/1018_nh.bmp	0.05	24.75
533.52	3.6	8	n/a	mem	con	low	n/a	n/a	feedback	n/a	n/a	n/a	n/a	n/a	n/a	n/a	n/a	n/a	n/a
