onset	duration	block	trial	task	crit	disc	mem_disc	per_disc	trial_type	mem_type	per_type	left_option	resp_hand	response	accuracy	response_time	stim_file	pay	pay_tot
7.2	7.2	1	n/a	per	con	mod	n/a	n/a	instructions	n/a	n/a	n/a	n/a	n/a	n/a	n/a	n/a	n/a	n/a
14.72	1.27592	1	1	per	con	mod	mod	mod	nt	nt	nt	nt	left	nt	cr	0.87592	nh/0473_nh.bmp	0.05	6.8
19.04	1.18477	1	2	per	con	mod	mod	mod	nt	nt	nt	tg	right	nt	cr	0.78477	nh/0100_nh.bmp	0.05	6.85
21.92	1.06812	1	3	per	con	mod	mod	mod	nt	tg	nt	tg	right	nt	cr	0.66812	nh/0479_nh.bmp	0.05	6.9
26.24	1.04335	1	4	per	con	mod	mod	mod	nt	tg	nt	nt	left	nt	cr	0.64335	nh/0806_nh.bmp	0.05	6.95
30.56	1.02306	1	5	per	con	mod	mod	mod	nt	tg	nt	nt	left	nt	cr	0.62306	nh/0689_nh.bmp	0.05	7
33.44	1.08783	1	6	per	con	mod	mod	mod	tg	tg	tg	nt	right	tg	ht	0.68783	wh/0895.bmp	0.05	7.05
36.32	1.10879	1	7	per	con	mod	mod	mod	tg	nt	tg	tg	left	tg	ht	0.70879	wh/0637.bmp	0.05	7.1
39.2	0.91402	1	8	per	con	mod	mod	mod	tg	tg	tg	tg	left	tg	ht	0.51402	wh/0448.bmp	0.05	7.15
43.52	1.30276	1	9	per	con	mod	mod	mod	tg	nt	tg	nt	right	tg	ht	0.90276	wh/0942.bmp	0.05	7.2
47.84	1.02814	1	10	per	con	mod	mod	mod	tg	tg	tg	tg	left	tg	ht	0.62814	wh/0229.bmp	0.05	7.25
50.72	1.01352	1	11	per	con	mod	mod	mod	tg	nt	tg	nt	right	tg	ht	0.61352	wh/0679.bmp	0.05	7.3
54.32	0.96955	1	12	per	con	mod	mod	mod	tg	nt	tg	nt	right	tg	ht	0.56955	wh/0884.bmp	0.05	7.35
58.64	1.34675	1	13	per	con	mod	mod	mod	nt	nt	nt	nt	left	nt	cr	0.94675	nh/0183_nh.bmp	0.05	7.4
61.52	1.07204	1	14	per	con	mod	mod	mod	nt	tg	nt	tg	right	nt	cr	0.67204	nh/0592_nh.bmp	0.05	7.45
65.12	1.0633	1	15	per	con	mod	mod	mod	nt	nt	nt	nt	left	nt	cr	0.6633	nh/0750_nh.bmp	0.05	7.5
68.72	1.09632	1	16	per	con	mod	mod	mod	tg	tg	tg	nt	right	tg	ht	0.69632	wh/0664.bmp	0.05	7.55
71.28	3.6	1	n/a	per	con	mod	n/a	n/a	feedback	n/a	n/a	n/a	n/a	n/a	n/a	n/a	n/a	n/a	n/a
74.88	7.2	2	n/a	mem	lib	low	n/a	n/a	instructions	n/a	n/a	n/a	n/a	n/a	n/a	n/a	n/a	n/a	n/a
82.4	0.9476	2	17	mem	lib	low	low	mod	tg	tg	nt	nt	right	tg	ht	0.5476	nh/0214_nh.bmp	0.05	7.6
85.28	1.02268	2	18	mem	lib	low	low	mod	nt	nt	tg	tg	left	tg	fa	0.62268	wh/0087.bmp	0	7.6
88.16	1.04985	2	19	mem	lib	low	low	mod	nt	nt	tg	nt	right	tg	fa	0.64985	wh/0324.bmp	0	7.6
92.48	1.17987	2	20	mem	lib	low	low	mod	tg	tg	tg	tg	left	tg	ht	0.77987	wh/0004.bmp	0.05	7.65
95.36	0.97433	2	21	mem	lib	low	low	mod	tg	tg	tg	nt	left	nt	ms	0.57433	wh/0192.bmp	-0.1	7.55
98.24	1.15392	2	22	mem	lib	low	low	mod	tg	tg	nt	tg	left	tg	ht	0.75392	nh/0894_nh.bmp	0.05	7.6
101.12	1.14774	2	23	mem	lib	low	low	mod	nt	nt	nt	tg	left	tg	fa	0.74774	nh/0752_nh.bmp	0	7.6
104.72	1.2699	2	24	mem	lib	low	low	mod	nt	nt	nt	tg	right	nt	cr	0.8699	nh/0296_nh.bmp	0.05	7.65
107.6	1.6118	2	25	mem	lib	low	low	mod	tg	tg	tg	nt	left	nt	ms	1.2118	wh/0230.bmp	-0.1	7.55
110.48	0.98559	2	26	mem	lib	low	low	mod	tg	tg	tg	tg	left	tg	ht	0.58559	wh/0707.bmp	0.05	7.6
113.36	1.05468	2	27	mem	lib	low	low	mod	nt	nt	tg	tg	left	tg	fa	0.65468	wh/0659.bmp	0	7.6
116.24	2.1498	2	28	mem	lib	low	low	mod	nt	nt	nt	nt	right	tg	fa	1.7498	nh/0553_nh.bmp	0	7.6
119.12	1.30169	2	29	mem	lib	low	low	mod	nt	nt	tg	tg	right	nt	cr	0.90169	wh/0551.bmp	0.05	7.65
123.44	1.14087	2	30	mem	lib	low	low	mod	tg	tg	nt	nt	right	tg	ht	0.74087	nh/0304_nh.bmp	0.05	7.7
127.04	1.01475	2	31	mem	lib	low	low	mod	nt	nt	nt	tg	left	tg	fa	0.61475	nh/0286_nh.bmp	0	7.7
129.92	0.93605	2	32	mem	lib	low	low	mod	tg	tg	nt	tg	left	tg	ht	0.53605	nh/0872_nh.bmp	0.05	7.75
133.2	3.6	2	n/a	mem	lib	low	n/a	n/a	feedback	n/a	n/a	n/a	n/a	n/a	n/a	n/a	n/a	n/a	n/a
138.24	7.2	3	n/a	per	lib	low	n/a	n/a	instructions	n/a	n/a	n/a	n/a	n/a	n/a	n/a	n/a	n/a	n/a
146.48	1.4628	3	33	per	lib	low	mod	low	tg	tg	tg	nt	right	tg	ht	1.0628	wh/0454.bmp	0.05	7.8
150.08	1.08052	3	34	per	lib	low	mod	low	tg	tg	tg	nt	right	tg	ht	0.68052	wh/0132.bmp	0.05	7.85
153.68	1.03521	3	35	per	lib	low	mod	low	tg	tg	tg	nt	right	tg	ht	0.63521	wh/0641.bmp	0.05	7.9
158	1.14889	3	36	per	lib	low	mod	low	tg	nt	tg	nt	right	tg	ht	0.74889	wh/0727.bmp	0.05	7.95
161.6	1.502	3	37	per	lib	low	mod	low	nt	nt	nt	nt	left	nt	cr	1.102	nh/0755_nh.bmp	0.05	8
165.92	1.18887	3	38	per	lib	low	mod	low	nt	nt	nt	tg	left	tg	fa	0.78887	nh/0168_nh.bmp	0	8
169.52	1.17774	3	39	per	lib	low	mod	low	tg	nt	tg	nt	right	tg	ht	0.77774	wh/1021.bmp	0.05	8.05
173.12	1.02978	3	40	per	lib	low	mod	low	nt	tg	nt	tg	left	tg	fa	0.62978	nh/0283_nh.bmp	0	8.05
177.44	1.37781	3	41	per	lib	low	mod	low	nt	nt	nt	tg	left	tg	fa	0.97781	nh/0205_nh.bmp	0	8.05
180.32	1.4659	3	42	per	lib	low	mod	low	nt	tg	nt	nt	left	nt	cr	1.0659	nh/0195_nh.bmp	0.05	8.1
184.64	1.29182	3	43	per	lib	low	mod	low	tg	tg	tg	tg	right	nt	ms	0.89182	wh/0703.bmp	-0.1	8
188.96	0.95335	3	44	per	lib	low	mod	low	nt	nt	nt	nt	left	nt	cr	0.55335	nh/0455_nh.bmp	0.05	8.05
193.28	1.32774	3	45	per	lib	low	mod	low	tg	nt	tg	tg	left	tg	ht	0.92774	wh/0200.bmp	0.05	8.1
196.88	1.22794	3	46	per	lib	low	mod	low	nt	tg	nt	tg	right	nt	cr	0.82794	nh/0400_nh.bmp	0.05	8.15
200.48	1.21981	3	47	per	lib	low	mod	low	tg	nt	tg	nt	right	tg	ht	0.81981	wh/0116.bmp	0.05	8.2
203.36	1.08024	3	48	per	lib	low	mod	low	nt	tg	nt	nt	left	nt	cr	0.68024	nh/1000_nh.bmp	0.05	8.25
206.64	3.6	3	n/a	per	lib	low	n/a	n/a	feedback	n/a	n/a	n/a	n/a	n/a	n/a	n/a	n/a	n/a	n/a
210.24	7.2	4	n/a	per	con	low	n/a	n/a	instructions	n/a	n/a	n/a	n/a	n/a	n/a	n/a	n/a	n/a	n/a
217.76	0.98676	4	49	per	con	low	mod	low	nt	tg	nt	tg	right	nt	cr	0.58676	nh/0315_nh.bmp	0.05	8.3
221.36	1.12289	4	50	per	con	low	mod	low	nt	nt	nt	nt	right	tg	fa	0.72289	nh/0105_nh.bmp	-0.1	8.2
224.96	1.00402	4	51	per	con	low	mod	low	tg	nt	tg	tg	right	nt	ms	0.60402	wh/0897.bmp	0	8.2
227.84	1.03749	4	52	per	con	low	mod	low	tg	nt	tg	tg	left	tg	ht	0.63749	wh/0379.bmp	0.05	8.25
231.44	1.5759	4	53	per	con	low	mod	low	tg	nt	tg	nt	right	tg	ht	1.1759	wh/0704.bmp	0.05	8.3
235.04	1.4058	4	54	per	con	low	mod	low	nt	tg	nt	tg	right	nt	cr	1.0058	nh/0081_nh.bmp	0.05	8.35
237.92	1.3089	4	55	per	con	low	mod	low	tg	tg	tg	nt	left	nt	ms	0.9089	wh/0030.bmp	0	8.35
240.8	1.05249	4	56	per	con	low	mod	low	tg	tg	tg	tg	right	nt	ms	0.65249	wh/0166.bmp	0	8.35
243.68	1.0446	4	57	per	con	low	mod	low	tg	nt	tg	tg	right	nt	ms	0.6446	wh/0298.bmp	0	8.35
246.56	1.14794	4	58	per	con	low	mod	low	tg	tg	tg	tg	right	nt	ms	0.74794	wh/0410.bmp	0	8.35
249.44	1.0955	4	59	per	con	low	mod	low	nt	nt	nt	nt	left	nt	cr	0.6955	nh/0265_nh.bmp	0.05	8.4
252.32	1.5117	4	60	per	con	low	mod	low	nt	tg	nt	tg	right	nt	cr	1.1117	nh/0575_nh.bmp	0.05	8.45
255.92	0.98817	4	61	per	con	low	mod	low	tg	tg	tg	tg	left	tg	ht	0.58817	wh/0246.bmp	0.05	8.5
260.24	1.847	4	62	per	con	low	mod	low	nt	tg	nt	nt	left	nt	cr	1.447	nh/0509_nh.bmp	0.05	8.55
264.56	1.32781	4	63	per	con	low	mod	low	nt	nt	nt	tg	left	tg	fa	0.92781	nh/0932_nh.bmp	-0.1	8.45
268.16	1.05047	4	64	per	con	low	mod	low	nt	nt	nt	tg	right	nt	cr	0.65047	nh/0648_nh.bmp	0.05	8.5
270.72	3.6	4	n/a	per	con	low	n/a	n/a	feedback	n/a	n/a	n/a	n/a	n/a	n/a	n/a	n/a	n/a	n/a
275.76	7.2	5	n/a	mem	lib	mod	n/a	n/a	instructions	n/a	n/a	n/a	n/a	n/a	n/a	n/a	n/a	n/a	n/a
284.72	1.20083	5	65	mem	lib	mod	mod	mod	nt	nt	nt	nt	right	tg	fa	0.80083	nh/0204_nh.bmp	0	8.5
288.32	1.5869	5	66	mem	lib	mod	mod	mod	nt	nt	nt	nt	right	tg	fa	1.1869	nh/0561_nh.bmp	0	8.5
291.2	1.05324	5	67	mem	lib	mod	mod	mod	nt	nt	tg	nt	right	tg	fa	0.65324	wh/0463.bmp	0	8.5
294.08	1.3769	5	68	mem	lib	mod	mod	mod	nt	nt	tg	tg	right	nt	cr	0.9769	wh/0965.bmp	0.05	8.55
296.96	0.96443	5	69	mem	lib	mod	mod	mod	nt	nt	tg	tg	right	nt	cr	0.56443	wh/0698.bmp	0.05	8.6
299.84	1.28393	5	70	mem	lib	mod	mod	mod	tg	tg	nt	nt	right	tg	ht	0.88393	nh/0358_nh.bmp	0.05	8.65
303.44	1.15288	5	71	mem	lib	mod	mod	mod	nt	nt	tg	nt	left	nt	cr	0.75288	wh/0785.bmp	0.05	8.7
307.76	1.7389	5	72	mem	lib	mod	mod	mod	tg	tg	tg	nt	right	tg	ht	1.3389	wh/0861.bmp	0.05	8.75
312.08	0.98513	5	73	mem	lib	mod	mod	mod	tg	tg	tg	nt	right	tg	ht	0.58513	wh/0039.bmp	0.05	8.8
314.96	1.5057	5	74	mem	lib	mod	mod	mod	tg	tg	tg	tg	right	nt	ms	1.1057	wh/0477.bmp	-0.1	8.7
317.84	1.727	5	75	mem	lib	mod	mod	mod	tg	tg	nt	tg	right	nt	ms	1.327	nh/0834_nh.bmp	-0.1	8.6
320.72	1.14176	5	76	mem	lib	mod	mod	mod	nt	nt	nt	nt	right	tg	fa	0.74176	nh/0585_nh.bmp	0	8.6
325.04	1.8448	5	77	mem	lib	mod	mod	mod	tg	tg	tg	tg	left	tg	ht	1.4448	wh/0809.bmp	0.05	8.65
327.92	1.01064	5	78	mem	lib	mod	mod	mod	tg	tg	nt	tg	left	tg	ht	0.61064	nh/0344_nh.bmp	0.05	8.7
331.52	1.7779	5	79	mem	lib	mod	mod	mod	tg	tg	nt	tg	right	nt	ms	1.3779	nh/0759_nh.bmp	-0.1	8.6
334.4	0.99888	5	80	mem	lib	mod	mod	mod	nt	nt	nt	tg	left	tg	fa	0.59888	nh/0841_nh.bmp	0	8.6
336.96	3.6	5	n/a	mem	lib	mod	n/a	n/a	feedback	n/a	n/a	n/a	n/a	n/a	n/a	n/a	n/a	n/a	n/a
340.56	7.2	6	n/a	per	lib	mod	n/a	n/a	instructions	n/a	n/a	n/a	n/a	n/a	n/a	n/a	n/a	n/a	n/a
348.08	1.00637	6	81	per	lib	mod	mod	mod	tg	tg	tg	tg	left	tg	ht	0.60637	wh/0604.bmp	0.05	8.65
352.4	1.08921	6	82	per	lib	mod	mod	mod	nt	tg	nt	tg	right	nt	cr	0.68921	nh/0072_nh.bmp	0.05	8.7
356.72	1.14096	6	83	per	lib	mod	mod	mod	nt	nt	nt	tg	right	nt	cr	0.74096	nh/0274_nh.bmp	0.05	8.75
360.32	0.90953	6	84	per	lib	mod	mod	mod	nt	tg	nt	tg	right	nt	cr	0.50953	nh/0427_nh.bmp	0.05	8.8
364.64	1.17491	6	85	per	lib	mod	mod	mod	nt	nt	nt	nt	left	nt	cr	0.77491	nh/0775_nh.bmp	0.05	8.85
368.24	1.02208	6	86	per	lib	mod	mod	mod	nt	nt	nt	tg	right	nt	cr	0.62208	nh/0405_nh.bmp	0.05	8.9
371.12	1.05529	6	87	per	lib	mod	mod	mod	tg	nt	tg	nt	right	tg	ht	0.65529	wh/0975.bmp	0.05	8.95
374	1.37288	6	88	per	lib	mod	mod	mod	tg	tg	tg	tg	left	tg	ht	0.97288	wh/0365.bmp	0.05	9
377.6	0.96821	6	89	per	lib	mod	mod	mod	tg	nt	tg	tg	left	tg	ht	0.56821	wh/0017.bmp	0.05	9.05
381.92	1.26889	6	90	per	lib	mod	mod	mod	nt	tg	nt	nt	left	nt	cr	0.86889	nh/0943_nh.bmp	0.05	9.1
386.24	1.05843	6	91	per	lib	mod	mod	mod	tg	tg	tg	tg	right	nt	ms	0.65843	wh/0049.bmp	-0.1	9
389.84	1.482	6	92	per	lib	mod	mod	mod	nt	tg	nt	tg	right	nt	cr	1.082	nh/0061_nh.bmp	0.05	9.05
394.16	1.04171	6	93	per	lib	mod	mod	mod	tg	nt	tg	tg	left	tg	ht	0.64171	wh/0959.bmp	0.05	9.1
397.76	1.00036	6	94	per	lib	mod	mod	mod	tg	tg	tg	tg	left	tg	ht	0.60036	wh/0931.bmp	0.05	9.15
400.64	1.37393	6	95	per	lib	mod	mod	mod	nt	nt	nt	nt	left	nt	cr	0.97393	nh/0189_nh.bmp	0.05	9.2
403.52	1.09487	6	96	per	lib	mod	mod	mod	tg	nt	tg	nt	right	tg	ht	0.69487	wh/0393.bmp	0.05	9.25
406.8	3.6	6	n/a	per	lib	mod	n/a	n/a	feedback	n/a	n/a	n/a	n/a	n/a	n/a	n/a	n/a	n/a	n/a
411.12	7.2	7	n/a	mem	con	mod	n/a	n/a	instructions	n/a	n/a	n/a	n/a	n/a	n/a	n/a	n/a	n/a	n/a
418.64	2.56	7	97	mem	con	mod	mod	mod	nt	nt	nt	nt	n/a	mr	n/a	n/a	nh/0920_nh.bmp	0	9.25
421.52	1.30589	7	98	mem	con	mod	mod	mod	tg	tg	tg	tg	left	tg	ht	0.90589	wh/0151.bmp	0.05	9.3
425.12	0.95598	7	99	mem	con	mod	mod	mod	tg	tg	nt	tg	right	nt	ms	0.55598	nh/0490_nh.bmp	0	9.3
429.44	1.36693	7	100	mem	con	mod	mod	mod	nt	nt	nt	tg	right	nt	cr	0.96693	nh/0526_nh.bmp	0.05	9.35
433.04	1.25392	7	101	mem	con	mod	mod	mod	tg	tg	tg	nt	right	tg	ht	0.85392	wh/0343.bmp	0.05	9.4
435.92	1.09011	7	102	mem	con	mod	mod	mod	tg	tg	tg	tg	right	nt	ms	0.69011	wh/0538.bmp	0	9.4
438.8	1.12793	7	103	mem	con	mod	mod	mod	nt	nt	tg	tg	left	tg	fa	0.72793	wh/0879.bmp	-0.1	9.3
441.68	2.56	7	104	mem	con	mod	mod	mod	nt	nt	nt	nt	n/a	mr	n/a	n/a	nh/0724_nh.bmp	0	9.3
444.56	0.96036	7	105	mem	con	mod	mod	mod	tg	tg	nt	tg	right	nt	ms	0.56036	nh/0445_nh.bmp	0	9.3
447.44	1.39984	7	106	mem	con	mod	mod	mod	nt	nt	tg	tg	right	nt	cr	0.99984	wh/0596.bmp	0.05	9.35
451.76	1.4808	7	107	mem	con	mod	mod	mod	nt	nt	tg	nt	left	nt	cr	1.0808	wh/0600.bmp	0.05	9.4
455.36	2.2157	7	108	mem	con	mod	mod	mod	nt	nt	nt	nt	right	tg	fa	1.8157	nh/0002_nh.bmp	-0.1	9.3
458.24	1.31192	7	109	mem	con	mod	mod	mod	tg	tg	tg	nt	right	tg	ht	0.91192	wh/0705.bmp	0.05	9.35
461.12	1.20372	7	110	mem	con	mod	mod	mod	tg	tg	nt	tg	left	tg	ht	0.80372	nh/0282_nh.bmp	0.05	9.4
464	1.6889	7	111	mem	con	mod	mod	mod	tg	tg	nt	tg	left	tg	ht	1.2889	nh/0753_nh.bmp	0.05	9.45
467.6	1.03207	7	112	mem	con	mod	mod	mod	nt	nt	tg	nt	right	tg	fa	0.63207	wh/0162.bmp	-0.1	9.35
470.88	3.6	7	n/a	mem	con	mod	n/a	n/a	feedback	n/a	n/a	n/a	n/a	n/a	n/a	n/a	n/a	n/a	n/a
475.92	7.2	8	n/a	mem	con	low	n/a	n/a	instructions	n/a	n/a	n/a	n/a	n/a	n/a	n/a	n/a	n/a	n/a
484.88	1.28094	8	113	mem	con	low	low	mod	nt	nt	nt	tg	right	nt	cr	0.88094	nh/0476_nh.bmp	0.05	9.4
488.48	1.9739	8	114	mem	con	low	low	mod	tg	tg	tg	nt	right	tg	ht	1.5739	wh/0457.bmp	0.05	9.45
492.08	1.10382	8	115	mem	con	low	low	mod	nt	nt	nt	nt	right	tg	fa	0.70382	nh/0322_nh.bmp	-0.1	9.35
494.96	1.7949	8	116	mem	con	low	low	mod	tg	tg	nt	nt	right	tg	ht	1.3949	nh/0409_nh.bmp	0.05	9.4
498.56	1.5518	8	117	mem	con	low	low	mod	tg	tg	nt	tg	right	nt	ms	1.1518	nh/0474_nh.bmp	0	9.4
502.88	2.0259	8	118	mem	con	low	low	mod	tg	tg	tg	tg	left	tg	ht	1.6259	wh/0620.bmp	0.05	9.45
507.2	1.00438	8	119	mem	con	low	low	mod	nt	nt	tg	nt	left	nt	cr	0.60438	wh/0527.bmp	0.05	9.5
511.52	1.5799	8	120	mem	con	low	low	mod	nt	nt	tg	tg	right	nt	cr	1.1799	wh/0321.bmp	0.05	9.55
515.84	0.9079	8	121	mem	con	low	low	mod	nt	nt	tg	tg	right	nt	cr	0.5079	wh/0272.bmp	0.05	9.6
518.72	1.22604	8	122	mem	con	low	low	mod	nt	nt	nt	tg	right	nt	cr	0.82604	nh/0974_nh.bmp	0.05	9.65
521.6	1.22288	8	123	mem	con	low	low	mod	tg	tg	nt	tg	left	tg	ht	0.82288	nh/0201_nh.bmp	0.05	9.7
524.48	1.5909	8	124	mem	con	low	low	mod	nt	nt	nt	nt	right	tg	fa	1.1909	nh/0887_nh.bmp	-0.1	9.6
527.36	1.07345	8	125	mem	con	low	low	mod	tg	tg	tg	tg	right	nt	ms	0.67345	wh/0969.bmp	0	9.6
531.68	1.3409	8	126	mem	con	low	low	mod	tg	tg	tg	nt	left	nt	ms	0.9409	wh/0726.bmp	0	9.6
535.28	1.23491	8	127	mem	con	low	low	mod	tg	tg	nt	tg	right	nt	ms	0.83491	nh/0085_nh.bmp	0	9.6
538.16	1.21376	8	128	mem	con	low	low	mod	nt	nt	tg	tg	left	tg	fa	0.81376	wh/0696.bmp	-0.1	9.5
542.16	3.6	8	n/a	mem	con	low	n/a	n/a	feedback	n/a	n/a	n/a	n/a	n/a	n/a	n/a	n/a	n/a	n/a
