onset	duration	trial	pres	ts_blk	ts_trl	task	crit	disc	mem_disc	per_disc	per_type	accuracy	stim_file
7.20	0.72	1	1	3	54	per	con	low	mod	low	nt	cr	nh/0081_nh.bmp
7.92	0.72	2	1	3	34	per	lib	low	mod	low	tg	ht	wh/0132.bmp
8.64	0.72	3	2	3	54	per	con	low	mod	low	nt	cr	nh/0081_nh.bmp
9.36	0.72	4	1	1	128	per	lib	low	mod	low	tg	ht	wh/0212.bmp
10.08	0.72	5	1	3	73	mem	lib	mod	mod	mod	tg	ht	wh/0039.bmp
10.80	0.72	6	1	2	96	mem	con	low	low	low	tg	ht	wh/0363.bmp
11.52	0.72	7	1	3	55	per	con	low	mod	low	tg	ms	wh/0030.bmp
12.24	0.72	8	1	4	118	mem	lib	mod	mod	low	nt	ms	nh/0643_nh.bmp
12.96	0.72	9	1	4	115	mem	lib	mod	mod	low	nt	ht	nh/0067_nh.bmp
13.68	0.72	10	1	3	58	per	con	low	mod	low	tg	ms	wh/0410.bmp
14.40	0.72	11	1	3	22	mem	lib	low	low	mod	nt	ht	nh/0894_nh.bmp
15.12	0.72	12	1	4	71	mem	con	mod	mod	low	tg	ht	wh/0390.bmp
15.84	0.72	13	1	1	33	per	con	low	mod	low	tg	ht	wh/0293.bmp
16.56	0.72	14	1	3	78	mem	lib	mod	mod	mod	nt	ht	nh/0344_nh.bmp
17.28	0.72	15	1	4	120	mem	lib	mod	mod	low	nt	ht	nh/0174_nh.bmp
18.00	0.72	16	1	3	125	mem	con	low	low	mod	tg	ms	wh/0969.bmp
18.72	0.72	17	1	1	57	per	lib	mod	mod	mod	tg	ht	wh/0333.bmp
19.44	0.72	18	1	2	109	mem	con	mod	mod	mod	nt	ms	nh/1010_nh.bmp
20.16	0.72	19	1	1	94	mem	lib	mod	mod	low	nt	ht	nh/0368_nh.bmp
20.88	0.72	20	1	3	101	mem	con	mod	mod	mod	tg	ht	wh/0343.bmp
21.60	0.72	21	1	3	92	per	lib	mod	mod	mod	nt	cr	nh/0061_nh.bmp
22.32	0.72	22	2	4	118	mem	lib	mod	mod	low	nt	ms	nh/0643_nh.bmp
23.04	0.72	23	1	2	60	per	lib	mod	low	mod	tg	ms	wh/0069.bmp
23.76	0.72	24	1	2	3	per	con	mod	mod	mod	tg	ht	wh/0738.bmp
24.48	0.72	25	2	3	92	per	lib	mod	mod	mod	nt	cr	nh/0061_nh.bmp
25.20	0.72	26	1	2	105	mem	con	mod	mod	mod	nt	ht	nh/0487_nh.bmp
25.92	0.72	27	1	1	117	per	lib	low	mod	low	nt	fa	nh/0671_nh.bmp
26.64	0.72	28	1	3	105	mem	con	mod	mod	mod	nt	ms	nh/0445_nh.bmp
27.36	0.72	29	2	3	34	per	lib	low	mod	low	tg	ht	wh/0132.bmp
28.08	0.72	30	1	1	122	per	lib	low	mod	low	tg	ms	wh/0302.bmp
28.80	0.72	31	1	4	66	mem	con	mod	mod	low	nt	ht	nh/0798_nh.bmp
29.52	0.72	32	1	2	65	mem	lib	mod	mod	mod	tg	ht	wh/0104.bmp
30.24	0.72	33	1	4	75	mem	con	mod	mod	low	tg	ht	wh/0291.bmp
30.96	0.72	34	1	1	87	mem	lib	mod	mod	low	nt	ht	nh/0203_nh.bmp
31.68	0.72	35	1	2	40	mem	lib	low	low	mod	tg	ht	wh/0913.bmp
32.40	0.72	36	1	4	78	mem	con	mod	mod	low	nt	ht	nh/0424_nh.bmp
33.12	0.72	37	1	2	20	per	con	low	low	low	nt	cr	nh/0535_nh.bmp
33.84	0.72	38	1	1	43	per	con	low	mod	low	tg	ht	wh/0263.bmp
34.56	0.72	39	1	4	124	mem	lib	mod	mod	low	tg	ht	wh/0792.bmp
35.28	0.72	40	3	3	92	per	lib	mod	mod	mod	nt	cr	nh/0061_nh.bmp
36.00	0.72	41	1	1	107	per	con	mod	low	mod	tg	ht	wh/0033.bmp
36.72	0.72	42	2	1	128	per	lib	low	mod	low	tg	ht	wh/0212.bmp
37.44	0.72	43	1	1	27	mem	con	mod	mod	low	tg	ht	wh/0415.bmp
38.16	0.72	44	1	1	114	per	lib	low	mod	low	nt	cr	nh/0422_nh.bmp
38.88	0.72	45	1	1	88	mem	lib	mod	mod	low	tg	ht	wh/0124.bmp
39.60	0.72	46	1	3	48	per	lib	low	mod	low	nt	cr	nh/1000_nh.bmp
40.32	0.72	47	1	4	114	mem	lib	mod	mod	low	tg	ht	wh/0683.bmp
41.04	0.72	48	2	4	66	mem	con	mod	mod	low	nt	ht	nh/0798_nh.bmp
41.76	0.72	49	1	3	110	mem	con	mod	mod	mod	nt	ht	nh/0282_nh.bmp
42.48	0.72	50	1	1	91	mem	lib	mod	mod	low	tg	ht	wh/0988.bmp
43.20	0.72	51	1	1	35	per	con	low	mod	low	tg	ms	wh/0459.bmp
43.92	0.72	52	2	1	94	mem	lib	mod	mod	low	nt	ht	nh/0368_nh.bmp
44.64	0.72	53	1	1	22	mem	con	mod	mod	low	tg	ht	wh/0295.bmp
45.36	0.72	54	2	3	101	mem	con	mod	mod	mod	tg	ht	wh/0343.bmp
46.08	0.72	55	1	3	94	per	lib	mod	mod	mod	tg	ht	wh/0931.bmp
46.80	0.72	56	1	1	96	mem	lib	mod	mod	low	tg	ms	wh/0661.bmp
47.52	0.72	57	1	3	35	per	lib	low	mod	low	tg	ht	wh/0641.bmp
48.24	0.72	58	1	3	46	per	lib	low	mod	low	nt	cr	nh/0400_nh.bmp
48.96	0.72	59	1	2	68	mem	lib	mod	mod	mod	nt	ht	nh/0970_nh.bmp
49.68	0.72	60	1	4	70	mem	con	mod	mod	low	nt	ht	nh/0615_nh.bmp
50.40	0.72	61	2	1	43	per	con	low	mod	low	tg	ht	wh/0263.bmp
51.12	0.72	62	1	4	74	mem	con	mod	mod	low	tg	ht	wh/0131.bmp
51.84	0.72	63	1	3	70	mem	lib	mod	mod	mod	nt	ht	nh/0358_nh.bmp
52.56	0.72	64	1	2	1	per	con	mod	mod	mod	tg	ms	wh/0137.bmp
53.28	0.72	65	1	3	77	mem	lib	mod	mod	mod	tg	ht	wh/0809.bmp
54.00	0.72	66	3	3	34	per	lib	low	mod	low	tg	ht	wh/0132.bmp
54.72	0.72	67	1	1	89	mem	lib	mod	mod	low	nt	ht	nh/0386_nh.bmp
55.44	0.72	68	2	2	3	per	con	mod	mod	mod	tg	ht	wh/0738.bmp
56.16	0.72	69	1	1	58	per	lib	mod	mod	mod	tg	ht	wh/0628.bmp
56.88	0.72	70	1	1	51	per	lib	mod	mod	mod	nt	fa	nh/0331_nh.bmp
57.60	0.72	71	1	3	56	per	con	low	mod	low	tg	ms	wh/0166.bmp
58.32	0.72	72	1	1	121	per	lib	low	mod	low	tg	ht	wh/0882.bmp
59.04	0.72	73	2	2	105	mem	con	mod	mod	mod	nt	ht	nh/0487_nh.bmp
59.76	0.72	74	1	3	16	per	con	mod	mod	mod	tg	ht	wh/0664.bmp
60.48	0.72	75	1	1	83	mem	lib	mod	mod	low	nt	ht	nh/0323_nh.bmp
61.20	0.72	76	1	3	43	per	lib	low	mod	low	tg	ms	wh/0703.bmp
61.92	0.72	77	1	3	109	mem	con	mod	mod	mod	tg	ht	wh/0705.bmp
62.64	0.72	78	1	2	72	mem	lib	mod	mod	mod	tg	ht	wh/0761.bmp
63.36	0.72	79	1	1	30	mem	con	mod	mod	low	nt	ms	nh/0791_nh.bmp
64.08	0.72	80	2	3	109	mem	con	mod	mod	mod	tg	ht	wh/0705.bmp
64.80	0.72	81	2	1	35	per	con	low	mod	low	tg	ms	wh/0459.bmp
65.52	0.72	82	1	2	77	mem	lib	mod	mod	mod	nt	ms	nh/0583_nh.bmp
66.24	0.72	83	1	3	111	mem	con	mod	mod	mod	nt	ht	nh/0753_nh.bmp
66.96	0.72	84	1	2	7	per	con	mod	mod	mod	tg	ht	wh/0796.bmp
67.68	0.72	85	1	3	88	per	lib	mod	mod	mod	tg	ht	wh/0365.bmp
68.40	0.72	86	3	2	105	mem	con	mod	mod	mod	nt	ht	nh/0487_nh.bmp
69.12	0.72	87	1	4	79	mem	con	mod	mod	low	tg	ht	wh/0523.bmp
69.84	0.72	88	1	1	124	per	lib	low	mod	low	nt	cr	nh/0672_nh.bmp
70.56	0.72	89	2	3	105	mem	con	mod	mod	mod	nt	ms	nh/0445_nh.bmp
71.28	0.72	90	1	3	8	per	con	mod	mod	mod	tg	ht	wh/0448.bmp
72.00	0.72	91	1	2	106	mem	con	mod	mod	mod	nt	ht	nh/0576_nh.bmp
72.72	0.72	92	1	3	6	per	con	mod	mod	mod	tg	ht	wh/0895.bmp
73.44	0.72	93	2	4	120	mem	lib	mod	mod	low	nt	ht	nh/0174_nh.bmp
74.16	0.72	94	1	3	40	per	lib	low	mod	low	nt	fa	nh/0283_nh.bmp
74.88	0.72	95	1	3	91	per	lib	mod	mod	mod	tg	ms	wh/0049.bmp
75.60	0.72	96	2	1	58	per	lib	mod	mod	mod	tg	ht	wh/0628.bmp
76.32	0.72	97	1	2	97	mem	con	mod	mod	mod	nt	ht	nh/1006_nh.bmp
77.04	0.72	98	1	1	118	per	lib	low	mod	low	nt	cr	nh/0259_nh.bmp
77.76	0.72	99	2	2	72	mem	lib	mod	mod	mod	tg	ht	wh/0761.bmp
78.48	0.72	100	1	2	28	per	con	low	low	low	nt	fa	nh/0250_nh.bmp
79.20	0.72	101	1	3	60	per	con	low	mod	low	nt	cr	nh/0575_nh.bmp
79.92	0.72	102	1	1	56	per	lib	mod	mod	mod	tg	ht	wh/0799.bmp
80.64	0.72	103	1	3	32	mem	lib	low	low	mod	nt	ht	nh/0872_nh.bmp
81.36	0.72	104	1	2	73	mem	lib	mod	mod	mod	nt	ht	nh/0348_nh.bmp
82.08	0.72	105	1	2	44	mem	lib	low	low	mod	tg	ms	wh/0467.bmp
82.80	0.72	106	1	4	68	mem	con	mod	mod	low	nt	ht	nh/0236_nh.bmp
83.52	0.72	107	2	1	83	mem	lib	mod	mod	low	nt	ht	nh/0323_nh.bmp
84.24	0.72	108	4	3	34	per	lib	low	mod	low	tg	ht	wh/0132.bmp
84.96	0.72	109	4	2	105	mem	con	mod	mod	mod	nt	ht	nh/0487_nh.bmp
85.68	0.72	110	3	1	58	per	lib	mod	mod	mod	tg	ht	wh/0628.bmp
86.40	0.72	111	1	1	66	mem	lib	low	low	low	nt	n/a	nh/0010_nh.bmp
87.12	0.72	112	2	1	96	mem	lib	mod	mod	low	tg	ms	wh/0661.bmp
87.84	0.72	113	2	1	33	per	con	low	mod	low	tg	ht	wh/0293.bmp
88.56	0.72	114	1	3	62	per	con	low	mod	low	nt	cr	nh/0509_nh.bmp
89.28	0.72	115	1	4	92	mem	lib	low	low	low	nt	ms	nh/0252_nh.bmp
90.00	0.72	116	2	1	51	per	lib	mod	mod	mod	nt	fa	nh/0331_nh.bmp
90.72	0.72	117	2	1	124	per	lib	low	mod	low	nt	cr	nh/0672_nh.bmp
91.44	0.72	118	1	2	67	mem	lib	mod	mod	mod	tg	ms	wh/0983.bmp
92.16	0.72	119	1	4	55	per	lib	low	low	low	tg	ht	wh/0607.bmp
92.88	0.72	120	1	4	35	per	con	mod	low	mod	nt	cr	nh/0498_nh.bmp
93.60	0.72	121	2	3	62	per	con	low	mod	low	nt	cr	nh/0509_nh.bmp
94.32	0.72	122	1	3	98	mem	con	mod	mod	mod	tg	ht	wh/0151.bmp
95.04	0.72	123	2	1	91	mem	lib	mod	mod	low	tg	ht	wh/0988.bmp
95.76	0.72	124	1	3	3	per	con	mod	mod	mod	nt	cr	nh/0479_nh.bmp
96.48	0.72	125	2	3	60	per	con	low	mod	low	nt	cr	nh/0575_nh.bmp
97.20	0.72	126	2	1	117	per	lib	low	mod	low	nt	fa	nh/0671_nh.bmp
97.92	0.72	127	1	2	10	per	con	mod	mod	mod	tg	ht	wh/0961.bmp
98.64	0.72	128	1	3	102	mem	con	mod	mod	mod	tg	ms	wh/0538.bmp
99.36	0.72	129	2	3	16	per	con	mod	mod	mod	tg	ht	wh/0664.bmp
100.08	0.72	130	1	3	82	per	lib	mod	mod	mod	nt	cr	nh/0072_nh.bmp
100.80	0.72	131	1	1	18	mem	con	mod	mod	low	nt	ht	nh/0007_nh.bmp
101.52	0.72	132	2	3	82	per	lib	mod	mod	mod	nt	cr	nh/0072_nh.bmp
102.24	0.72	133	3	2	72	mem	lib	mod	mod	mod	tg	ht	wh/0761.bmp
102.96	0.72	134	2	1	122	per	lib	low	mod	low	tg	ms	wh/0302.bmp
103.68	0.72	135	1	1	28	mem	con	mod	mod	low	tg	ht	wh/0444.bmp
104.40	0.72	136	1	1	40	per	con	low	mod	low	nt	cr	nh/0438_nh.bmp
105.12	0.72	137	2	4	74	mem	con	mod	mod	low	tg	ht	wh/0131.bmp
105.84	0.72	138	2	4	71	mem	con	mod	mod	low	tg	ht	wh/0390.bmp
106.56	0.72	139	3	2	3	per	con	mod	mod	mod	tg	ht	wh/0738.bmp
107.28	0.72	140	2	3	3	per	con	mod	mod	mod	nt	cr	nh/0479_nh.bmp
108.00	0.72	141	1	3	79	mem	lib	mod	mod	mod	nt	ms	nh/0759_nh.bmp
108.72	0.72	142	2	4	70	mem	con	mod	mod	low	nt	ht	nh/0615_nh.bmp
109.44	0.72	143	1	2	12	per	con	mod	mod	mod	nt	cr	nh/0925_nh.bmp
110.16	0.72	144	2	4	115	mem	lib	mod	mod	low	nt	ht	nh/0067_nh.bmp
110.88	0.72	145	2	2	97	mem	con	mod	mod	mod	nt	ht	nh/1006_nh.bmp
111.60	0.72	146	2	3	79	mem	lib	mod	mod	mod	nt	ms	nh/0759_nh.bmp
112.32	0.72	147	1	1	55	per	lib	mod	mod	mod	nt	cr	nh/0313_nh.bmp
113.04	0.72	148	1	1	109	per	con	mod	low	mod	nt	cr	nh/0567_nh.bmp
113.76	0.72	149	2	1	28	mem	con	mod	mod	low	tg	ht	wh/0444.bmp
114.48	0.72	150	1	2	107	mem	con	mod	mod	mod	tg	ht	wh/0742.bmp
115.20	0.72	151	2	2	7	per	con	mod	mod	mod	tg	ht	wh/0796.bmp
115.92	0.72	152	1	4	19	per	lib	mod	low	mod	nt	fa	nh/0667_nh.bmp
116.64	0.72	153	1	3	84	per	lib	mod	mod	mod	nt	cr	nh/0427_nh.bmp
117.36	0.72	154	1	2	115	per	lib	low	low	low	nt	cr	nh/0505_nh.bmp
118.08	0.72	155	1	4	126	mem	lib	mod	mod	low	nt	ht	nh/0757_nh.bmp
118.80	0.72	156	1	1	41	per	con	low	mod	low	nt	cr	nh/0914_nh.bmp
119.52	0.72	157	2	1	55	per	lib	mod	mod	mod	nt	cr	nh/0313_nh.bmp
120.24	0.72	158	2	1	56	per	lib	mod	mod	mod	tg	ht	wh/0799.bmp
120.96	0.72	159	1	2	79	mem	lib	mod	mod	mod	nt	ht	nh/0674_nh.bmp
121.68	0.72	160	3	3	109	mem	con	mod	mod	mod	tg	ht	wh/0705.bmp
122.40	0.72	161	2	4	124	mem	lib	mod	mod	low	tg	ht	wh/0792.bmp
123.12	0.72	162	1	4	121	mem	lib	mod	mod	low	tg	ht	wh/0976.bmp
123.84	0.72	163	1	1	42	per	con	low	mod	low	nt	cr	nh/0765_nh.bmp
124.56	0.72	164	1	2	48	mem	lib	low	low	mod	nt	ht	nh/0813_nh.bmp
125.28	0.72	165	1	1	37	per	con	low	mod	low	tg	ms	wh/0412.bmp
126.00	0.72	166	2	3	48	per	lib	low	mod	low	nt	cr	nh/1000_nh.bmp
126.72	0.72	167	4	3	109	mem	con	mod	mod	mod	tg	ht	wh/0705.bmp
127.44	0.72	168	5	3	34	per	lib	low	mod	low	tg	ht	wh/0132.bmp
128.16	0.72	169	2	3	110	mem	con	mod	mod	mod	nt	ht	nh/0282_nh.bmp
128.88	0.72	170	3	2	7	per	con	mod	mod	mod	tg	ht	wh/0796.bmp
129.60	0.72	171	1	4	119	mem	lib	mod	mod	low	tg	ht	wh/0512.bmp
130.32	0.72	172	1	2	6	per	con	mod	mod	mod	nt	cr	nh/0665_nh.bmp
131.04	0.72	173	3	1	124	per	lib	low	mod	low	nt	cr	nh/0672_nh.bmp
131.76	0.72	174	2	2	1	per	con	mod	mod	mod	tg	ms	wh/0137.bmp
132.48	0.72	175	2	3	94	per	lib	mod	mod	mod	tg	ht	wh/0931.bmp
133.20	0.72	176	1	2	23	per	con	low	low	low	tg	ms	wh/0916.bmp
133.92	0.72	177	1	3	74	mem	lib	mod	mod	mod	tg	ms	wh/0477.bmp
134.64	0.72	178	1	1	23	mem	con	mod	mod	low	tg	ms	wh/0312.bmp
135.36	0.72	179	2	1	27	mem	con	mod	mod	low	tg	ht	wh/0415.bmp
136.08	0.72	180	2	3	46	per	lib	low	mod	low	nt	cr	nh/0400_nh.bmp
136.80	0.72	181	2	3	8	per	con	mod	mod	mod	tg	ht	wh/0448.bmp
137.52	0.72	182	1	4	84	mem	lib	low	low	low	tg	ht	wh/0484.bmp
138.24	0.72	183	3	1	128	per	lib	low	mod	low	tg	ht	wh/0212.bmp
138.96	0.72	184	3	3	62	per	con	low	mod	low	nt	cr	nh/0509_nh.bmp
139.68	0.72	185	1	3	75	mem	lib	mod	mod	mod	nt	ms	nh/0834_nh.bmp
140.40	0.72	186	2	3	75	mem	lib	mod	mod	mod	nt	ms	nh/0834_nh.bmp
141.12	0.72	187	1	4	49	per	lib	low	low	low	tg	ht	wh/0492.bmp
141.84	0.72	188	1	3	33	per	lib	low	mod	low	tg	ht	wh/0454.bmp
142.56	0.72	189	3	3	75	mem	lib	mod	mod	mod	nt	ms	nh/0834_nh.bmp
143.28	0.72	190	1	3	20	mem	lib	low	low	mod	tg	ht	wh/0004.bmp
144.00	0.72	191	2	3	55	per	con	low	mod	low	tg	ms	wh/0030.bmp
144.72	0.72	192	1	1	39	per	con	low	mod	low	nt	cr	nh/0554_nh.bmp
145.44	0.72	193	1	3	14	per	con	mod	mod	mod	nt	cr	nh/0592_nh.bmp
146.16	0.72	194	1	1	26	mem	con	mod	mod	low	nt	ms	nh/0494_nh.bmp
146.88	0.72	195	2	4	75	mem	con	mod	mod	low	tg	ht	wh/0291.bmp
147.60	0.72	196	3	3	54	per	con	low	mod	low	nt	cr	nh/0081_nh.bmp
148.32	0.72	197	2	1	23	mem	con	mod	mod	low	tg	ms	wh/0312.bmp
149.04	0.72	198	1	2	92	mem	con	low	low	low	tg	ms	wh/0245.bmp
149.76	0.72	199	3	4	118	mem	lib	mod	mod	low	nt	ms	nh/0643_nh.bmp
150.48	0.72	200	3	1	56	per	lib	mod	mod	mod	tg	ht	wh/0799.bmp
151.20	0.72	201	1	3	72	mem	lib	mod	mod	mod	tg	ht	wh/0861.bmp
151.92	0.72	202	1	1	3	mem	con	low	low	mod	nt	ms	nh/0858_nh.bmp
152.64	0.72	203	1	2	19	per	con	low	low	low	nt	cr	nh/0160_nh.bmp
153.36	0.72	204	2	2	109	mem	con	mod	mod	mod	nt	ms	nh/1010_nh.bmp
154.08	0.72	205	3	1	55	per	lib	mod	mod	mod	nt	cr	nh/0313_nh.bmp
154.80	0.72	206	2	3	73	mem	lib	mod	mod	mod	tg	ht	wh/0039.bmp
155.52	0.72	207	3	1	83	mem	lib	mod	mod	low	nt	ht	nh/0323_nh.bmp
156.24	0.72	208	2	2	65	mem	lib	mod	mod	mod	tg	ht	wh/0104.bmp
156.96	0.72	209	1	2	103	mem	con	mod	mod	mod	tg	ht	wh/0071.bmp
157.68	0.72	210	3	3	55	per	con	low	mod	low	tg	ms	wh/0030.bmp
158.40	0.72	211	1	2	83	mem	con	low	low	low	nt	ms	nh/0504_nh.bmp
159.12	0.72	212	2	3	35	per	lib	low	mod	low	tg	ht	wh/0641.bmp
159.84	0.72	213	1	3	90	per	lib	mod	mod	mod	nt	cr	nh/0943_nh.bmp
160.56	0.72	214	2	1	22	mem	con	mod	mod	low	tg	ht	wh/0295.bmp
161.28	0.72	215	2	2	103	mem	con	mod	mod	mod	tg	ht	wh/0071.bmp
162.00	0.72	216	4	2	3	per	con	mod	mod	mod	tg	ht	wh/0738.bmp
162.72	0.72	217	3	3	79	mem	lib	mod	mod	mod	nt	ms	nh/0759_nh.bmp
163.44	0.72	218	1	2	104	mem	con	mod	mod	mod	tg	ht	wh/0320.bmp
164.16	0.72	219	4	1	56	per	lib	mod	mod	mod	tg	ht	wh/0799.bmp
164.88	0.72	220	1	3	61	per	con	low	mod	low	tg	ht	wh/0246.bmp
165.60	0.72	221	3	2	65	mem	lib	mod	mod	mod	tg	ht	wh/0104.bmp
166.32	0.72	222	1	1	60	per	lib	mod	mod	mod	tg	ht	wh/0562.bmp
167.04	0.72	223	1	3	49	per	con	low	mod	low	nt	cr	nh/0315_nh.bmp
167.76	0.72	224	2	3	111	mem	con	mod	mod	mod	nt	ht	nh/0753_nh.bmp
168.48	0.72	225	2	1	18	mem	con	mod	mod	low	nt	ht	nh/0007_nh.bmp
169.20	0.72	226	1	2	38	mem	lib	low	low	mod	nt	ht	nh/0050_nh.bmp
169.92	0.72	227	1	4	58	per	lib	low	low	low	nt	cr	nh/0130_nh.bmp
170.64	0.72	228	2	2	79	mem	lib	mod	mod	mod	nt	ht	nh/0674_nh.bmp
171.36	0.72	229	2	1	37	per	con	low	mod	low	tg	ms	wh/0412.bmp
172.08	0.72	230	1	3	4	per	con	mod	mod	mod	nt	cr	nh/0806_nh.bmp
172.80	0.72	231	2	2	104	mem	con	mod	mod	mod	tg	ht	wh/0320.bmp
173.52	0.72	232	3	3	82	per	lib	mod	mod	mod	nt	cr	nh/0072_nh.bmp
174.24	0.72	233	3	1	18	mem	con	mod	mod	low	nt	ht	nh/0007_nh.bmp
174.96	0.72	234	2	3	56	per	con	low	mod	low	tg	ms	wh/0166.bmp
175.68	0.72	235	2	3	61	per	con	low	mod	low	tg	ht	wh/0246.bmp
176.40	0.72	236	3	1	35	per	con	low	mod	low	tg	ms	wh/0459.bmp
177.12	0.72	237	3	3	73	mem	lib	mod	mod	mod	tg	ht	wh/0039.bmp
177.84	0.72	238	1	3	81	per	lib	mod	mod	mod	tg	ht	wh/0604.bmp
178.56	0.72	239	1	4	63	per	lib	low	low	low	nt	cr	nh/0430_nh.bmp
179.28	0.72	240	1	1	12	mem	con	low	low	mod	tg	ms	wh/0547.bmp
180.00	0.72	241	2	3	14	per	con	mod	mod	mod	nt	cr	nh/0592_nh.bmp
180.72	0.72	242	3	1	22	mem	con	mod	mod	low	tg	ht	wh/0295.bmp
181.44	0.72	243	1	3	117	mem	con	low	low	mod	nt	ms	nh/0474_nh.bmp
182.16	0.72	244	3	2	103	mem	con	mod	mod	mod	tg	ht	wh/0071.bmp
182.88	0.72	245	2	3	40	per	lib	low	mod	low	nt	fa	nh/0283_nh.bmp
183.60	0.72	246	1	3	10	per	con	mod	mod	mod	tg	ht	wh/0229.bmp
184.32	0.72	247	4	2	103	mem	con	mod	mod	mod	tg	ht	wh/0071.bmp
185.04	0.72	248	1	3	114	mem	con	low	low	mod	tg	ht	wh/0457.bmp
185.76	0.72	249	2	2	67	mem	lib	mod	mod	mod	tg	ms	wh/0983.bmp
186.48	0.72	250	2	4	78	mem	con	mod	mod	low	nt	ht	nh/0424_nh.bmp
187.20	0.72	251	1	3	17	mem	lib	low	low	mod	nt	ht	nh/0214_nh.bmp
187.92	0.72	252	2	3	58	per	con	low	mod	low	tg	ms	wh/0410.bmp
188.64	0.72	253	3	1	51	per	lib	mod	mod	mod	nt	fa	nh/0331_nh.bmp
189.36	0.72	254	1	2	8	per	con	mod	mod	mod	nt	cr	nh/0279_nh.bmp
190.08	0.72	255	2	3	43	per	lib	low	mod	low	tg	ms	wh/0703.bmp
190.80	0.72	256	1	1	32	mem	con	mod	mod	low	nt	ht	nh/1013_nh.bmp
191.52	0.72	257	1	2	18	per	con	low	low	low	tg	ht	wh/0169.bmp
192.24	0.72	258	3	3	61	per	con	low	mod	low	tg	ht	wh/0246.bmp
192.96	0.72	259	3	1	33	per	con	low	mod	low	tg	ht	wh/0293.bmp
193.68	0.72	260	2	1	89	mem	lib	mod	mod	low	nt	ht	nh/0386_nh.bmp
194.40	0.72	261	3	3	58	per	con	low	mod	low	tg	ms	wh/0410.bmp
195.12	0.72	262	2	2	8	per	con	mod	mod	mod	nt	cr	nh/0279_nh.bmp
195.84	0.72	263	4	3	82	per	lib	mod	mod	mod	nt	cr	nh/0072_nh.bmp
196.56	0.72	264	4	3	92	per	lib	mod	mod	mod	nt	cr	nh/0061_nh.bmp
197.28	0.72	265	4	1	55	per	lib	mod	mod	mod	nt	cr	nh/0313_nh.bmp
198.00	0.72	266	1	2	101	mem	con	mod	mod	mod	tg	ht	wh/0901.bmp
198.72	0.72	267	2	1	42	per	con	low	mod	low	nt	cr	nh/0765_nh.bmp
199.44	0.72	268	3	2	67	mem	lib	mod	mod	mod	tg	ms	wh/0983.bmp
200.16	0.72	269	4	2	65	mem	lib	mod	mod	mod	tg	ht	wh/0104.bmp
200.88	0.72	270	2	1	60	per	lib	mod	mod	mod	tg	ht	wh/0562.bmp
201.60	0.72	271	3	1	122	per	lib	low	mod	low	tg	ms	wh/0302.bmp
202.32	0.72	272	1	1	101	per	con	mod	low	mod	tg	ht	wh/0630.bmp
203.04	0.72	273	3	4	120	mem	lib	mod	mod	low	nt	ht	nh/0174_nh.bmp
203.76	0.72	274	3	1	43	per	con	low	mod	low	tg	ht	wh/0263.bmp
204.48	0.72	275	1	3	42	per	lib	low	mod	low	nt	cr	nh/0195_nh.bmp
205.20	0.72	276	1	4	87	mem	lib	low	low	low	nt	ht	nh/0310_nh.bmp
205.92	0.72	277	2	2	107	mem	con	mod	mod	mod	tg	ht	wh/0742.bmp
206.64	0.72	278	3	3	8	per	con	mod	mod	mod	tg	ht	wh/0448.bmp
207.36	0.72	279	2	3	81	per	lib	mod	mod	mod	tg	ht	wh/0604.bmp
208.08	0.72	280	2	3	78	mem	lib	mod	mod	mod	nt	ht	nh/0344_nh.bmp
208.80	0.72	281	1	1	126	per	lib	low	mod	low	tg	ms	wh/0496.bmp
209.52	0.72	282	1	1	64	per	lib	mod	mod	mod	nt	cr	nh/0359_nh.bmp
210.24	0.72	283	4	1	128	per	lib	low	mod	low	tg	ht	wh/0212.bmp
210.96	0.72	284	4	3	8	per	con	mod	mod	mod	tg	ht	wh/0448.bmp
211.68	0.72	285	3	3	110	mem	con	mod	mod	mod	nt	ht	nh/0282_nh.bmp
212.40	0.72	286	3	4	78	mem	con	mod	mod	low	nt	ht	nh/0424_nh.bmp
213.12	0.72	287	2	1	87	mem	lib	mod	mod	low	nt	ht	nh/0203_nh.bmp
213.84	0.72	288	1	2	66	mem	lib	mod	mod	mod	tg	ht	wh/0413.bmp
214.56	0.72	289	2	4	114	mem	lib	mod	mod	low	tg	ht	wh/0683.bmp
215.28	0.72	290	2	1	88	mem	lib	mod	mod	low	tg	ht	wh/0124.bmp
216.00	0.72	291	1	2	33	mem	lib	low	low	mod	tg	ht	wh/0470.bmp
216.72	0.72	292	1	1	82	mem	lib	mod	mod	low	tg	ht	wh/0511.bmp
217.44	0.72	293	4	2	7	per	con	mod	mod	mod	tg	ht	wh/0796.bmp
218.16	0.72	294	2	3	33	per	lib	low	mod	low	tg	ht	wh/0454.bmp
218.88	0.72	295	2	3	77	mem	lib	mod	mod	mod	tg	ht	wh/0809.bmp
219.60	0.72	296	3	1	91	mem	lib	mod	mod	low	tg	ht	wh/0988.bmp
220.32	0.72	297	4	3	75	mem	lib	mod	mod	mod	nt	ms	nh/0834_nh.bmp
221.04	0.72	298	3	3	35	per	lib	low	mod	low	tg	ht	wh/0641.bmp
221.76	0.72	299	1	4	34	per	con	mod	low	mod	tg	ms	wh/0985.bmp
222.48	0.72	300	3	3	81	per	lib	mod	mod	mod	tg	ht	wh/0604.bmp
223.20	0.72	301	2	1	39	per	con	low	mod	low	nt	cr	nh/0554_nh.bmp
223.92	0.72	302	3	1	94	mem	lib	mod	mod	low	nt	ht	nh/0368_nh.bmp
224.64	0.72	303	2	4	119	mem	lib	mod	mod	low	tg	ht	wh/0512.bmp
225.36	0.72	304	3	4	115	mem	lib	mod	mod	low	nt	ht	nh/0067_nh.bmp
226.08	0.72	305	2	1	40	per	con	low	mod	low	nt	cr	nh/0438_nh.bmp
226.80	0.72	306	4	4	115	mem	lib	mod	mod	low	nt	ht	nh/0067_nh.bmp
227.52	0.72	307	2	4	126	mem	lib	mod	mod	low	nt	ht	nh/0757_nh.bmp
228.24	0.72	308	3	3	16	per	con	mod	mod	mod	tg	ht	wh/0664.bmp
228.96	0.72	309	1	2	87	mem	con	low	low	low	nt	ht	nh/0828_nh.bmp
229.68	0.72	310	3	3	40	per	lib	low	mod	low	nt	fa	nh/0283_nh.bmp
230.40	0.72	311	2	1	30	mem	con	mod	mod	low	nt	ms	nh/0791_nh.bmp
231.12	0.72	312	3	2	79	mem	lib	mod	mod	mod	nt	ht	nh/0674_nh.bmp
231.84	0.72	313	3	1	96	mem	lib	mod	mod	low	tg	ms	wh/0661.bmp
232.56	0.72	314	5	2	7	per	con	mod	mod	mod	tg	ht	wh/0796.bmp
233.28	0.72	315	3	3	78	mem	lib	mod	mod	mod	nt	ht	nh/0344_nh.bmp
234.00	0.72	316	4	1	43	per	con	low	mod	low	tg	ht	wh/0263.bmp
234.72	0.72	317	3	4	74	mem	con	mod	mod	low	tg	ht	wh/0131.bmp
235.44	0.72	318	2	3	102	mem	con	mod	mod	mod	tg	ms	wh/0538.bmp
236.16	0.72	319	4	3	62	per	con	low	mod	low	nt	cr	nh/0509_nh.bmp
236.88	0.72	320	3	1	28	mem	con	mod	mod	low	tg	ht	wh/0444.bmp
237.60	0.72	321	3	2	97	mem	con	mod	mod	mod	nt	ht	nh/1006_nh.bmp
238.32	0.72	322	2	3	10	per	con	mod	mod	mod	tg	ht	wh/0229.bmp
239.04	0.72	323	3	3	43	per	lib	low	mod	low	tg	ms	wh/0703.bmp
239.76	0.72	324	2	3	91	per	lib	mod	mod	mod	tg	ms	wh/0049.bmp
240.48	0.72	325	3	1	23	mem	con	mod	mod	low	tg	ms	wh/0312.bmp
241.20	0.72	326	2	2	106	mem	con	mod	mod	mod	nt	ht	nh/0576_nh.bmp
241.92	0.72	327	1	3	127	mem	con	low	low	mod	nt	ms	nh/0085_nh.bmp
242.64	0.72	328	1	4	59	per	lib	low	low	low	tg	ht	wh/0127.bmp
243.36	0.72	329	1	1	78	mem	lib	low	low	low	tg	ht	wh/0110.bmp
244.08	0.72	330	4	3	73	mem	lib	mod	mod	mod	tg	ht	wh/0039.bmp
244.80	0.72	331	1	3	5	per	con	mod	mod	mod	nt	cr	nh/0689_nh.bmp
245.52	0.72	332	1	4	22	per	lib	mod	low	mod	tg	n/a	wh/0993.bmp
246.24	0.72	333	1	2	9	per	con	mod	mod	mod	nt	cr	nh/0645_nh.bmp
246.96	0.72	334	1	1	102	per	con	mod	low	mod	tg	ms	wh/0003.bmp
247.68	0.72	335	2	1	82	mem	lib	mod	mod	low	tg	ht	wh/0511.bmp
248.40	0.72	336	4	3	55	per	con	low	mod	low	tg	ms	wh/0030.bmp
249.12	0.72	337	5	3	92	per	lib	mod	mod	mod	nt	cr	nh/0061_nh.bmp
249.84	0.72	338	2	3	42	per	lib	low	mod	low	nt	cr	nh/0195_nh.bmp
250.56	0.72	339	2	3	72	mem	lib	mod	mod	mod	tg	ht	wh/0861.bmp
251.28	0.72	340	3	3	48	per	lib	low	mod	low	nt	cr	nh/1000_nh.bmp
252.00	0.72	341	2	1	118	per	lib	low	mod	low	nt	cr	nh/0259_nh.bmp
252.72	0.72	342	5	3	82	per	lib	mod	mod	mod	nt	cr	nh/0072_nh.bmp
253.44	0.72	343	2	2	10	per	con	mod	mod	mod	tg	ht	wh/0961.bmp
254.16	0.72	344	3	2	107	mem	con	mod	mod	mod	tg	ht	wh/0742.bmp
254.88	0.72	345	2	2	73	mem	lib	mod	mod	mod	nt	ht	nh/0348_nh.bmp
255.60	0.72	346	4	3	79	mem	lib	mod	mod	mod	nt	ms	nh/0759_nh.bmp
256.32	0.72	347	3	1	27	mem	con	mod	mod	low	tg	ht	wh/0415.bmp
257.04	0.72	348	1	1	54	per	lib	mod	mod	mod	nt	cr	nh/0097_nh.bmp
257.76	0.72	349	2	2	9	per	con	mod	mod	mod	nt	cr	nh/0645_nh.bmp
258.48	0.72	350	4	1	33	per	con	low	mod	low	tg	ht	wh/0293.bmp
259.20	0.72	351	1	3	99	mem	con	mod	mod	mod	nt	ms	nh/0490_nh.bmp
259.92	0.72	352	3	3	42	per	lib	low	mod	low	nt	cr	nh/0195_nh.bmp
260.64	0.72	353	3	4	119	mem	lib	mod	mod	low	tg	ht	wh/0512.bmp
261.36	0.72	354	2	2	77	mem	lib	mod	mod	mod	nt	ms	nh/0583_nh.bmp
262.08	0.72	355	1	3	118	mem	con	low	low	mod	tg	ht	wh/0620.bmp
262.80	0.72	356	2	4	121	mem	lib	mod	mod	low	tg	ht	wh/0976.bmp
263.52	0.72	357	5	1	56	per	lib	mod	mod	mod	tg	ht	wh/0799.bmp
264.24	0.72	358	1	2	124	per	lib	low	low	low	nt	fa	nh/0911_nh.bmp
264.96	0.72	359	4	2	67	mem	lib	mod	mod	mod	tg	ms	wh/0983.bmp
265.68	0.72	360	3	3	33	per	lib	low	mod	low	tg	ht	wh/0454.bmp
266.40	0.72	361	5	3	73	mem	lib	mod	mod	mod	tg	ht	wh/0039.bmp
267.12	0.72	362	3	4	124	mem	lib	mod	mod	low	tg	ht	wh/0792.bmp
267.84	0.72	363	1	1	4	mem	con	low	low	mod	tg	ms	wh/0944.bmp
268.56	0.72	364	2	2	6	per	con	mod	mod	mod	nt	cr	nh/0665_nh.bmp
269.28	0.72	365	1	4	3	mem	con	low	low	low	nt	ms	nh/0713_nh.bmp
270.00	0.72	366	3	2	8	per	con	mod	mod	mod	nt	cr	nh/0279_nh.bmp
270.72	0.72	367	4	3	110	mem	con	mod	mod	mod	nt	ht	nh/0282_nh.bmp
271.44	0.72	368	1	2	49	per	lib	mod	low	mod	tg	ht	wh/0102.bmp
272.16	0.72	369	2	4	68	mem	con	mod	mod	low	nt	ht	nh/0236_nh.bmp
272.88	0.72	370	1	2	22	per	con	low	low	low	tg	ht	wh/0357.bmp
273.60	0.72	371	3	1	88	mem	lib	mod	mod	low	tg	ht	wh/0124.bmp
274.32	0.72	372	3	4	121	mem	lib	mod	mod	low	tg	ht	wh/0976.bmp
275.04	0.72	373	3	3	72	mem	lib	mod	mod	mod	tg	ht	wh/0861.bmp
275.76	0.72	374	4	1	51	per	lib	mod	mod	mod	nt	fa	nh/0331_nh.bmp
276.48	0.72	375	2	1	26	mem	con	mod	mod	low	nt	ms	nh/0494_nh.bmp
277.20	0.72	376	3	2	106	mem	con	mod	mod	mod	nt	ht	nh/0576_nh.bmp
277.92	0.72	377	4	4	74	mem	con	mod	mod	low	tg	ht	wh/0131.bmp
278.64	0.72	378	2	3	90	per	lib	mod	mod	mod	nt	cr	nh/0943_nh.bmp
279.36	0.72	379	3	1	42	per	con	low	mod	low	nt	cr	nh/0765_nh.bmp
280.08	0.72	380	4	1	83	mem	lib	mod	mod	low	nt	ht	nh/0323_nh.bmp
280.80	0.72	381	4	1	94	mem	lib	mod	mod	low	nt	ht	nh/0368_nh.bmp
281.52	0.72	382	1	2	84	mem	con	low	low	low	nt	ht	nh/0107_nh.bmp
282.24	0.72	383	2	1	126	per	lib	low	mod	low	tg	ms	wh/0496.bmp
282.96	0.72	384	2	2	12	per	con	mod	mod	mod	nt	cr	nh/0925_nh.bmp
283.68	0.72	385	1	4	18	per	lib	mod	low	mod	tg	ms	wh/0606.bmp
284.40	0.72	386	1	3	26	mem	lib	low	low	mod	tg	ht	wh/0707.bmp
285.12	0.72	387	6	3	92	per	lib	mod	mod	mod	nt	cr	nh/0061_nh.bmp
285.84	0.72	388	1	4	7	mem	con	low	low	low	tg	ht	wh/0242.bmp
286.56	0.72	389	1	2	57	per	lib	mod	low	mod	nt	cr	nh/0811_nh.bmp
287.28	0.72	390	4	2	106	mem	con	mod	mod	mod	nt	ht	nh/0576_nh.bmp
288.00	0.72	391	3	3	10	per	con	mod	mod	mod	tg	ht	wh/0229.bmp
288.72	0.72	392	4	3	10	per	con	mod	mod	mod	tg	ht	wh/0229.bmp
289.44	0.72	393	3	4	126	mem	lib	mod	mod	low	nt	ht	nh/0757_nh.bmp
290.16	0.72	394	4	4	124	mem	lib	mod	mod	low	tg	ht	wh/0792.bmp
290.88	0.72	395	4	1	18	mem	con	mod	mod	low	nt	ht	nh/0007_nh.bmp
291.60	0.72	396	3	3	14	per	con	mod	mod	mod	nt	cr	nh/0592_nh.bmp
292.32	0.72	397	2	3	99	mem	con	mod	mod	mod	nt	ms	nh/0490_nh.bmp
293.04	0.72	398	3	3	91	per	lib	mod	mod	mod	tg	ms	wh/0049.bmp
293.76	0.72	399	2	1	114	per	lib	low	mod	low	nt	cr	nh/0422_nh.bmp
294.48	0.72	400	3	2	10	per	con	mod	mod	mod	tg	ht	wh/0961.bmp
295.20	0.72	401	3	3	99	mem	con	mod	mod	mod	nt	ms	nh/0490_nh.bmp
295.92	0.72	402	3	4	68	mem	con	mod	mod	low	nt	ht	nh/0236_nh.bmp
296.64	0.72	403	3	1	39	per	con	low	mod	low	nt	cr	nh/0554_nh.bmp
297.36	0.72	404	3	3	90	per	lib	mod	mod	mod	nt	cr	nh/0943_nh.bmp
298.08	0.72	405	5	3	55	per	con	low	mod	low	tg	ms	wh/0030.bmp
298.80	0.72	406	1	2	27	per	con	low	low	low	nt	cr	nh/0078_nh.bmp
299.52	0.72	407	4	1	23	mem	con	mod	mod	low	tg	ms	wh/0312.bmp
300.24	0.72	408	3	1	82	mem	lib	mod	mod	low	tg	ht	wh/0511.bmp
300.96	0.72	409	4	2	10	per	con	mod	mod	mod	tg	ht	wh/0961.bmp
301.68	0.72	410	3	3	111	mem	con	mod	mod	mod	nt	ht	nh/0753_nh.bmp
302.40	0.72	411	6	2	7	per	con	mod	mod	mod	tg	ht	wh/0796.bmp
303.12	0.72	412	5	2	105	mem	con	mod	mod	mod	nt	ht	nh/0487_nh.bmp
303.84	0.72	413	4	3	111	mem	con	mod	mod	mod	nt	ht	nh/0753_nh.bmp
304.56	0.72	414	3	3	60	per	con	low	mod	low	nt	cr	nh/0575_nh.bmp
305.28	0.72	415	3	1	114	per	lib	low	mod	low	nt	cr	nh/0422_nh.bmp
306.00	0.72	416	1	4	47	per	con	mod	low	mod	tg	ht	wh/0052.bmp
306.72	0.72	417	3	2	104	mem	con	mod	mod	mod	tg	ht	wh/0320.bmp
307.44	0.72	418	4	4	126	mem	lib	mod	mod	low	nt	ht	nh/0757_nh.bmp
308.16	0.72	419	4	1	114	per	lib	low	mod	low	nt	cr	nh/0422_nh.bmp
308.88	0.72	420	2	3	98	mem	con	mod	mod	mod	tg	ht	wh/0151.bmp
309.60	0.72	421	2	3	84	per	lib	mod	mod	mod	nt	cr	nh/0427_nh.bmp
310.32	0.72	422	3	3	46	per	lib	low	mod	low	nt	cr	nh/0400_nh.bmp
311.04	0.72	423	5	1	83	mem	lib	mod	mod	low	nt	ht	nh/0323_nh.bmp
311.76	0.72	424	2	1	32	mem	con	mod	mod	low	nt	ht	nh/1013_nh.bmp
312.48	0.72	425	3	3	84	per	lib	mod	mod	mod	nt	cr	nh/0427_nh.bmp
313.20	0.72	426	4	2	72	mem	lib	mod	mod	mod	tg	ht	wh/0761.bmp
313.92	0.72	427	3	2	73	mem	lib	mod	mod	mod	nt	ht	nh/0348_nh.bmp
314.64	0.72	428	3	3	94	per	lib	mod	mod	mod	tg	ht	wh/0931.bmp
315.36	0.72	429	4	2	107	mem	con	mod	mod	mod	tg	ht	wh/0742.bmp
316.08	0.72	430	2	1	41	per	con	low	mod	low	nt	cr	nh/0914_nh.bmp
316.80	0.72	431	4	3	60	per	con	low	mod	low	nt	cr	nh/0575_nh.bmp
317.52	0.72	432	4	1	22	mem	con	mod	mod	low	tg	ht	wh/0295.bmp
318.24	0.72	433	3	4	70	mem	con	mod	mod	low	nt	ht	nh/0615_nh.bmp
318.96	0.72	434	3	4	114	mem	lib	mod	mod	low	tg	ht	wh/0683.bmp
319.68	0.72	435	4	4	78	mem	con	mod	mod	low	nt	ht	nh/0424_nh.bmp
320.40	0.72	436	4	3	16	per	con	mod	mod	mod	tg	ht	wh/0664.bmp
321.12	0.72	437	3	4	66	mem	con	mod	mod	low	nt	ht	nh/0798_nh.bmp
321.84	0.72	438	4	3	42	per	lib	low	mod	low	nt	cr	nh/0195_nh.bmp
322.56	0.72	439	2	4	79	mem	con	mod	mod	low	tg	ht	wh/0523.bmp
323.28	0.72	440	3	4	79	mem	con	mod	mod	low	tg	ht	wh/0523.bmp
324.00	0.72	441	2	3	4	per	con	mod	mod	mod	nt	cr	nh/0806_nh.bmp
324.72	0.72	442	3	2	1	per	con	mod	mod	mod	tg	ms	wh/0137.bmp
325.44	0.72	443	1	4	94	mem	lib	low	low	low	nt	ht	nh/0021_nh.bmp
326.16	0.72	444	3	4	71	mem	con	mod	mod	low	tg	ht	wh/0390.bmp
326.88	0.72	445	2	3	49	per	con	low	mod	low	nt	cr	nh/0315_nh.bmp
327.60	0.72	446	4	3	94	per	lib	mod	mod	mod	tg	ht	wh/0931.bmp
328.32	0.72	447	3	3	4	per	con	mod	mod	mod	nt	cr	nh/0806_nh.bmp
329.04	0.72	448	2	1	121	per	lib	low	mod	low	tg	ht	wh/0882.bmp
329.76	0.72	449	3	3	77	mem	lib	mod	mod	mod	tg	ht	wh/0809.bmp
330.48	0.72	450	4	3	77	mem	lib	mod	mod	mod	tg	ht	wh/0809.bmp
331.20	0.72	451	3	1	32	mem	con	mod	mod	low	nt	ht	nh/1013_nh.bmp
331.92	0.72	452	4	3	91	per	lib	mod	mod	mod	tg	ms	wh/0049.bmp
332.64	0.72	453	3	1	87	mem	lib	mod	mod	low	nt	ht	nh/0203_nh.bmp
333.36	0.72	454	4	4	70	mem	con	mod	mod	low	nt	ht	nh/0615_nh.bmp
334.08	0.72	455	2	1	57	per	lib	mod	mod	mod	tg	ht	wh/0333.bmp
334.80	0.72	456	3	3	56	per	con	low	mod	low	tg	ms	wh/0166.bmp
335.52	0.72	457	1	2	119	per	lib	low	low	low	nt	cr	nh/0375_nh.bmp
336.24	0.72	458	3	3	105	mem	con	mod	mod	mod	nt	ms	nh/0445_nh.bmp
336.96	0.72	459	3	1	30	mem	con	mod	mod	low	nt	ms	nh/0791_nh.bmp
337.68	0.72	460	2	3	88	per	lib	mod	mod	mod	tg	ht	wh/0365.bmp
338.40	0.72	461	5	3	79	mem	lib	mod	mod	mod	nt	ms	nh/0759_nh.bmp
339.12	0.72	462	3	3	101	mem	con	mod	mod	mod	tg	ht	wh/0343.bmp
339.84	0.72	463	4	4	118	mem	lib	mod	mod	low	nt	ms	nh/0643_nh.bmp
340.56	0.72	464	3	2	6	per	con	mod	mod	mod	nt	cr	nh/0665_nh.bmp
341.28	0.72	465	2	3	70	mem	lib	mod	mod	mod	nt	ht	nh/0358_nh.bmp
342.00	0.72	466	2	2	66	mem	lib	mod	mod	mod	tg	ht	wh/0413.bmp
342.72	0.72	467	4	3	46	per	lib	low	mod	low	nt	cr	nh/0400_nh.bmp
343.44	0.72	468	3	1	126	per	lib	low	mod	low	tg	ms	wh/0496.bmp
344.16	0.72	469	3	2	12	per	con	mod	mod	mod	nt	cr	nh/0925_nh.bmp
344.88	0.72	470	3	3	3	per	con	mod	mod	mod	nt	cr	nh/0479_nh.bmp
345.60	0.72	471	1	4	17	per	lib	mod	low	mod	nt	cr	nh/1020_nh.bmp
346.32	0.72	472	4	3	3	per	con	mod	mod	mod	nt	cr	nh/0479_nh.bmp
347.04	0.72	473	4	3	33	per	lib	low	mod	low	tg	ht	wh/0454.bmp
347.76	0.72	474	3	3	49	per	con	low	mod	low	nt	cr	nh/0315_nh.bmp
348.48	0.72	475	3	1	37	per	con	low	mod	low	tg	ms	wh/0412.bmp
349.20	0.72	476	3	1	57	per	lib	mod	mod	mod	tg	ht	wh/0333.bmp
349.92	0.72	477	5	3	77	mem	lib	mod	mod	mod	tg	ht	wh/0809.bmp
350.64	0.72	478	4	1	58	per	lib	mod	mod	mod	tg	ht	wh/0628.bmp
351.36	0.72	479	4	4	71	mem	con	mod	mod	low	tg	ht	wh/0390.bmp
352.08	0.72	480	3	1	118	per	lib	low	mod	low	nt	cr	nh/0259_nh.bmp
352.80	0.72	481	1	4	31	per	lib	mod	low	mod	tg	ht	wh/0557.bmp
353.52	0.72	482	6	2	105	mem	con	mod	mod	mod	nt	ht	nh/0487_nh.bmp
354.24	0.72	483	1	2	88	mem	con	low	low	low	tg	ms	wh/0211.bmp
354.96	0.72	484	5	3	46	per	lib	low	mod	low	nt	cr	nh/0400_nh.bmp
355.68	0.72	485	4	1	118	per	lib	low	mod	low	nt	cr	nh/0259_nh.bmp
356.40	0.72	486	4	2	73	mem	lib	mod	mod	mod	nt	ht	nh/0348_nh.bmp
357.12	0.72	487	4	3	43	per	lib	low	mod	low	tg	ms	wh/0703.bmp
357.84	0.72	488	1	4	42	per	con	mod	low	mod	tg	ms	wh/0317.bmp
358.56	0.72	489	3	2	66	mem	lib	mod	mod	mod	tg	ht	wh/0413.bmp
359.28	0.72	490	4	1	32	mem	con	mod	mod	low	nt	ht	nh/1013_nh.bmp
360.00	0.72	491	4	2	8	per	con	mod	mod	mod	nt	cr	nh/0279_nh.bmp
360.72	0.72	492	4	3	81	per	lib	mod	mod	mod	tg	ht	wh/0604.bmp
361.44	0.72	493	1	2	86	mem	con	low	low	low	tg	ht	wh/0524.bmp
362.16	0.72	494	3	1	60	per	lib	mod	mod	mod	tg	ht	wh/0562.bmp
362.88	0.72	495	3	1	26	mem	con	mod	mod	low	nt	ms	nh/0494_nh.bmp
363.60	0.72	496	2	3	74	mem	lib	mod	mod	mod	tg	ms	wh/0477.bmp
364.32	0.72	497	5	3	94	per	lib	mod	mod	mod	tg	ht	wh/0931.bmp
365.04	0.72	498	4	3	101	mem	con	mod	mod	mod	tg	ht	wh/0343.bmp
365.76	0.72	499	4	1	57	per	lib	mod	mod	mod	tg	ht	wh/0333.bmp
366.48	0.72	500	4	4	114	mem	lib	mod	mod	low	tg	ht	wh/0683.bmp
367.20	0.72	501	1	1	105	per	con	mod	low	mod	tg	ht	wh/0062.bmp
367.92	0.72	502	6	3	34	per	lib	low	mod	low	tg	ht	wh/0132.bmp
368.64	0.72	503	4	1	30	mem	con	mod	mod	low	nt	ms	nh/0791_nh.bmp
369.36	0.72	504	2	3	5	per	con	mod	mod	mod	nt	cr	nh/0689_nh.bmp
370.08	0.72	505	2	2	101	mem	con	mod	mod	mod	tg	ht	wh/0901.bmp
370.80	0.72	506	5	4	78	mem	con	mod	mod	low	nt	ht	nh/0424_nh.bmp
371.52	0.72	507	5	2	65	mem	lib	mod	mod	mod	tg	ht	wh/0104.bmp
372.24	0.72	508	4	3	90	per	lib	mod	mod	mod	nt	cr	nh/0943_nh.bmp
372.96	0.72	509	2	1	54	per	lib	mod	mod	mod	nt	cr	nh/0097_nh.bmp
373.68	0.72	510	5	2	67	mem	lib	mod	mod	mod	tg	ms	wh/0983.bmp
374.40	0.72	511	4	2	12	per	con	mod	mod	mod	nt	cr	nh/0925_nh.bmp
375.12	0.72	512	6	3	79	mem	lib	mod	mod	mod	nt	ms	nh/0759_nh.bmp
375.84	0.72	513	5	4	115	mem	lib	mod	mod	low	nt	ht	nh/0067_nh.bmp
376.56	0.72	514	5	1	55	per	lib	mod	mod	mod	nt	cr	nh/0313_nh.bmp
377.28	0.72	515	1	4	83	mem	lib	low	low	low	nt	ht	nh/0271_nh.bmp
378.00	0.72	516	4	3	14	per	con	mod	mod	mod	nt	cr	nh/0592_nh.bmp
378.72	0.72	517	4	1	60	per	lib	mod	mod	mod	tg	ht	wh/0562.bmp
379.44	0.72	518	1	2	55	per	lib	mod	low	mod	nt	fa	nh/0517_nh.bmp
380.16	0.72	519	4	4	66	mem	con	mod	mod	low	nt	ht	nh/0798_nh.bmp
380.88	0.72	520	5	3	62	per	con	low	mod	low	nt	cr	nh/0509_nh.bmp
381.60	0.72	521	3	2	101	mem	con	mod	mod	mod	tg	ht	wh/0901.bmp
382.32	0.72	522	5	1	51	per	lib	mod	mod	mod	nt	fa	nh/0331_nh.bmp
383.04	0.72	523	1	1	6	mem	con	low	low	mod	nt	ms	nh/0440_nh.bmp
383.76	0.72	524	2	1	64	per	lib	mod	mod	mod	nt	cr	nh/0359_nh.bmp
384.48	0.72	525	4	1	126	per	lib	low	mod	low	tg	ms	wh/0496.bmp
385.20	0.72	526	4	2	79	mem	lib	mod	mod	mod	nt	ht	nh/0674_nh.bmp
385.92	0.72	527	3	3	70	mem	lib	mod	mod	mod	nt	ht	nh/0358_nh.bmp
386.64	0.72	528	5	1	30	mem	con	mod	mod	low	nt	ms	nh/0791_nh.bmp
387.36	0.72	529	1	2	34	mem	lib	low	low	mod	nt	ht	nh/0555_nh.bmp
388.08	0.72	530	4	3	61	per	con	low	mod	low	tg	ht	wh/0246.bmp
388.80	0.72	531	4	2	1	per	con	mod	mod	mod	tg	ms	wh/0137.bmp
389.52	0.72	532	5	3	101	mem	con	mod	mod	mod	tg	ht	wh/0343.bmp
390.24	0.72	533	5	4	126	mem	lib	mod	mod	low	nt	ht	nh/0757_nh.bmp
390.96	0.72	534	1	4	27	per	lib	mod	low	mod	tg	ms	wh/0346.bmp
391.68	0.72	535	4	1	124	per	lib	low	mod	low	nt	cr	nh/0672_nh.bmp
392.40	0.72	536	5	1	33	per	con	low	mod	low	tg	ht	wh/0293.bmp
393.12	0.72	537	4	3	84	per	lib	mod	mod	mod	nt	cr	nh/0427_nh.bmp
393.84	0.72	538	4	1	27	mem	con	mod	mod	low	tg	ht	wh/0415.bmp
394.56	0.72	539	3	3	102	mem	con	mod	mod	mod	tg	ms	wh/0538.bmp
395.28	0.72	540	4	4	121	mem	lib	mod	mod	low	tg	ht	wh/0976.bmp
396.00	0.72	541	5	1	57	per	lib	mod	mod	mod	tg	ht	wh/0333.bmp
396.72	0.72	542	1	4	6	mem	con	low	low	low	tg	ms	wh/0026.bmp
397.44	0.72	543	5	3	111	mem	con	mod	mod	mod	nt	ht	nh/0753_nh.bmp
398.16	0.72	544	4	3	78	mem	lib	mod	mod	mod	nt	ht	nh/0344_nh.bmp
398.88	0.72	545	6	3	55	per	con	low	mod	low	tg	ms	wh/0030.bmp
399.60	0.72	546	4	3	105	mem	con	mod	mod	mod	nt	ms	nh/0445_nh.bmp
400.32	0.72	547	1	1	70	mem	lib	low	low	low	tg	ht	wh/0335.bmp
401.04	0.72	548	4	1	88	mem	lib	mod	mod	low	tg	ht	wh/0124.bmp
401.76	0.72	549	1	4	102	per	con	low	low	low	tg	ht	wh/1003.bmp
402.48	0.72	550	3	3	74	mem	lib	mod	mod	mod	tg	ms	wh/0477.bmp
403.20	0.72	551	5	2	107	mem	con	mod	mod	mod	tg	ht	wh/0742.bmp
403.92	0.72	552	5	3	10	per	con	mod	mod	mod	tg	ht	wh/0229.bmp
404.64	0.72	553	5	4	124	mem	lib	mod	mod	low	tg	ht	wh/0792.bmp
405.36	0.72	554	5	2	106	mem	con	mod	mod	mod	nt	ht	nh/0576_nh.bmp
406.08	0.72	555	5	1	32	mem	con	mod	mod	low	nt	ht	nh/1013_nh.bmp
406.80	0.72	556	4	3	54	per	con	low	mod	low	nt	cr	nh/0081_nh.bmp
407.52	0.72	557	4	1	122	per	lib	low	mod	low	tg	ms	wh/0302.bmp
408.24	0.72	558	4	3	4	per	con	mod	mod	mod	nt	cr	nh/0806_nh.bmp
408.96	0.72	559	1	2	56	per	lib	mod	low	mod	tg	n/a	wh/0723.bmp
409.68	0.72	560	5	1	22	mem	con	mod	mod	low	tg	ht	wh/0295.bmp
410.40	0.72	561	5	3	43	per	lib	low	mod	low	tg	ms	wh/0703.bmp
411.12	0.72	562	6	3	43	per	lib	low	mod	low	tg	ms	wh/0703.bmp
411.84	0.72	563	5	2	73	mem	lib	mod	mod	mod	nt	ht	nh/0348_nh.bmp
412.56	0.72	564	2	3	6	per	con	mod	mod	mod	tg	ht	wh/0895.bmp
413.28	0.72	565	4	1	91	mem	lib	mod	mod	low	tg	ht	wh/0988.bmp
414.00	0.72	566	1	4	20	per	lib	mod	low	mod	nt	fa	nh/0670_nh.bmp
414.72	0.72	567	5	1	18	mem	con	mod	mod	low	nt	ht	nh/0007_nh.bmp
415.44	0.72	568	1	3	116	mem	con	low	low	mod	nt	ht	nh/0409_nh.bmp
416.16	0.72	569	5	3	60	per	con	low	mod	low	nt	cr	nh/0575_nh.bmp
416.88	0.72	570	4	3	74	mem	lib	mod	mod	mod	tg	ms	wh/0477.bmp
417.60	0.72	571	4	2	66	mem	lib	mod	mod	mod	tg	ht	wh/0413.bmp
418.32	0.72	572	3	3	6	per	con	mod	mod	mod	tg	ht	wh/0895.bmp
419.04	0.72	573	3	1	121	per	lib	low	mod	low	tg	ht	wh/0882.bmp
419.76	0.72	574	5	1	122	per	lib	low	mod	low	tg	ms	wh/0302.bmp
420.48	0.72	575	6	1	57	per	lib	mod	mod	mod	tg	ht	wh/0333.bmp
421.20	0.72	576	3	3	5	per	con	mod	mod	mod	nt	cr	nh/0689_nh.bmp
421.92	0.72	577	5	3	75	mem	lib	mod	mod	mod	nt	ms	nh/0834_nh.bmp
422.64	0.72	578	2	2	68	mem	lib	mod	mod	mod	nt	ht	nh/0970_nh.bmp
423.36	0.72	579	1	2	63	per	lib	mod	low	mod	nt	cr	nh/0773_nh.bmp
424.08	0.72	580	5	1	60	per	lib	mod	mod	mod	tg	ht	wh/0562.bmp
424.80	0.72	581	5	4	121	mem	lib	mod	mod	low	tg	ht	wh/0976.bmp
425.52	0.72	582	3	3	88	per	lib	mod	mod	mod	tg	ht	wh/0365.bmp
426.24	0.72	583	5	3	54	per	con	low	mod	low	nt	cr	nh/0081_nh.bmp
426.96	0.72	584	4	3	6	per	con	mod	mod	mod	tg	ht	wh/0895.bmp
427.68	0.72	585	4	3	40	per	lib	low	mod	low	nt	fa	nh/0283_nh.bmp
428.40	0.72	586	3	1	40	per	con	low	mod	low	nt	cr	nh/0438_nh.bmp
429.12	0.72	587	4	2	104	mem	con	mod	mod	mod	tg	ht	wh/0320.bmp
429.84	0.72	588	4	1	96	mem	lib	mod	mod	low	tg	ms	wh/0661.bmp
430.56	0.72	589	5	3	74	mem	lib	mod	mod	mod	tg	ms	wh/0477.bmp
431.28	0.72	590	1	4	23	per	lib	mod	low	mod	nt	cr	nh/0539_nh.bmp
432.00	0.72	591	3	2	68	mem	lib	mod	mod	mod	nt	ht	nh/0970_nh.bmp
432.72	0.72	592	4	3	99	mem	con	mod	mod	mod	nt	ms	nh/0490_nh.bmp
433.44	0.72	593	5	3	61	per	con	low	mod	low	tg	ht	wh/0246.bmp
434.16	0.72	594	1	2	81	mem	con	low	low	low	nt	ht	nh/0908_nh.bmp
434.88	0.72	595	3	1	117	per	lib	low	mod	low	nt	fa	nh/0671_nh.bmp
435.60	0.72	596	1	3	30	mem	lib	low	low	mod	nt	ht	nh/0304_nh.bmp
436.32	0.72	597	4	2	97	mem	con	mod	mod	mod	nt	ht	nh/1006_nh.bmp
437.04	0.72	598	4	4	79	mem	con	mod	mod	low	tg	ht	wh/0523.bmp
437.76	0.72	599	4	4	68	mem	con	mod	mod	low	nt	ht	nh/0236_nh.bmp
438.48	0.72	600	4	3	56	per	con	low	mod	low	tg	ms	wh/0166.bmp
439.20	0.72	601	6	4	121	mem	lib	mod	mod	low	tg	ht	wh/0976.bmp
439.92	0.72	602	4	1	40	per	con	low	mod	low	nt	cr	nh/0438_nh.bmp
440.64	0.72	603	3	2	9	per	con	mod	mod	mod	nt	cr	nh/0645_nh.bmp
441.36	0.72	604	6	3	73	mem	lib	mod	mod	mod	tg	ht	wh/0039.bmp
442.08	0.72	605	3	1	89	mem	lib	mod	mod	low	nt	ht	nh/0386_nh.bmp
442.80	0.72	606	6	3	10	per	con	mod	mod	mod	tg	ht	wh/0229.bmp
443.52	0.72	607	1	4	16	mem	con	low	low	low	nt	ms	nh/0653_nh.bmp
444.24	0.72	608	5	1	88	mem	lib	mod	mod	low	tg	ht	wh/0124.bmp
444.96	0.72	609	5	4	79	mem	con	mod	mod	low	tg	ht	wh/0523.bmp
445.68	0.72	610	3	1	64	per	lib	mod	mod	mod	nt	cr	nh/0359_nh.bmp
446.40	0.72	611	1	1	106	per	con	mod	low	mod	nt	cr	nh/0754_nh.bmp
447.12	0.72	612	4	3	5	per	con	mod	mod	mod	nt	cr	nh/0689_nh.bmp
447.84	0.72	613	5	1	91	mem	lib	mod	mod	low	tg	ht	wh/0988.bmp
448.56	0.72	614	4	1	82	mem	lib	mod	mod	low	tg	ht	wh/0511.bmp
449.28	0.72	615	3	3	98	mem	con	mod	mod	mod	tg	ht	wh/0151.bmp
450.00	0.72	616	4	1	35	per	con	low	mod	low	tg	ms	wh/0459.bmp
450.72	0.72	617	4	3	102	mem	con	mod	mod	mod	tg	ms	wh/0538.bmp
451.44	0.72	618	4	3	98	mem	con	mod	mod	mod	tg	ht	wh/0151.bmp
452.16	0.72	619	4	1	121	per	lib	low	mod	low	tg	ht	wh/0882.bmp
452.88	0.72	620	5	4	74	mem	con	mod	mod	low	tg	ht	wh/0131.bmp
453.60	0.72	621	4	3	49	per	con	low	mod	low	nt	cr	nh/0315_nh.bmp
454.32	0.72	622	5	1	114	per	lib	low	mod	low	nt	cr	nh/0422_nh.bmp
455.04	0.72	623	4	2	68	mem	lib	mod	mod	mod	nt	ht	nh/0970_nh.bmp
455.76	0.72	624	1	3	21	mem	lib	low	low	mod	tg	ms	wh/0192.bmp
456.48	0.72	625	1	1	111	per	con	mod	low	mod	nt	cr	nh/0616_nh.bmp
457.20	0.72	626	1	2	30	per	con	low	low	low	tg	n/a	wh/0989.bmp
457.92	0.72	627	1	2	64	per	lib	mod	low	mod	tg	ht	wh/0854.bmp
458.64	0.72	628	4	1	37	per	con	low	mod	low	tg	ms	wh/0412.bmp
459.36	0.72	629	4	1	117	per	lib	low	mod	low	nt	fa	nh/0671_nh.bmp
460.08	0.72	630	5	2	68	mem	lib	mod	mod	mod	nt	ht	nh/0970_nh.bmp
460.80	0.72	631	5	1	124	per	lib	low	mod	low	nt	cr	nh/0672_nh.bmp
461.52	0.72	632	5	4	114	mem	lib	mod	mod	low	tg	ht	wh/0683.bmp
462.24	0.72	633	4	2	9	per	con	mod	mod	mod	nt	cr	nh/0645_nh.bmp
462.96	0.72	634	5	1	94	mem	lib	mod	mod	low	nt	ht	nh/0368_nh.bmp
463.68	0.72	635	4	2	101	mem	con	mod	mod	mod	tg	ht	wh/0901.bmp
464.40	0.72	636	4	1	42	per	con	low	mod	low	nt	cr	nh/0765_nh.bmp
465.12	0.72	637	1	4	5	mem	con	low	low	low	tg	ms	wh/0117.bmp
465.84	0.72	638	3	2	77	mem	lib	mod	mod	mod	nt	ms	nh/0583_nh.bmp
466.56	0.72	639	4	1	26	mem	con	mod	mod	low	nt	ms	nh/0494_nh.bmp
467.28	0.72	640	4	2	77	mem	lib	mod	mod	mod	nt	ms	nh/0583_nh.bmp
468.00	0.72	641	4	3	35	per	lib	low	mod	low	tg	ht	wh/0641.bmp
468.72	0.72	642	5	3	109	mem	con	mod	mod	mod	tg	ht	wh/0705.bmp
469.44	0.72	643	5	1	82	mem	lib	mod	mod	low	tg	ht	wh/0511.bmp
470.16	0.72	644	1	4	62	per	lib	low	low	low	nt	cr	nh/0720_nh.bmp
470.88	0.72	645	5	2	101	mem	con	mod	mod	mod	tg	ht	wh/0901.bmp
471.60	0.72	646	4	3	70	mem	lib	mod	mod	mod	nt	ht	nh/0358_nh.bmp
472.32	0.72	647	6	2	67	mem	lib	mod	mod	mod	tg	ms	wh/0983.bmp
473.04	0.72	648	5	2	1	per	con	mod	mod	mod	tg	ms	wh/0137.bmp
473.76	0.72	649	5	3	6	per	con	mod	mod	mod	tg	ht	wh/0895.bmp
474.48	0.72	650	5	4	66	mem	con	mod	mod	low	nt	ht	nh/0798_nh.bmp
475.20	0.72	651	5	3	105	mem	con	mod	mod	mod	nt	ms	nh/0445_nh.bmp
475.92	0.72	652	5	3	56	per	con	low	mod	low	tg	ms	wh/0166.bmp
476.64	0.72	653	1	2	42	mem	lib	low	low	mod	nt	ms	nh/0502_nh.bmp
477.36	0.72	654	5	1	37	per	con	low	mod	low	tg	ms	wh/0412.bmp
478.08	0.72	655	6	3	74	mem	lib	mod	mod	mod	tg	ms	wh/0477.bmp
478.80	0.72	656	5	3	14	per	con	mod	mod	mod	nt	cr	nh/0592_nh.bmp
479.52	0.72	657	5	2	9	per	con	mod	mod	mod	nt	cr	nh/0645_nh.bmp
480.24	0.72	658	4	3	88	per	lib	mod	mod	mod	tg	ht	wh/0365.bmp
480.96	0.72	659	5	2	8	per	con	mod	mod	mod	nt	cr	nh/0279_nh.bmp
481.68	0.72	660	1	4	106	per	con	low	low	low	tg	ms	wh/0824.bmp
482.40	0.72	661	5	3	33	per	lib	low	mod	low	tg	ht	wh/0454.bmp
483.12	0.72	662	6	3	105	mem	con	mod	mod	mod	nt	ms	nh/0445_nh.bmp
483.84	0.72	663	5	1	118	per	lib	low	mod	low	nt	cr	nh/0259_nh.bmp
484.56	0.72	664	5	4	68	mem	con	mod	mod	low	nt	ht	nh/0236_nh.bmp
485.28	0.72	665	6	1	32	mem	con	mod	mod	low	nt	ht	nh/1013_nh.bmp
486.00	0.72	666	6	3	6	per	con	mod	mod	mod	tg	ht	wh/0895.bmp
486.72	0.72	667	5	3	98	mem	con	mod	mod	mod	tg	ht	wh/0151.bmp
487.44	0.72	668	1	4	99	per	con	low	low	low	nt	cr	nh/0743_nh.bmp
488.16	0.72	669	6	1	83	mem	lib	mod	mod	low	nt	ht	nh/0323_nh.bmp
488.88	0.72	670	5	2	103	mem	con	mod	mod	mod	tg	ht	wh/0071.bmp
489.60	0.72	671	5	3	8	per	con	mod	mod	mod	tg	ht	wh/0448.bmp
490.32	0.72	672	4	1	89	mem	lib	mod	mod	low	nt	ht	nh/0386_nh.bmp
491.04	0.72	673	4	3	72	mem	lib	mod	mod	mod	tg	ht	wh/0861.bmp
491.76	0.72	674	5	2	79	mem	lib	mod	mod	mod	nt	ht	nh/0674_nh.bmp
492.48	0.72	675	1	4	97	per	con	low	low	low	nt	cr	nh/0243_nh.bmp
493.20	0.72	676	6	3	56	per	con	low	mod	low	tg	ms	wh/0166.bmp
493.92	0.72	677	5	3	90	per	lib	mod	mod	mod	nt	cr	nh/0943_nh.bmp
494.64	0.72	678	3	1	41	per	con	low	mod	low	nt	cr	nh/0914_nh.bmp
495.36	0.72	679	6	2	107	mem	con	mod	mod	mod	tg	ht	wh/0742.bmp
496.08	0.72	680	4	1	64	per	lib	mod	mod	mod	nt	cr	nh/0359_nh.bmp
496.80	0.72	681	1	4	82	mem	lib	low	low	low	tg	ms	wh/0565.bmp
497.52	0.72	682	4	1	39	per	con	low	mod	low	nt	cr	nh/0554_nh.bmp
498.24	0.72	683	6	1	33	per	con	low	mod	low	tg	ht	wh/0293.bmp
498.96	0.72	684	5	2	66	mem	lib	mod	mod	mod	tg	ht	wh/0413.bmp
499.68	0.72	685	1	1	11	mem	con	low	low	mod	tg	ms	wh/0950.bmp
500.40	0.72	686	1	3	25	mem	lib	low	low	mod	tg	ms	wh/0230.bmp
501.12	0.72	687	3	2	109	mem	con	mod	mod	mod	nt	ms	nh/1010_nh.bmp
501.84	0.72	688	5	1	27	mem	con	mod	mod	low	tg	ht	wh/0415.bmp
502.56	0.72	689	5	3	110	mem	con	mod	mod	mod	nt	ht	nh/0282_nh.bmp
503.28	0.72	690	5	1	128	per	lib	low	mod	low	tg	ht	wh/0212.bmp
504.00	0.72	691	5	4	118	mem	lib	mod	mod	low	nt	ms	nh/0643_nh.bmp
504.72	0.72	692	6	2	68	mem	lib	mod	mod	mod	nt	ht	nh/0970_nh.bmp
505.44	0.72	693	4	3	58	per	con	low	mod	low	tg	ms	wh/0410.bmp
506.16	0.72	694	6	1	18	mem	con	mod	mod	low	nt	ht	nh/0007_nh.bmp
506.88	0.72	695	5	3	99	mem	con	mod	mod	mod	nt	ms	nh/0490_nh.bmp
507.60	0.72	696	5	3	72	mem	lib	mod	mod	mod	tg	ht	wh/0861.bmp
508.32	0.72	697	5	3	42	per	lib	low	mod	low	nt	cr	nh/0195_nh.bmp
509.04	0.72	698	1	4	37	per	con	mod	low	mod	nt	cr	nh/0595_nh.bmp
509.76	0.72	699	5	2	12	per	con	mod	mod	mod	nt	cr	nh/0925_nh.bmp
510.48	0.72	700	5	3	35	per	lib	low	mod	low	tg	ht	wh/0641.bmp
511.20	0.72	701	1	1	71	mem	lib	low	low	low	nt	ht	nh/0167_nh.bmp
511.92	0.72	702	5	1	39	per	con	low	mod	low	nt	cr	nh/0554_nh.bmp
512.64	0.72	703	5	1	43	per	con	low	mod	low	tg	ht	wh/0263.bmp
513.36	0.72	704	5	3	70	mem	lib	mod	mod	mod	nt	ht	nh/0358_nh.bmp
514.08	0.72	705	5	3	3	per	con	mod	mod	mod	nt	cr	nh/0479_nh.bmp
514.80	0.72	706	1	4	112	per	con	low	low	low	nt	cr	nh/0819_nh.bmp
515.52	0.72	707	5	1	26	mem	con	mod	mod	low	nt	ms	nh/0494_nh.bmp
516.24	0.72	708	5	1	89	mem	lib	mod	mod	low	nt	ht	nh/0386_nh.bmp
516.96	0.72	709	6	1	37	per	con	low	mod	low	tg	ms	wh/0412.bmp
517.68	0.72	710	5	4	70	mem	con	mod	mod	low	nt	ht	nh/0615_nh.bmp
518.40	0.72	711	6	3	110	mem	con	mod	mod	mod	nt	ht	nh/0282_nh.bmp
519.12	0.72	712	5	1	117	per	lib	low	mod	low	nt	fa	nh/0671_nh.bmp
519.84	0.72	713	6	1	114	per	lib	low	mod	low	nt	cr	nh/0422_nh.bmp
520.56	0.72	714	1	4	36	per	con	mod	low	mod	nt	fa	nh/0644_nh.bmp
521.28	0.72	715	1	2	120	per	lib	low	low	low	nt	fa	nh/0309_nh.bmp
522.00	0.72	716	6	3	42	per	lib	low	mod	low	nt	cr	nh/0195_nh.bmp
522.72	0.72	717	5	3	102	mem	con	mod	mod	mod	tg	ms	wh/0538.bmp
523.44	0.72	718	6	4	68	mem	con	mod	mod	low	nt	ht	nh/0236_nh.bmp
524.16	0.72	719	5	3	91	per	lib	mod	mod	mod	tg	ms	wh/0049.bmp
524.88	0.72	720	1	1	80	mem	lib	low	low	low	nt	ht	nh/0369_nh.bmp
525.60	0.72	721	1	1	75	mem	lib	low	low	low	tg	ms	wh/0327.bmp
526.32	0.72	722	5	3	5	per	con	mod	mod	mod	nt	cr	nh/0689_nh.bmp
527.04	0.72	723	6	1	88	mem	lib	mod	mod	low	tg	ht	wh/0124.bmp
527.76	0.72	724	6	3	102	mem	con	mod	mod	mod	tg	ms	wh/0538.bmp
528.48	0.72	725	1	3	126	mem	con	low	low	mod	tg	ms	wh/0726.bmp
529.20	0.72	726	1	1	16	mem	con	low	low	mod	nt	ms	nh/0719_nh.bmp
529.92	0.72	727	5	2	10	per	con	mod	mod	mod	tg	ht	wh/0961.bmp
530.64	0.72	728	5	1	126	per	lib	low	mod	low	tg	ms	wh/0496.bmp
531.36	0.72	729	5	3	78	mem	lib	mod	mod	mod	nt	ht	nh/0344_nh.bmp
532.08	0.72	730	6	1	26	mem	con	mod	mod	low	nt	ms	nh/0494_nh.bmp
532.80	0.72	731	5	3	16	per	con	mod	mod	mod	tg	ht	wh/0664.bmp
533.52	0.72	732	1	4	81	mem	lib	low	low	low	tg	ms	wh/0264.bmp
534.24	0.72	733	1	1	79	mem	lib	low	low	low	tg	ht	wh/0783.bmp
534.96	0.72	734	6	2	66	mem	lib	mod	mod	mod	tg	ht	wh/0413.bmp
535.68	0.72	735	5	2	77	mem	lib	mod	mod	mod	nt	ms	nh/0583_nh.bmp
536.40	0.72	736	3	4	75	mem	con	mod	mod	low	tg	ht	wh/0291.bmp
537.12	0.72	737	5	3	88	per	lib	mod	mod	mod	tg	ht	wh/0365.bmp
537.84	0.72	738	6	3	109	mem	con	mod	mod	mod	tg	ht	wh/0705.bmp
538.56	0.72	739	6	1	89	mem	lib	mod	mod	low	nt	ht	nh/0386_nh.bmp
539.28	0.72	740	6	2	9	per	con	mod	mod	mod	nt	cr	nh/0645_nh.bmp
540.00	0.72	741	6	1	128	per	lib	low	mod	low	tg	ht	wh/0212.bmp
540.72	0.72	742	1	2	116	per	lib	low	low	low	tg	ms	wh/0471.bmp
541.44	0.72	743	5	1	64	per	lib	mod	mod	mod	nt	cr	nh/0359_nh.bmp
542.16	0.72	744	5	2	3	per	con	mod	mod	mod	tg	ht	wh/0738.bmp
542.88	0.72	745	6	3	78	mem	lib	mod	mod	mod	nt	ht	nh/0344_nh.bmp
543.60	0.72	746	6	3	46	per	lib	low	mod	low	nt	cr	nh/0400_nh.bmp
544.32	0.72	747	6	3	5	per	con	mod	mod	mod	nt	cr	nh/0689_nh.bmp
545.04	0.72	748	4	2	6	per	con	mod	mod	mod	nt	cr	nh/0665_nh.bmp
545.76	0.72	749	6	3	88	per	lib	mod	mod	mod	tg	ht	wh/0365.bmp
546.48	0.72	750	1	2	61	per	lib	mod	low	mod	nt	cr	nh/0917_nh.bmp
547.20	0.72	751	6	4	118	mem	lib	mod	mod	low	nt	ms	nh/0643_nh.bmp
547.92	0.72	752	6	3	61	per	con	low	mod	low	tg	ht	wh/0246.bmp
548.64	0.72	753	6	1	51	per	lib	mod	mod	mod	nt	fa	nh/0331_nh.bmp
549.36	0.72	754	1	1	8	mem	con	low	low	mod	tg	ht	wh/0991.bmp
550.08	0.72	755	1	4	93	mem	lib	low	low	low	tg	ms	wh/0632.bmp
550.80	0.72	756	5	1	58	per	lib	mod	mod	mod	tg	ht	wh/0628.bmp
551.52	0.72	757	4	2	109	mem	con	mod	mod	mod	nt	ms	nh/1010_nh.bmp
552.24	0.72	758	5	2	6	per	con	mod	mod	mod	nt	cr	nh/0665_nh.bmp
552.96	0.72	759	4	1	41	per	con	low	mod	low	nt	cr	nh/0914_nh.bmp
553.68	0.72	760	1	1	72	mem	lib	low	low	low	nt	ht	nh/0161_nh.bmp
554.40	0.72	761	5	1	40	per	con	low	mod	low	nt	cr	nh/0438_nh.bmp
555.12	0.72	762	4	3	48	per	lib	low	mod	low	nt	cr	nh/1000_nh.bmp
555.84	0.72	763	1	2	125	per	lib	low	low	low	tg	ms	wh/0011.bmp
556.56	0.72	764	4	4	120	mem	lib	mod	mod	low	nt	ht	nh/0174_nh.bmp
557.28	0.72	765	4	1	28	mem	con	mod	mod	low	tg	ht	wh/0444.bmp
558.00	0.72	766	6	2	10	per	con	mod	mod	mod	tg	ht	wh/0961.bmp
558.72	0.72	767	6	1	60	per	lib	mod	mod	mod	tg	ht	wh/0562.bmp
559.44	0.72	768	6	1	39	per	con	low	mod	low	nt	cr	nh/0554_nh.bmp
560.16	0.72	769	4	1	87	mem	lib	mod	mod	low	nt	ht	nh/0203_nh.bmp
560.88	0.72	770	5	3	84	per	lib	mod	mod	mod	nt	cr	nh/0427_nh.bmp
561.60	0.72	771	6	1	58	per	lib	mod	mod	mod	tg	ht	wh/0628.bmp
562.32	0.72	772	6	3	72	mem	lib	mod	mod	mod	tg	ht	wh/0861.bmp
563.04	0.72	773	6	1	56	per	lib	mod	mod	mod	tg	ht	wh/0799.bmp
563.76	0.72	774	6	3	35	per	lib	low	mod	low	tg	ht	wh/0641.bmp
564.48	0.72	775	5	4	71	mem	con	mod	mod	low	tg	ht	wh/0390.bmp
565.20	0.72	776	1	4	12	mem	con	low	low	low	nt	ht	nh/0171_nh.bmp
565.92	0.72	777	5	3	81	per	lib	mod	mod	mod	tg	ht	wh/0604.bmp
566.64	0.72	778	6	4	70	mem	con	mod	mod	low	nt	ht	nh/0615_nh.bmp
567.36	0.72	779	5	3	48	per	lib	low	mod	low	nt	cr	nh/1000_nh.bmp
568.08	0.72	780	5	2	97	mem	con	mod	mod	mod	nt	ht	nh/1006_nh.bmp
568.80	0.72	781	6	2	103	mem	con	mod	mod	mod	tg	ht	wh/0071.bmp
569.52	0.72	782	4	4	119	mem	lib	mod	mod	low	tg	ht	wh/0512.bmp
570.24	0.72	783	1	4	61	per	lib	low	low	low	tg	n/a	wh/0808.bmp
570.96	0.72	784	1	4	43	per	con	mod	low	mod	nt	fa	nh/0826_nh.bmp
571.68	0.72	785	6	3	33	per	lib	low	mod	low	tg	ht	wh/0454.bmp
572.40	0.72	786	6	4	74	mem	con	mod	mod	low	tg	ht	wh/0131.bmp
573.12	0.72	787	6	3	101	mem	con	mod	mod	mod	tg	ht	wh/0343.bmp
573.84	0.72	788	6	2	65	mem	lib	mod	mod	mod	tg	ht	wh/0104.bmp
574.56	0.72	789	3	1	54	per	lib	mod	mod	mod	nt	cr	nh/0097_nh.bmp
575.28	0.72	790	6	3	98	mem	con	mod	mod	mod	tg	ht	wh/0151.bmp
576.00	0.72	791	5	3	4	per	con	mod	mod	mod	nt	cr	nh/0806_nh.bmp
576.72	0.72	792	5	1	41	per	con	low	mod	low	nt	cr	nh/0914_nh.bmp
577.44	0.72	793	1	4	4	mem	con	low	low	low	tg	ms	wh/0877.bmp
578.16	0.72	794	4	4	75	mem	con	mod	mod	low	tg	ht	wh/0291.bmp
578.88	0.72	795	5	1	96	mem	lib	mod	mod	low	tg	ms	wh/0661.bmp
579.60	0.72	796	1	4	111	per	con	low	low	low	nt	cr	nh/0276_nh.bmp
580.32	0.72	797	6	3	84	per	lib	mod	mod	mod	nt	cr	nh/0427_nh.bmp
581.04	0.72	798	6	1	43	per	con	low	mod	low	tg	ht	wh/0263.bmp
581.76	0.72	799	1	1	97	per	con	mod	low	mod	nt	cr	nh/0891_nh.bmp
582.48	0.72	800	5	2	104	mem	con	mod	mod	mod	tg	ht	wh/0320.bmp
583.20	0.72	801	5	2	109	mem	con	mod	mod	mod	nt	ms	nh/1010_nh.bmp
583.92	0.72	802	6	1	64	per	lib	mod	mod	mod	nt	cr	nh/0359_nh.bmp
584.64	0.72	803	6	2	6	per	con	mod	mod	mod	nt	cr	nh/0665_nh.bmp
585.36	0.72	804	6	2	97	mem	con	mod	mod	mod	nt	ht	nh/1006_nh.bmp
586.08	0.72	805	6	2	8	per	con	mod	mod	mod	nt	cr	nh/0279_nh.bmp
586.80	0.72	806	5	4	119	mem	lib	mod	mod	low	tg	ht	wh/0512.bmp
587.52	0.72	807	6	1	40	per	con	low	mod	low	nt	cr	nh/0438_nh.bmp
588.24	0.72	808	6	3	48	per	lib	low	mod	low	nt	cr	nh/1000_nh.bmp
588.96	0.72	809	5	3	58	per	con	low	mod	low	tg	ms	wh/0410.bmp
589.68	0.72	810	6	4	124	mem	lib	mod	mod	low	tg	ht	wh/0792.bmp
590.40	0.72	811	5	1	35	per	con	low	mod	low	tg	ms	wh/0459.bmp
591.12	0.72	812	6	3	90	per	lib	mod	mod	mod	nt	cr	nh/0943_nh.bmp
591.84	0.72	813	5	3	40	per	lib	low	mod	low	nt	fa	nh/0283_nh.bmp
592.56	0.72	814	6	3	77	mem	lib	mod	mod	mod	tg	ht	wh/0809.bmp
593.28	0.72	815	5	1	28	mem	con	mod	mod	low	tg	ht	wh/0444.bmp
594.00	0.72	816	6	2	12	per	con	mod	mod	mod	nt	cr	nh/0925_nh.bmp
594.72	0.72	817	6	3	16	per	con	mod	mod	mod	tg	ht	wh/0664.bmp
595.44	0.72	818	5	1	42	per	con	low	mod	low	nt	cr	nh/0765_nh.bmp
596.16	0.72	819	6	3	4	per	con	mod	mod	mod	nt	cr	nh/0806_nh.bmp
596.88	0.72	820	6	1	91	mem	lib	mod	mod	low	tg	ht	wh/0988.bmp
597.60	0.72	821	6	4	78	mem	con	mod	mod	low	nt	ht	nh/0424_nh.bmp
598.32	0.72	822	6	1	82	mem	lib	mod	mod	low	tg	ht	wh/0511.bmp
599.04	0.72	823	1	3	123	mem	con	low	low	mod	nt	ht	nh/0201_nh.bmp
599.76	0.72	824	1	4	101	per	con	low	low	low	tg	ms	wh/0356.bmp
600.48	0.72	825	1	1	5	mem	con	low	low	mod	nt	ht	nh/0886_nh.bmp
601.20	0.72	826	5	3	49	per	con	low	mod	low	nt	cr	nh/0315_nh.bmp
601.92	0.72	827	6	1	122	per	lib	low	mod	low	tg	ms	wh/0302.bmp
602.64	0.72	828	6	1	27	mem	con	mod	mod	low	tg	ht	wh/0415.bmp
603.36	0.72	829	6	1	94	mem	lib	mod	mod	low	nt	ht	nh/0368_nh.bmp
604.08	0.72	830	6	2	104	mem	con	mod	mod	mod	tg	ht	wh/0320.bmp
604.80	0.72	831	5	1	121	per	lib	low	mod	low	tg	ht	wh/0882.bmp
605.52	0.72	832	1	4	105	per	con	low	low	low	tg	ht	wh/0314.bmp
606.24	0.72	833	1	2	113	per	lib	low	low	low	tg	ms	wh/0184.bmp
606.96	0.72	834	6	3	81	per	lib	mod	mod	mod	tg	ht	wh/0604.bmp
607.68	0.72	835	6	1	41	per	con	low	mod	low	nt	cr	nh/0914_nh.bmp
608.40	0.72	836	6	2	1	per	con	mod	mod	mod	tg	ms	wh/0137.bmp
609.12	0.72	837	6	1	96	mem	lib	mod	mod	low	tg	ms	wh/0661.bmp
609.84	0.72	838	5	4	75	mem	con	mod	mod	low	tg	ht	wh/0291.bmp
610.56	0.72	839	1	4	1	mem	con	low	low	low	nt	ht	nh/0500_nh.bmp
611.28	0.72	840	6	3	60	per	con	low	mod	low	nt	cr	nh/0575_nh.bmp
612.00	0.72	841	6	4	79	mem	con	mod	mod	low	tg	ht	wh/0523.bmp
612.72	0.72	842	6	3	111	mem	con	mod	mod	mod	nt	ht	nh/0753_nh.bmp
613.44	0.72	843	6	1	22	mem	con	mod	mod	low	tg	ht	wh/0295.bmp
614.16	0.72	844	6	4	126	mem	lib	mod	mod	low	nt	ht	nh/0757_nh.bmp
614.88	0.72	845	6	4	66	mem	con	mod	mod	low	nt	ht	nh/0798_nh.bmp
615.60	0.72	846	6	3	3	per	con	mod	mod	mod	nt	cr	nh/0479_nh.bmp
616.32	0.72	847	1	2	121	per	lib	low	low	low	tg	ht	wh/0987.bmp
617.04	0.72	848	4	1	54	per	lib	mod	mod	mod	nt	cr	nh/0097_nh.bmp
617.76	0.72	849	6	2	3	per	con	mod	mod	mod	tg	ht	wh/0738.bmp
618.48	0.72	850	6	3	40	per	lib	low	mod	low	nt	fa	nh/0283_nh.bmp
619.20	0.72	851	6	4	115	mem	lib	mod	mod	low	nt	ht	nh/0067_nh.bmp
619.92	0.72	852	6	1	55	per	lib	mod	mod	mod	nt	cr	nh/0313_nh.bmp
620.64	0.72	853	6	1	35	per	con	low	mod	low	tg	ms	wh/0459.bmp
621.36	0.72	854	5	1	54	per	lib	mod	mod	mod	nt	cr	nh/0097_nh.bmp
622.08	0.72	855	5	1	87	mem	lib	mod	mod	low	nt	ht	nh/0203_nh.bmp
622.80	0.72	856	6	1	126	per	lib	low	mod	low	tg	ms	wh/0496.bmp
623.52	0.72	857	5	2	72	mem	lib	mod	mod	mod	tg	ht	wh/0761.bmp
624.24	0.72	858	6	3	62	per	con	low	mod	low	nt	cr	nh/0509_nh.bmp
624.96	0.72	859	6	3	75	mem	lib	mod	mod	mod	nt	ms	nh/0834_nh.bmp
625.68	0.72	860	6	1	117	per	lib	low	mod	low	nt	fa	nh/0671_nh.bmp
626.40	0.72	861	6	3	49	per	con	low	mod	low	nt	cr	nh/0315_nh.bmp
627.12	0.72	862	6	2	72	mem	lib	mod	mod	mod	tg	ht	wh/0761.bmp
627.84	0.72	863	6	1	54	per	lib	mod	mod	mod	nt	cr	nh/0097_nh.bmp
628.56	0.72	864	6	1	42	per	con	low	mod	low	nt	cr	nh/0765_nh.bmp
629.28	0.72	865	6	1	124	per	lib	low	mod	low	nt	cr	nh/0672_nh.bmp
630.00	0.72	866	6	4	71	mem	con	mod	mod	low	tg	ht	wh/0390.bmp
630.72	0.72	867	6	3	14	per	con	mod	mod	mod	nt	cr	nh/0592_nh.bmp
631.44	0.72	868	6	3	82	per	lib	mod	mod	mod	nt	cr	nh/0072_nh.bmp
632.16	0.72	869	6	3	99	mem	con	mod	mod	mod	nt	ms	nh/0490_nh.bmp
632.88	0.72	870	5	4	120	mem	lib	mod	mod	low	nt	ht	nh/0174_nh.bmp
633.60	0.72	871	6	2	106	mem	con	mod	mod	mod	nt	ht	nh/0576_nh.bmp
634.32	0.72	872	5	1	23	mem	con	mod	mod	low	tg	ms	wh/0312.bmp
635.04	0.72	873	6	2	79	mem	lib	mod	mod	mod	nt	ht	nh/0674_nh.bmp
635.76	0.72	874	6	4	75	mem	con	mod	mod	low	tg	ht	wh/0291.bmp
636.48	0.72	875	6	2	77	mem	lib	mod	mod	mod	nt	ms	nh/0583_nh.bmp
637.20	0.72	876	1	2	39	mem	lib	low	low	mod	tg	ms	wh/0208.bmp
637.92	0.72	877	6	3	58	per	con	low	mod	low	tg	ms	wh/0410.bmp
638.64	0.72	878	6	1	87	mem	lib	mod	mod	low	nt	ht	nh/0203_nh.bmp
639.36	0.72	879	6	3	8	per	con	mod	mod	mod	tg	ht	wh/0448.bmp
640.08	0.72	880	1	4	56	per	lib	low	low	low	nt	cr	nh/0120_nh.bmp
640.80	0.72	881	6	4	114	mem	lib	mod	mod	low	tg	ht	wh/0683.bmp
641.52	0.72	882	6	4	120	mem	lib	mod	mod	low	nt	ht	nh/0174_nh.bmp
642.24	0.72	883	6	2	101	mem	con	mod	mod	mod	tg	ht	wh/0901.bmp
642.96	0.72	884	1	4	48	per	con	mod	low	mod	tg	ht	wh/0937.bmp
643.68	0.72	885	6	2	109	mem	con	mod	mod	mod	nt	ms	nh/1010_nh.bmp
644.40	0.72	886	6	1	23	mem	con	mod	mod	low	tg	ms	wh/0312.bmp
645.12	0.72	887	6	1	118	per	lib	low	mod	low	nt	cr	nh/0259_nh.bmp
645.84	0.72	888	6	3	94	per	lib	mod	mod	mod	tg	ht	wh/0931.bmp
646.56	0.72	889	6	1	28	mem	con	mod	mod	low	tg	ht	wh/0444.bmp
647.28	0.72	890	6	1	30	mem	con	mod	mod	low	nt	ms	nh/0791_nh.bmp
648.00	0.72	891	6	3	54	per	con	low	mod	low	nt	cr	nh/0081_nh.bmp
648.72	0.72	892	6	1	121	per	lib	low	mod	low	tg	ht	wh/0882.bmp
649.44	0.72	893	6	2	73	mem	lib	mod	mod	mod	nt	ht	nh/0348_nh.bmp
650.16	0.72	894	6	3	91	per	lib	mod	mod	mod	tg	ms	wh/0049.bmp
650.88	0.72	895	6	3	70	mem	lib	mod	mod	mod	nt	ht	nh/0358_nh.bmp
651.60	0.72	896	6	4	119	mem	lib	mod	mod	low	tg	ht	wh/0512.bmp
