onset	duration	block	trial	task	crit	disc	mem_disc	per_disc	trial_type	mem_type	per_type	left_option	resp_hand	response	accuracy	response_time	stim_file	pay	pay_tot
7.2	7.2	1	n/a	mem	con	mod	n/a	n/a	instructions	n/a	n/a	n/a	n/a	n/a	n/a	n/a	n/a	n/a	n/a
14.72	1.4169	1	1	mem	con	mod	mod	mod	tg	tg	tg	tg	left	tg	ht	1.0169	wh/0070.bmp	0.05	4.7
17.6	1.81	1	2	mem	con	mod	mod	mod	nt	nt	tg	nt	left	nt	cr	1.41	wh/0576.bmp	0.05	4.75
20.48	0.92983	1	3	mem	con	mod	mod	mod	tg	tg	tg	nt	right	tg	ht	0.52983	wh/0919.bmp	0.05	4.8
23.36	1.0704	1	4	mem	con	mod	mod	mod	nt	nt	tg	tg	left	tg	fa	0.6704	wh/0487.bmp	-0.1	4.7
26.24	0.83704	1	5	mem	con	mod	mod	mod	tg	tg	nt	tg	left	tg	ht	0.43704	nh/0580_nh.bmp	0.05	4.75
29.84	1.1859	1	6	mem	con	mod	mod	mod	tg	tg	nt	nt	right	tg	ht	0.7859	nh/0287_nh.bmp	0.05	4.8
33.44	1.1024	1	7	mem	con	mod	mod	mod	nt	nt	nt	nt	left	nt	cr	0.7024	nh/0742_nh.bmp	0.05	4.85
37.76	1.1349	1	8	mem	con	mod	mod	mod	nt	nt	nt	nt	left	nt	cr	0.7349	nh/0071_nh.bmp	0.05	4.9
40.64	1.30994	1	9	mem	con	mod	mod	mod	nt	nt	tg	tg	right	nt	cr	0.90994	wh/1006.bmp	0.05	4.95
43.52	1.15092	1	10	mem	con	mod	mod	mod	nt	nt	nt	tg	right	nt	cr	0.75092	nh/0901_nh.bmp	0.05	5
47.84	1.4889	1	11	mem	con	mod	mod	mod	tg	tg	nt	nt	right	tg	ht	1.0889	nh/0847_nh.bmp	0.05	5.05
52.16	1.31691	1	12	mem	con	mod	mod	mod	tg	tg	tg	nt	right	tg	ht	0.91691	wh/0857.bmp	0.05	5.1
55.04	0.99347	1	13	mem	con	mod	mod	mod	tg	tg	nt	nt	left	nt	ms	0.59347	nh/0878_nh.bmp	0	5.1
59.36	1.06472	1	14	mem	con	mod	mod	mod	nt	nt	tg	nt	left	nt	cr	0.66472	wh/1010.bmp	0.05	5.15
62.24	1.15388	1	15	mem	con	mod	mod	mod	nt	nt	nt	tg	left	tg	fa	0.75388	nh/0320_nh.bmp	-0.1	5.05
66.56	1.05342	1	16	mem	con	mod	mod	mod	tg	tg	tg	nt	right	tg	ht	0.65342	wh/0938.bmp	0.05	5.1
69.84	3.6	1	n/a	mem	con	mod	n/a	n/a	feedback	n/a	n/a	n/a	n/a	n/a	n/a	n/a	n/a	n/a	n/a
73.44	7.2	2	n/a	per	lib	low	n/a	n/a	instructions	n/a	n/a	n/a	n/a	n/a	n/a	n/a	n/a	n/a	n/a
80.96	1.8737	2	17	per	lib	low	low	low	nt	tg	nt	nt	left	nt	cr	1.4737	nh/0307_nh.bmp	0.05	5.15
84.56	1.5848	2	18	per	lib	low	low	low	tg	nt	tg	nt	right	tg	ht	1.1848	wh/0309.bmp	0.05	5.2
88.16	1.1868	2	19	per	lib	low	low	low	tg	nt	tg	tg	right	nt	ms	0.7868	wh/0505.bmp	-0.1	5.1
91.04	1.31393	2	20	per	lib	low	low	low	tg	tg	tg	nt	left	nt	ms	0.91393	wh/0634.bmp	-0.1	5
94.64	1.37794	2	21	per	lib	low	low	low	nt	tg	nt	nt	right	tg	fa	0.97794	nh/0065_nh.bmp	0	5
98.24	1.4619	2	22	per	lib	low	low	low	nt	nt	nt	nt	right	tg	fa	1.0619	nh/0987_nh.bmp	0	5
102.56	1.5719	2	23	per	lib	low	low	low	tg	nt	tg	tg	right	nt	ms	1.1719	wh/0375.bmp	-0.1	4.9
105.44	1.08361	2	24	per	lib	low	low	low	tg	nt	tg	tg	right	nt	ms	0.68361	wh/0911.bmp	-0.1	4.8
109.76	0.94175	2	25	per	lib	low	low	low	nt	nt	nt	tg	right	nt	cr	0.54175	nh/0471_nh.bmp	0.05	4.85
112.64	0.82433	2	26	per	lib	low	low	low	nt	tg	nt	nt	right	tg	fa	0.42433	nh/0210_nh.bmp	0	4.85
116.96	1.13689	2	27	per	lib	low	low	low	nt	nt	nt	tg	right	nt	cr	0.73689	nh/0184_nh.bmp	0.05	4.9
121.28	1.7569	2	28	per	lib	low	low	low	nt	nt	nt	nt	left	nt	cr	1.3569	nh/0011_nh.bmp	0.05	4.95
124.16	1.03846	2	29	per	lib	low	low	low	tg	tg	tg	nt	right	tg	ht	0.63846	wh/0464.bmp	0.05	5
127.04	1.09	2	30	per	lib	low	low	low	tg	tg	tg	tg	right	nt	ms	0.69	wh/0800.bmp	-0.1	4.9
129.92	1.31086	2	31	per	lib	low	low	low	tg	tg	tg	tg	left	tg	ht	0.91086	wh/0889.bmp	0.05	4.95
133.52	1.38397	2	32	per	lib	low	low	low	nt	tg	nt	tg	right	nt	cr	0.98397	nh/0407_nh.bmp	0.05	5
137.52	3.6	2	n/a	per	lib	low	n/a	n/a	feedback	n/a	n/a	n/a	n/a	n/a	n/a	n/a	n/a	n/a	n/a
141.12	7.2	3	n/a	per	con	mod	n/a	n/a	instructions	n/a	n/a	n/a	n/a	n/a	n/a	n/a	n/a	n/a	n/a
150.08	1.27284	3	33	per	con	mod	low	mod	nt	tg	nt	nt	left	nt	cr	0.87284	nh/0047_nh.bmp	0.05	5.05
153.68	1.05391	3	34	per	con	mod	low	mod	tg	nt	tg	tg	right	nt	ms	0.65391	wh/0616.bmp	0	5.05
157.28	1.08606	3	35	per	con	mod	low	mod	nt	nt	nt	nt	left	nt	cr	0.68606	nh/0062_nh.bmp	0.05	5.1
160.16	1.04074	3	36	per	con	mod	low	mod	tg	nt	tg	tg	left	tg	ht	0.64074	wh/0567.bmp	0.05	5.15
163.76	1.00685	3	37	per	con	mod	low	mod	tg	tg	tg	nt	left	nt	ms	0.60685	wh/0960.bmp	0	5.15
167.36	1.1639	3	38	per	con	mod	low	mod	nt	tg	nt	nt	left	nt	cr	0.7639	nh/0235_nh.bmp	0.05	5.2
170.24	0.93473	3	39	per	con	mod	low	mod	nt	nt	nt	nt	left	nt	cr	0.53473	nh/0630_nh.bmp	0.05	5.25
173.12	2.56	3	40	per	con	mod	low	mod	nt	tg	nt	nt	n/a	err	n/a	n/a	nh/0332_nh.bmp	0	5.25
176.72	0.87754	3	41	per	con	mod	low	mod	tg	tg	tg	nt	right	tg	ht	0.47754	wh/0844.bmp	0.05	5.3
180.32	0.77672	3	42	per	con	mod	low	mod	tg	nt	tg	nt	right	tg	ht	0.37672	wh/0754.bmp	0.05	5.35
184.64	1.04341	3	43	per	con	mod	low	mod	nt	tg	nt	nt	right	tg	fa	0.64341	nh/0687_nh.bmp	-0.1	5.25
188.24	1.12892	3	44	per	con	mod	low	mod	nt	nt	nt	nt	right	tg	fa	0.72892	nh/0033_nh.bmp	-0.1	5.15
191.84	0.83785	3	45	per	con	mod	low	mod	tg	tg	tg	nt	right	tg	ht	0.43785	wh/0898.bmp	0.05	5.2
196.16	1.102	3	46	per	con	mod	low	mod	tg	nt	tg	nt	left	nt	ms	0.702	wh/0891.bmp	0	5.2
199.04	1.09224	3	47	per	con	mod	low	mod	nt	nt	nt	nt	left	nt	cr	0.69224	nh/0003_nh.bmp	0.05	5.25
201.92	1.16588	3	48	per	con	mod	low	mod	tg	tg	tg	tg	right	nt	ms	0.76588	wh/0725.bmp	0	5.25
205.92	3.6	3	n/a	per	con	mod	n/a	n/a	feedback	n/a	n/a	n/a	n/a	n/a	n/a	n/a	n/a	n/a	n/a
210.24	7.2	4	n/a	per	lib	mod	n/a	n/a	instructions	n/a	n/a	n/a	n/a	n/a	n/a	n/a	n/a	n/a	n/a
217.76	1.06209	4	49	per	lib	mod	mod	mod	tg	tg	tg	tg	left	tg	ht	0.66209	wh/0681.bmp	0.05	5.3
220.64	1.25491	4	50	per	lib	mod	mod	mod	nt	nt	nt	tg	left	tg	fa	0.85491	nh/0562_nh.bmp	0	5.3
223.52	1.18391	4	51	per	lib	mod	mod	mod	tg	nt	tg	nt	right	tg	ht	0.78391	wh/0313.bmp	0.05	5.35
227.84	1.08823	4	52	per	lib	mod	mod	mod	tg	tg	tg	nt	left	nt	ms	0.68823	wh/0981.bmp	-0.1	5.25
231.44	1.04138	4	53	per	lib	mod	mod	mod	tg	nt	tg	nt	right	tg	ht	0.64138	wh/0331.bmp	0.05	5.3
234.32	0.98203	4	54	per	lib	mod	mod	mod	tg	nt	tg	tg	left	tg	ht	0.58203	wh/0359.bmp	0.05	5.35
237.2	1.01964	4	55	per	lib	mod	mod	mod	nt	tg	nt	nt	left	nt	cr	0.61964	nh/0801_nh.bmp	0.05	5.4
240.08	0.9612	4	56	per	lib	mod	mod	mod	nt	tg	nt	nt	left	nt	cr	0.5612	nh/0414_nh.bmp	0.05	5.45
244.4	1.23489	4	57	per	lib	mod	mod	mod	tg	tg	tg	tg	right	nt	ms	0.83489	wh/0466.bmp	-0.1	5.35
247.28	1.34484	4	58	per	lib	mod	mod	mod	nt	nt	nt	nt	left	nt	cr	0.94484	nh/0799_nh.bmp	0.05	5.4
250.16	1.5069	4	59	per	lib	mod	mod	mod	nt	nt	nt	nt	left	nt	cr	1.1069	nh/0628_nh.bmp	0.05	5.45
253.04	1.09781	4	60	per	lib	mod	mod	mod	nt	tg	nt	nt	left	nt	cr	0.69781	nh/0605_nh.bmp	0.05	5.5
255.92	1.4549	4	61	per	lib	mod	mod	mod	tg	nt	tg	nt	left	nt	ms	1.0549	wh/0097.bmp	-0.1	5.4
259.52	1.3409	4	62	per	lib	mod	mod	mod	nt	tg	nt	nt	left	nt	cr	0.9409	nh/0391_nh.bmp	0.05	5.45
262.4	0.92996	4	63	per	lib	mod	mod	mod	tg	tg	tg	nt	right	tg	ht	0.52996	wh/0534.bmp	0.05	5.5
266	1.08116	4	64	per	lib	mod	mod	mod	nt	nt	nt	nt	right	tg	fa	0.68116	nh/0333_nh.bmp	0	5.5
270	3.6	4	n/a	per	lib	mod	n/a	n/a	feedback	n/a	n/a	n/a	n/a	n/a	n/a	n/a	n/a	n/a	n/a
273.6	7.2	5	n/a	mem	lib	low	n/a	n/a	instructions	n/a	n/a	n/a	n/a	n/a	n/a	n/a	n/a	n/a	n/a
281.12	0.98174	5	65	mem	lib	low	low	low	nt	nt	nt	nt	right	tg	fa	0.58174	nh/0110_nh.bmp	0	5.5
284.72	1.37993	5	66	mem	lib	low	low	low	nt	nt	tg	tg	right	nt	cr	0.97993	wh/0369.bmp	0.05	5.55
288.32	1.15883	5	67	mem	lib	low	low	low	nt	nt	tg	tg	left	tg	fa	0.75883	wh/0161.bmp	0	5.55
291.92	1.14195	5	68	mem	lib	low	low	low	tg	tg	nt	nt	right	tg	ht	0.74195	nh/0522_nh.bmp	0.05	5.6
294.8	1.3118	5	69	mem	lib	low	low	low	tg	tg	tg	tg	left	tg	ht	0.9118	wh/0054.bmp	0.05	5.65
298.4	1.13891	5	70	mem	lib	low	low	low	nt	nt	nt	nt	right	tg	fa	0.73891	nh/0335_nh.bmp	0	5.65
301.28	1.01873	5	71	mem	lib	low	low	low	nt	nt	tg	nt	right	tg	fa	0.61873	wh/0010.bmp	0	5.65
305.6	1.21992	5	72	mem	lib	low	low	low	tg	tg	tg	tg	right	nt	ms	0.81992	wh/0362.bmp	-0.1	5.55
308.48	1.04516	5	73	mem	lib	low	low	low	tg	tg	tg	nt	left	nt	ms	0.64516	wh/0685.bmp	-0.1	5.45
311.36	1.4939	5	74	mem	lib	low	low	low	nt	nt	tg	nt	right	tg	fa	1.0939	wh/0167.bmp	0	5.45
315.68	1.0306	5	75	mem	lib	low	low	low	tg	tg	nt	nt	left	nt	ms	0.6306	nh/1001_nh.bmp	-0.1	5.35
319.28	1.12176	5	76	mem	lib	low	low	low	nt	nt	nt	tg	left	tg	fa	0.72176	nh/0783_nh.bmp	0	5.35
322.16	1.33288	5	77	mem	lib	low	low	low	tg	tg	nt	nt	right	tg	ht	0.93288	nh/0456_nh.bmp	0.05	5.4
326.48	1.11121	5	78	mem	lib	low	low	low	nt	nt	nt	tg	right	nt	cr	0.71121	nh/0327_nh.bmp	0.05	5.45
330.8	1.4549	5	79	mem	lib	low	low	low	tg	tg	nt	tg	left	tg	ht	1.0549	nh/0354_nh.bmp	0.05	5.5
333.68	1.22394	5	80	mem	lib	low	low	low	tg	tg	tg	nt	right	tg	ht	0.82394	wh/0140.bmp	0.05	5.55
336.24	3.6	5	n/a	mem	lib	low	n/a	n/a	feedback	n/a	n/a	n/a	n/a	n/a	n/a	n/a	n/a	n/a	n/a
340.56	7.2	6	n/a	mem	con	low	n/a	n/a	instructions	n/a	n/a	n/a	n/a	n/a	n/a	n/a	n/a	n/a	n/a
349.52	1.2799	6	81	mem	con	low	low	low	tg	tg	tg	nt	left	nt	ms	0.8799	wh/0709.bmp	0	5.55
352.4	1.05344	6	82	mem	con	low	low	low	nt	nt	nt	nt	right	tg	fa	0.65344	nh/0245_nh.bmp	-0.1	5.45
355.28	1.19988	6	83	mem	con	low	low	low	nt	nt	tg	tg	right	nt	cr	0.79988	wh/0828.bmp	0.05	5.5
358.16	0.94869	6	84	mem	con	low	low	low	nt	nt	nt	nt	right	tg	fa	0.54869	nh/0363_nh.bmp	-0.1	5.4
362.48	1.16886	6	85	mem	con	low	low	low	tg	tg	nt	tg	left	tg	ht	0.76886	nh/0142_nh.bmp	0.05	5.45
365.36	0.91705	6	86	mem	con	low	low	low	tg	tg	nt	tg	right	nt	ms	0.51705	nh/0862_nh.bmp	0	5.45
368.96	1.01728	6	87	mem	con	low	low	low	tg	tg	nt	tg	right	nt	ms	0.61728	nh/0028_nh.bmp	0	5.45
372.56	0.90541	6	88	mem	con	low	low	low	tg	tg	tg	tg	left	tg	ht	0.50541	wh/0614.bmp	0.05	5.5
375.44	1.5728	6	89	mem	con	low	low	low	nt	nt	nt	nt	left	nt	cr	1.1728	nh/0211_nh.bmp	0.05	5.55
378.32	0.99565	6	90	mem	con	low	low	low	tg	tg	tg	tg	left	tg	ht	0.59565	wh/0682.bmp	0.05	5.6
381.2	1.18891	6	91	mem	con	low	low	low	tg	tg	tg	tg	right	nt	ms	0.78891	wh/0057.bmp	0	5.6
385.52	0.99737	6	92	mem	con	low	low	low	nt	nt	nt	tg	right	nt	cr	0.59737	nh/0524_nh.bmp	0.05	5.65
388.4	1.18193	6	93	mem	con	low	low	low	tg	tg	nt	tg	left	tg	ht	0.78193	nh/0771_nh.bmp	0.05	5.7
392	1.12572	6	94	mem	con	low	low	low	nt	nt	tg	tg	right	nt	cr	0.72572	wh/0107.bmp	0.05	5.75
395.6	1.08709	6	95	mem	con	low	low	low	nt	nt	tg	nt	left	nt	cr	0.68709	wh/0908.bmp	0.05	5.8
399.2	1.27264	6	96	mem	con	low	low	low	nt	nt	tg	nt	right	tg	fa	0.87264	wh/0504.bmp	-0.1	5.7
403.2	3.6	6	n/a	mem	con	low	n/a	n/a	feedback	n/a	n/a	n/a	n/a	n/a	n/a	n/a	n/a	n/a	n/a
406.8	7.2	7	n/a	per	con	low	n/a	n/a	instructions	n/a	n/a	n/a	n/a	n/a	n/a	n/a	n/a	n/a	n/a
414.32	1.0849	7	97	per	con	low	mod	low	nt	nt	nt	tg	right	nt	cr	0.6849	nh/0293_nh.bmp	0.05	5.75
417.92	1.04812	7	98	per	con	low	mod	low	nt	tg	nt	nt	right	tg	fa	0.64812	nh/0573_nh.bmp	-0.1	5.65
420.8	1.02058	7	99	per	con	low	mod	low	nt	tg	nt	nt	left	nt	cr	0.62058	nh/0853_nh.bmp	0.05	5.7
423.68	1.04367	7	100	per	con	low	mod	low	tg	tg	tg	tg	right	nt	ms	0.64367	wh/0233.bmp	0	5.7
428	1.3108	7	101	per	con	low	mod	low	nt	nt	nt	nt	left	nt	cr	0.9108	nh/0459_nh.bmp	0.05	5.75
431.6	1.0443	7	102	per	con	low	mod	low	nt	tg	nt	tg	right	nt	cr	0.6443	nh/0472_nh.bmp	0.05	5.8
435.92	1.2879	7	103	per	con	low	mod	low	tg	nt	tg	nt	left	nt	ms	0.8879	wh/0914.bmp	0	5.8
438.8	1.20083	7	104	per	con	low	mod	low	tg	nt	tg	tg	right	nt	ms	0.80083	wh/0554.bmp	0	5.8
441.68	1.06336	7	105	per	con	low	mod	low	nt	nt	nt	tg	left	tg	fa	0.66336	nh/0263_nh.bmp	-0.1	5.7
445.28	1.16289	7	106	per	con	low	mod	low	nt	nt	nt	nt	left	nt	cr	0.76289	nh/0412_nh.bmp	0.05	5.75
448.16	0.99207	7	107	per	con	low	mod	low	tg	nt	tg	nt	left	nt	ms	0.59207	wh/0765.bmp	0	5.75
451.76	0.94934	7	108	per	con	low	mod	low	tg	nt	tg	nt	left	nt	ms	0.54934	wh/0438.bmp	0	5.75
454.64	0.84791	7	109	per	con	low	mod	low	tg	tg	tg	tg	right	nt	ms	0.44791	wh/0251.bmp	0	5.75
457.52	1.26492	7	110	per	con	low	mod	low	nt	tg	nt	nt	right	tg	fa	0.86492	nh/0769_nh.bmp	-0.1	5.65
460.4	0.97684	7	111	per	con	low	mod	low	tg	tg	tg	tg	right	nt	ms	0.57684	wh/0624.bmp	0	5.65
464.72	1.14971	7	112	per	con	low	mod	low	tg	tg	tg	nt	left	nt	ms	0.74971	wh/0836.bmp	0	5.65
468	3.6	7	n/a	per	con	low	n/a	n/a	feedback	n/a	n/a	n/a	n/a	n/a	n/a	n/a	n/a	n/a	n/a
471.6	7.2	8	n/a	mem	lib	mod	n/a	n/a	instructions	n/a	n/a	n/a	n/a	n/a	n/a	n/a	n/a	n/a	n/a
479.84	1.30289	8	113	mem	lib	mod	mod	mod	tg	tg	tg	nt	right	tg	ht	0.90289	wh/0642.bmp	0.05	5.7
484.16	0.96736	8	114	mem	lib	mod	mod	mod	nt	nt	tg	tg	left	tg	fa	0.56736	wh/0583.bmp	0	5.7
487.04	0.95771	8	115	mem	lib	mod	mod	mod	nt	nt	nt	tg	right	nt	cr	0.55771	nh/0761_nh.bmp	0.05	5.75
490.64	0.98106	8	116	mem	lib	mod	mod	mod	nt	nt	nt	nt	left	nt	cr	0.58106	nh/0104_nh.bmp	0.05	5.8
493.52	0.96656	8	117	mem	lib	mod	mod	mod	tg	tg	nt	tg	left	tg	ht	0.56656	nh/0001_nh.bmp	0.05	5.85
497.12	1.03176	8	118	mem	lib	mod	mod	mod	nt	nt	nt	nt	left	nt	cr	0.63176	nh/0983_nh.bmp	0.05	5.9
500	1.08437	8	119	mem	lib	mod	mod	mod	tg	tg	nt	tg	left	tg	ht	0.68437	nh/0955_nh.bmp	0.05	5.95
503.6	1.19293	8	120	mem	lib	mod	mod	mod	tg	tg	tg	nt	left	nt	ms	0.79293	wh/0935.bmp	-0.1	5.85
507.2	1.31992	8	121	mem	lib	mod	mod	mod	nt	nt	tg	nt	left	nt	cr	0.91992	wh/0348.bmp	0.05	5.9
511.52	0.92881	8	122	mem	lib	mod	mod	mod	tg	tg	nt	nt	right	tg	ht	0.52881	nh/0425_nh.bmp	0.05	5.95
514.4	0.94937	8	123	mem	lib	mod	mod	mod	tg	tg	tg	nt	right	tg	ht	0.54937	wh/0984.bmp	0.05	6
518	1.4459	8	124	mem	lib	mod	mod	mod	nt	nt	tg	tg	right	nt	cr	1.0459	wh/0970.bmp	0.05	6.05
520.88	1.06225	8	125	mem	lib	mod	mod	mod	tg	tg	tg	tg	left	tg	ht	0.66225	wh/0896.bmp	0.05	6.1
524.48	1.39691	8	126	mem	lib	mod	mod	mod	nt	nt	tg	nt	right	tg	fa	0.99691	wh/0674.bmp	0	6.1
528.8	1.19391	8	127	mem	lib	mod	mod	mod	nt	nt	nt	nt	right	tg	fa	0.79391	nh/0413_nh.bmp	0	6.1
533.12	1.36188	8	128	mem	lib	mod	mod	mod	tg	tg	nt	nt	left	nt	ms	0.96188	nh/0700_nh.bmp	-0.1	6
536.4	3.6	8	n/a	mem	lib	mod	n/a	n/a	feedback	n/a	n/a	n/a	n/a	n/a	n/a	n/a	n/a	n/a	n/a
