onset	duration	trial	pres	ts_blk	ts_trl	task	crit	disc	mem_disc	per_disc	per_type	accuracy	stim_file
7.20	0.72	1	1	5	59	per	con	mod	mod	mod	nt	cr	nh/0420_nh.bmp
7.92	0.72	2	1	7	28	mem	con	mod	mod	mod	tg	ht	wh/0179.bmp
8.64	0.72	3	1	5	1	per	lib	mod	low	mod	tg	ms	wh/0395.bmp
9.36	0.72	4	1	7	127	mem	con	low	low	mod	tg	ms	wh/0234.bmp
10.08	0.72	5	1	7	94	per	con	mod	mod	mod	nt	cr	nh/0609_nh.bmp
10.80	0.72	6	1	6	79	mem	con	mod	mod	mod	tg	ht	wh/0300.bmp
11.52	0.72	7	1	8	20	mem	con	mod	mod	low	nt	ht	nh/0139_nh.bmp
12.24	0.72	8	1	8	35	per	con	low	mod	low	nt	cr	nh/0403_nh.bmp
12.96	0.72	9	2	6	79	mem	con	mod	mod	mod	tg	ht	wh/0300.bmp
13.68	0.72	10	1	8	22	mem	con	mod	mod	low	nt	ht	nh/0254_nh.bmp
14.40	0.72	11	1	5	51	per	con	mod	mod	mod	tg	ms	wh/0441.bmp
15.12	0.72	12	1	8	36	per	con	low	mod	low	nt	fa	nh/0746_nh.bmp
15.84	0.72	13	1	5	60	per	con	mod	mod	mod	tg	ht	wh/0060.bmp
16.56	0.72	14	1	8	27	mem	con	mod	mod	low	nt	ht	nh/0012_nh.bmp
17.28	0.72	15	1	6	5	per	lib	mod	mod	mod	nt	cr	nh/0778_nh.bmp
18.00	0.72	16	1	6	110	per	con	mod	low	mod	tg	ms	wh/0924.bmp
18.72	0.72	17	1	8	51	per	lib	mod	mod	mod	tg	ht	wh/0995.bmp
19.44	0.72	18	1	8	127	per	lib	low	mod	low	tg	ht	wh/1004.bmp
20.16	0.72	19	1	5	46	mem	con	mod	mod	low	tg	ms	wh/0042.bmp
20.88	0.72	20	1	8	126	per	lib	low	mod	low	nt	cr	nh/0491_nh.bmp
21.60	0.72	21	1	7	93	per	con	mod	mod	mod	nt	cr	nh/0269_nh.bmp
22.32	0.72	22	1	5	38	mem	con	mod	mod	low	nt	ht	nh/0450_nh.bmp
23.04	0.72	23	1	8	17	mem	con	mod	mod	low	nt	ht	nh/0780_nh.bmp
23.76	0.72	24	1	8	114	per	lib	low	mod	low	nt	cr	nh/0820_nh.bmp
24.48	0.72	25	1	7	88	per	con	mod	mod	mod	tg	ms	wh/0715.bmp
25.20	0.72	26	1	7	45	per	lib	low	low	low	nt	cr	nh/0480_nh.bmp
25.92	0.72	27	1	5	125	per	con	low	mod	low	tg	ms	wh/0024.bmp
26.64	0.72	28	1	6	50	mem	lib	mod	mod	mod	nt	ht	nh/0275_nh.bmp
27.36	0.72	29	1	7	92	per	con	mod	mod	mod	tg	ht	wh/0764.bmp
28.08	0.72	30	2	8	114	per	lib	low	mod	low	nt	cr	nh/0820_nh.bmp
28.80	0.72	31	1	6	20	mem	lib	low	low	low	nt	ms	nh/0990_nh.bmp
29.52	0.72	32	1	7	123	mem	con	low	low	mod	tg	ht	wh/0537.bmp
30.24	0.72	33	2	8	35	per	con	low	mod	low	nt	cr	nh/0403_nh.bmp
30.96	0.72	34	1	7	9	per	con	low	low	low	tg	ht	wh/0929.bmp
31.68	0.72	35	1	5	111	mem	lib	low	low	mod	tg	ht	wh/0945.bmp
32.40	0.72	36	2	7	94	per	con	mod	mod	mod	nt	cr	nh/0609_nh.bmp
33.12	0.72	37	1	5	121	per	con	low	mod	low	nt	cr	nh/0157_nh.bmp
33.84	0.72	38	1	8	102	mem	lib	mod	mod	low	tg	ht	wh/0018.bmp
34.56	0.72	39	3	7	94	per	con	mod	mod	mod	nt	cr	nh/0609_nh.bmp
35.28	0.72	40	1	7	14	per	con	low	low	low	nt	cr	nh/0617_nh.bmp
36.00	0.72	41	1	6	91	mem	con	low	low	mod	nt	ms	nh/0839_nh.bmp
36.72	0.72	42	1	8	60	per	lib	mod	mod	mod	tg	ht	wh/0560.bmp
37.44	0.72	43	1	6	77	mem	con	mod	mod	mod	nt	ms	nh/0544_nh.bmp
38.16	0.72	44	1	7	17	mem	con	mod	mod	mod	nt	ht	nh/0436_nh.bmp
38.88	0.72	45	1	5	45	mem	con	mod	mod	low	nt	ms	nh/0521_nh.bmp
39.60	0.72	46	1	5	27	mem	lib	mod	mod	low	nt	ht	nh/0262_nh.bmp
40.32	0.72	47	1	8	123	per	lib	low	mod	low	nt	cr	nh/0073_nh.bmp
41.04	0.72	48	1	7	77	mem	lib	mod	mod	mod	nt	ht	nh/0694_nh.bmp
41.76	0.72	49	1	6	64	mem	lib	mod	mod	mod	nt	ht	nh/0666_nh.bmp
42.48	0.72	50	1	8	29	mem	con	mod	mod	low	tg	ms	wh/0111.bmp
43.20	0.72	51	1	5	16	per	lib	mod	low	mod	nt	cr	nh/0867_nh.bmp
43.92	0.72	52	1	7	2	per	con	low	low	low	tg	ms	wh/0280.bmp
44.64	0.72	53	1	5	117	per	con	low	mod	low	nt	cr	nh/0883_nh.bmp
45.36	0.72	54	1	8	95	mem	con	low	low	low	nt	ms	nh/0859_nh.bmp
46.08	0.72	55	1	5	81	per	lib	low	mod	low	nt	cr	nh/0756_nh.bmp
46.80	0.72	56	1	6	68	mem	con	mod	mod	mod	nt	ht	nh/0978_nh.bmp
47.52	0.72	57	1	5	18	mem	lib	mod	mod	low	tg	ht	wh/0734.bmp
48.24	0.72	58	2	6	64	mem	lib	mod	mod	mod	nt	ht	nh/0666_nh.bmp
48.96	0.72	59	1	6	12	per	lib	mod	mod	mod	tg	ms	wh/0835.bmp
49.68	0.72	60	1	5	54	per	con	mod	mod	mod	tg	ms	wh/0294.bmp
50.40	0.72	61	1	8	55	per	lib	mod	mod	mod	nt	cr	nh/0599_nh.bmp
51.12	0.72	62	2	5	54	per	con	mod	mod	mod	tg	ms	wh/0294.bmp
51.84	0.72	63	1	5	19	mem	lib	mod	mod	low	tg	ht	wh/0647.bmp
52.56	0.72	64	1	5	26	mem	lib	mod	mod	low	tg	ht	wh/0247.bmp
53.28	0.72	65	1	6	85	mem	con	low	low	mod	nt	ht	nh/0611_nh.bmp
54.00	0.72	66	1	5	119	per	con	low	mod	low	nt	cr	nh/0253_nh.bmp
54.72	0.72	67	1	7	62	per	lib	mod	low	mod	nt	cr	nh/0016_nh.bmp
55.44	0.72	68	1	8	62	per	lib	mod	mod	mod	nt	cr	nh/0833_nh.bmp
56.16	0.72	69	2	5	26	mem	lib	mod	mod	low	tg	ht	wh/0247.bmp
56.88	0.72	70	1	6	80	mem	con	mod	mod	mod	tg	ms	wh/0852.bmp
57.60	0.72	71	1	6	97	per	con	mod	low	mod	tg	ht	wh/0732.bmp
58.32	0.72	72	1	6	71	mem	con	mod	mod	mod	tg	ms	wh/0832.bmp
59.04	0.72	73	1	5	114	per	con	low	mod	low	tg	ms	wh/0863.bmp
59.76	0.72	74	1	8	38	per	con	low	mod	low	tg	ht	wh/0193.bmp
60.48	0.72	75	1	6	13	per	lib	mod	mod	mod	nt	cr	nh/0385_nh.bmp
61.20	0.72	76	1	8	107	mem	lib	mod	mod	low	nt	ms	nh/1019_nh.bmp
61.92	0.72	77	1	7	13	per	con	low	low	low	tg	ms	wh/0570.bmp
62.64	0.72	78	2	8	60	per	lib	mod	mod	mod	tg	ht	wh/0560.bmp
63.36	0.72	79	2	5	121	per	con	low	mod	low	nt	cr	nh/0157_nh.bmp
64.08	0.72	80	1	8	100	mem	lib	mod	mod	low	tg	ht	wh/0678.bmp
64.80	0.72	81	1	8	111	mem	lib	mod	mod	low	tg	ht	wh/0023.bmp
65.52	0.72	82	1	7	87	per	con	mod	mod	mod	nt	cr	nh/0871_nh.bmp
66.24	0.72	83	1	5	84	per	lib	low	mod	low	tg	ht	wh/0114.bmp
66.96	0.72	84	2	8	17	mem	con	mod	mod	low	nt	ht	nh/0780_nh.bmp
67.68	0.72	85	1	5	33	mem	con	mod	mod	low	nt	ms	nh/0172_nh.bmp
68.40	0.72	86	1	5	69	mem	con	low	low	low	nt	ms	nh/0226_nh.bmp
69.12	0.72	87	1	5	115	per	con	low	mod	low	tg	ms	wh/0612.bmp
69.84	0.72	88	2	5	59	per	con	mod	mod	mod	nt	cr	nh/0420_nh.bmp
70.56	0.72	89	1	5	94	per	lib	low	mod	low	tg	ms	wh/0248.bmp
71.28	0.72	90	2	5	19	mem	lib	mod	mod	low	tg	ht	wh/0647.bmp
72.00	0.72	91	1	5	95	per	lib	low	mod	low	nt	cr	nh/0401_nh.bmp
72.72	0.72	92	1	5	43	mem	con	mod	mod	low	tg	ht	wh/0255.bmp
73.44	0.72	93	1	5	20	mem	lib	mod	mod	low	nt	ms	nh/0143_nh.bmp
74.16	0.72	94	2	8	27	mem	con	mod	mod	low	nt	ht	nh/0012_nh.bmp
74.88	0.72	95	2	5	33	mem	con	mod	mod	low	nt	ms	nh/0172_nh.bmp
75.60	0.72	96	1	8	32	mem	con	mod	mod	low	tg	ht	wh/1014.bmp
76.32	0.72	97	1	8	67	per	con	mod	low	mod	tg	ht	wh/0389.bmp
77.04	0.72	98	1	8	40	per	con	low	mod	low	tg	ms	wh/0578.bmp
77.76	0.72	99	1	5	83	per	lib	low	mod	low	nt	fa	nh/0453_nh.bmp
78.48	0.72	100	1	7	7	per	con	low	low	low	tg	ht	wh/0880.bmp
79.20	0.72	101	2	8	126	per	lib	low	mod	low	nt	cr	nh/0491_nh.bmp
79.92	0.72	102	2	8	20	mem	con	mod	mod	low	nt	ht	nh/0139_nh.bmp
80.64	0.72	103	1	6	127	per	con	low	low	low	nt	cr	nh/0728_nh.bmp
81.36	0.72	104	1	8	58	per	lib	mod	mod	mod	tg	ht	wh/0337.bmp
82.08	0.72	105	1	7	70	mem	lib	mod	mod	mod	tg	ms	wh/0717.bmp
82.80	0.72	106	1	8	59	per	lib	mod	mod	mod	nt	fa	nh/0408_nh.bmp
83.52	0.72	107	1	7	85	per	con	mod	mod	mod	nt	cr	nh/0602_nh.bmp
84.24	0.72	108	3	5	33	mem	con	mod	mod	low	nt	ms	nh/0172_nh.bmp
84.96	0.72	109	2	7	93	per	con	mod	mod	mod	nt	cr	nh/0269_nh.bmp
85.68	0.72	110	3	6	64	mem	lib	mod	mod	mod	nt	ht	nh/0666_nh.bmp
86.40	0.72	111	1	8	53	per	lib	mod	mod	mod	tg	ht	wh/0623.bmp
87.12	0.72	112	1	7	71	mem	lib	mod	mod	mod	tg	ht	wh/0020.bmp
87.84	0.72	113	3	5	19	mem	lib	mod	mod	low	tg	ht	wh/0647.bmp
88.56	0.72	114	1	6	7	per	lib	mod	mod	mod	tg	ht	wh/0564.bmp
89.28	0.72	115	1	6	70	mem	con	mod	mod	mod	nt	ht	nh/0552_nh.bmp
90.00	0.72	116	1	8	44	per	con	low	mod	low	tg	ms	wh/0374.bmp
90.72	0.72	117	1	7	30	mem	con	mod	mod	mod	nt	ms	nh/0549_nh.bmp
91.44	0.72	118	1	5	56	per	con	mod	mod	mod	nt	cr	nh/0958_nh.bmp
92.16	0.72	119	2	6	71	mem	con	mod	mod	mod	tg	ms	wh/0832.bmp
92.88	0.72	120	1	5	104	mem	lib	low	low	mod	nt	ht	nh/0622_nh.bmp
93.60	0.72	121	2	8	44	per	con	low	mod	low	tg	ms	wh/0374.bmp
94.32	0.72	122	2	5	46	mem	con	mod	mod	low	tg	ms	wh/0042.bmp
95.04	0.72	123	1	6	60	mem	lib	mod	mod	mod	nt	ms	nh/0638_nh.bmp
95.76	0.72	124	1	7	3	per	con	low	low	low	nt	cr	nh/0244_nh.bmp
96.48	0.72	125	1	6	23	mem	lib	low	low	low	tg	ht	wh/0830.bmp
97.20	0.72	126	1	7	29	mem	con	mod	mod	mod	nt	ms	nh/0822_nh.bmp
97.92	0.72	127	2	7	70	mem	lib	mod	mod	mod	tg	ms	wh/0717.bmp
98.64	0.72	128	1	7	64	per	lib	mod	low	mod	nt	cr	nh/0948_nh.bmp
99.36	0.72	129	1	5	116	per	con	low	mod	low	nt	cr	nh/0297_nh.bmp
100.08	0.72	130	1	6	73	mem	con	mod	mod	mod	nt	ht	nh/0763_nh.bmp
100.80	0.72	131	2	6	80	mem	con	mod	mod	mod	tg	ms	wh/0852.bmp
101.52	0.72	132	1	5	68	mem	con	low	low	low	nt	ht	nh/0058_nh.bmp
102.24	0.72	133	2	5	81	per	lib	low	mod	low	nt	cr	nh/0756_nh.bmp
102.96	0.72	134	2	7	77	mem	lib	mod	mod	mod	nt	ht	nh/0694_nh.bmp
103.68	0.72	135	1	5	64	per	con	mod	mod	mod	nt	cr	nh/0546_nh.bmp
104.40	0.72	136	2	5	95	per	lib	low	mod	low	nt	cr	nh/0401_nh.bmp
105.12	0.72	137	2	6	68	mem	con	mod	mod	mod	nt	ht	nh/0978_nh.bmp
105.84	0.72	138	1	8	97	mem	lib	mod	mod	low	nt	ht	nh/0892_nh.bmp
106.56	0.72	139	3	8	20	mem	con	mod	mod	low	nt	ht	nh/0139_nh.bmp
107.28	0.72	140	2	8	123	per	lib	low	mod	low	nt	cr	nh/0073_nh.bmp
108.00	0.72	141	1	6	54	mem	lib	mod	mod	mod	nt	ms	nh/0821_nh.bmp
108.72	0.72	142	2	8	40	per	con	low	mod	low	tg	ms	wh/0578.bmp
109.44	0.72	143	3	6	68	mem	con	mod	mod	mod	nt	ht	nh/0978_nh.bmp
110.16	0.72	144	1	7	44	per	lib	low	low	low	tg	ht	wh/0135.bmp
110.88	0.72	145	2	6	73	mem	con	mod	mod	mod	nt	ht	nh/0763_nh.bmp
111.60	0.72	146	2	5	64	per	con	mod	mod	mod	nt	cr	nh/0546_nh.bmp
112.32	0.72	147	1	8	43	per	con	low	mod	low	nt	fa	nh/0793_nh.bmp
113.04	0.72	148	2	7	28	mem	con	mod	mod	mod	tg	ht	wh/0179.bmp
113.76	0.72	149	1	6	59	mem	lib	mod	mod	mod	tg	ht	wh/0590.bmp
114.48	0.72	150	1	7	124	mem	con	low	low	mod	nt	ht	nh/0334_nh.bmp
115.20	0.72	151	3	7	93	per	con	mod	mod	mod	nt	cr	nh/0269_nh.bmp
115.92	0.72	152	1	6	88	mem	con	low	low	mod	tg	ht	wh/0347.bmp
116.64	0.72	153	1	6	62	mem	lib	mod	mod	mod	tg	ms	wh/0968.bmp
117.36	0.72	154	2	8	111	mem	lib	mod	mod	low	tg	ht	wh/0023.bmp
118.08	0.72	155	1	8	110	mem	lib	mod	mod	low	nt	ms	nh/0170_nh.bmp
118.80	0.72	156	1	6	57	mem	lib	mod	mod	mod	tg	ht	wh/0827.bmp
119.52	0.72	157	1	5	34	mem	con	mod	mod	low	tg	ht	wh/0848.bmp
120.24	0.72	158	1	6	83	mem	con	low	low	mod	tg	ht	wh/0046.bmp
120.96	0.72	159	2	7	17	mem	con	mod	mod	mod	nt	ht	nh/0436_nh.bmp
121.68	0.72	160	2	6	5	per	lib	mod	mod	mod	nt	cr	nh/0778_nh.bmp
122.40	0.72	161	2	5	56	per	con	mod	mod	mod	nt	cr	nh/0958_nh.bmp
123.12	0.72	162	1	8	45	per	con	low	mod	low	tg	ms	wh/0165.bmp
123.84	0.72	163	1	7	81	per	con	mod	mod	mod	tg	ht	wh/0495.bmp
124.56	0.72	164	1	5	93	per	lib	low	mod	low	tg	ht	wh/0176.bmp
125.28	0.72	165	1	8	85	mem	con	low	low	low	tg	ms	wh/0825.bmp
126.00	0.72	166	1	5	89	per	lib	low	mod	low	nt	fa	nh/0394_nh.bmp
126.72	0.72	167	1	7	79	mem	lib	mod	mod	mod	nt	ht	nh/0239_nh.bmp
127.44	0.72	168	1	8	61	per	lib	mod	mod	mod	nt	cr	nh/0797_nh.bmp
128.16	0.72	169	4	6	68	mem	con	mod	mod	mod	nt	ht	nh/0978_nh.bmp
128.88	0.72	170	3	8	60	per	lib	mod	mod	mod	tg	ht	wh/0560.bmp
129.60	0.72	171	4	8	60	per	lib	mod	mod	mod	tg	ht	wh/0560.bmp
130.32	0.72	172	1	5	128	per	con	low	mod	low	tg	ht	wh/0519.bmp
131.04	0.72	173	3	5	54	per	con	mod	mod	mod	tg	ms	wh/0294.bmp
131.76	0.72	174	2	7	71	mem	lib	mod	mod	mod	tg	ht	wh/0020.bmp
132.48	0.72	175	4	7	93	per	con	mod	mod	mod	nt	cr	nh/0269_nh.bmp
133.20	0.72	176	1	5	58	per	con	mod	mod	mod	tg	ms	wh/0888.bmp
133.92	0.72	177	2	8	55	per	lib	mod	mod	mod	nt	cr	nh/0599_nh.bmp
134.64	0.72	178	3	5	59	per	con	mod	mod	mod	nt	cr	nh/0420_nh.bmp
135.36	0.72	179	1	6	25	mem	lib	low	low	low	nt	ms	nh/0610_nh.bmp
136.08	0.72	180	2	8	45	per	con	low	mod	low	tg	ms	wh/0165.bmp
136.80	0.72	181	3	8	55	per	lib	mod	mod	mod	nt	cr	nh/0599_nh.bmp
137.52	0.72	182	1	5	7	per	lib	mod	low	mod	tg	ht	wh/0381.bmp
138.24	0.72	183	1	7	31	mem	con	mod	mod	mod	nt	ht	nh/0971_nh.bmp
138.96	0.72	184	1	8	122	per	lib	low	mod	low	tg	ms	wh/0241.bmp
139.68	0.72	185	2	5	60	per	con	mod	mod	mod	tg	ht	wh/0060.bmp
140.40	0.72	186	1	8	30	mem	con	mod	mod	low	tg	ms	wh/0064.bmp
141.12	0.72	187	2	5	58	per	con	mod	mod	mod	tg	ms	wh/0888.bmp
141.84	0.72	188	1	7	126	mem	con	low	low	mod	tg	ms	wh/0625.bmp
142.56	0.72	189	4	5	33	mem	con	mod	mod	low	nt	ms	nh/0172_nh.bmp
143.28	0.72	190	1	8	124	per	lib	low	mod	low	tg	ms	wh/0574.bmp
144.00	0.72	191	2	7	29	mem	con	mod	mod	mod	nt	ms	nh/0822_nh.bmp
144.72	0.72	192	1	5	22	mem	lib	mod	mod	low	nt	ms	nh/0108_nh.bmp
145.44	0.72	193	2	5	89	per	lib	low	mod	low	nt	fa	nh/0394_nh.bmp
146.16	0.72	194	4	8	55	per	lib	mod	mod	mod	nt	cr	nh/0599_nh.bmp
146.88	0.72	195	3	8	126	per	lib	low	mod	low	nt	cr	nh/0491_nh.bmp
147.60	0.72	196	3	7	17	mem	con	mod	mod	mod	nt	ht	nh/0436_nh.bmp
148.32	0.72	197	1	6	6	per	lib	mod	mod	mod	tg	ht	wh/0086.bmp
149.04	0.72	198	1	5	67	mem	con	low	low	low	tg	ms	wh/0089.bmp
149.76	0.72	199	2	5	117	per	con	low	mod	low	nt	cr	nh/0883_nh.bmp
150.48	0.72	200	1	7	68	mem	lib	mod	mod	mod	tg	ht	wh/0378.bmp
151.20	0.72	201	1	6	3	per	lib	mod	mod	mod	tg	ht	wh/0318.bmp
151.92	0.72	202	2	6	57	mem	lib	mod	mod	mod	tg	ht	wh/0827.bmp
152.64	0.72	203	2	6	12	per	lib	mod	mod	mod	tg	ms	wh/0835.bmp
153.36	0.72	204	2	8	36	per	con	low	mod	low	nt	fa	nh/0746_nh.bmp
154.08	0.72	205	2	5	34	mem	con	mod	mod	low	tg	ht	wh/0848.bmp
154.80	0.72	206	1	5	21	mem	lib	mod	mod	low	nt	ht	nh/0249_nh.bmp
155.52	0.72	207	4	5	19	mem	lib	mod	mod	low	tg	ht	wh/0647.bmp
156.24	0.72	208	2	7	87	per	con	mod	mod	mod	nt	cr	nh/0871_nh.bmp
156.96	0.72	209	2	6	7	per	lib	mod	mod	mod	tg	ht	wh/0564.bmp
157.68	0.72	210	2	7	79	mem	lib	mod	mod	mod	nt	ht	nh/0239_nh.bmp
158.40	0.72	211	3	8	123	per	lib	low	mod	low	nt	cr	nh/0073_nh.bmp
159.12	0.72	212	2	5	43	mem	con	mod	mod	low	tg	ht	wh/0255.bmp
159.84	0.72	213	1	7	60	per	lib	mod	low	mod	tg	ms	wh/0180.bmp
160.56	0.72	214	2	8	22	mem	con	mod	mod	low	nt	ht	nh/0254_nh.bmp
161.28	0.72	215	1	5	23	mem	lib	mod	mod	low	tg	ht	wh/0164.bmp
162.00	0.72	216	1	7	83	per	con	mod	mod	mod	tg	ht	wh/0851.bmp
162.72	0.72	217	1	5	88	per	lib	low	mod	low	tg	ms	wh/0814.bmp
163.44	0.72	218	1	8	90	mem	con	low	low	low	tg	ms	wh/0677.bmp
164.16	0.72	219	2	6	77	mem	con	mod	mod	mod	nt	ms	nh/0544_nh.bmp
164.88	0.72	220	2	7	30	mem	con	mod	mod	mod	nt	ms	nh/0549_nh.bmp
165.60	0.72	221	2	5	51	per	con	mod	mod	mod	tg	ms	wh/0441.bmp
166.32	0.72	222	1	8	68	per	con	mod	low	mod	nt	cr	nh/0101_nh.bmp
167.04	0.72	223	1	5	103	mem	lib	low	low	mod	nt	ht	nh/0751_nh.bmp
167.76	0.72	224	1	7	6	per	con	low	low	low	nt	cr	nh/0045_nh.bmp
168.48	0.72	225	2	8	100	mem	lib	mod	mod	low	tg	ht	wh/0678.bmp
169.20	0.72	226	3	6	7	per	lib	mod	mod	mod	tg	ht	wh/0564.bmp
169.92	0.72	227	3	7	87	per	con	mod	mod	mod	nt	cr	nh/0871_nh.bmp
170.64	0.72	228	1	7	73	mem	lib	mod	mod	mod	nt	ht	nh/0556_nh.bmp
171.36	0.72	229	3	7	79	mem	lib	mod	mod	mod	nt	ht	nh/0239_nh.bmp
172.08	0.72	230	2	7	92	per	con	mod	mod	mod	tg	ht	wh/0764.bmp
172.80	0.72	231	1	6	111	per	con	mod	low	mod	nt	fa	nh/0416_nh.bmp
173.52	0.72	232	2	8	51	per	lib	mod	mod	mod	tg	ht	wh/0995.bmp
174.24	0.72	233	1	6	16	per	lib	mod	mod	mod	nt	fa	nh/0735_nh.bmp
174.96	0.72	234	1	8	118	per	lib	low	mod	low	tg	ms	wh/0875.bmp
175.68	0.72	235	2	8	107	mem	lib	mod	mod	low	nt	ms	nh/1019_nh.bmp
176.40	0.72	236	2	6	6	per	lib	mod	mod	mod	tg	ht	wh/0086.bmp
177.12	0.72	237	2	5	84	per	lib	low	mod	low	tg	ht	wh/0114.bmp
177.84	0.72	238	1	8	80	per	con	mod	low	mod	tg	ht	wh/0840.bmp
178.56	0.72	239	2	8	118	per	lib	low	mod	low	tg	ms	wh/0875.bmp
179.28	0.72	240	3	5	95	per	lib	low	mod	low	nt	cr	nh/0401_nh.bmp
180.00	0.72	241	3	6	57	mem	lib	mod	mod	mod	tg	ht	wh/0827.bmp
180.72	0.72	242	2	5	116	per	con	low	mod	low	nt	cr	nh/0297_nh.bmp
181.44	0.72	243	3	5	34	mem	con	mod	mod	low	tg	ht	wh/0848.bmp
182.16	0.72	244	3	6	80	mem	con	mod	mod	mod	tg	ms	wh/0852.bmp
182.88	0.72	245	4	7	94	per	con	mod	mod	mod	nt	cr	nh/0609_nh.bmp
183.60	0.72	246	1	7	25	mem	con	mod	mod	mod	tg	ht	wh/0629.bmp
184.32	0.72	247	3	7	30	mem	con	mod	mod	mod	nt	ms	nh/0549_nh.bmp
185.04	0.72	248	3	8	22	mem	con	mod	mod	low	nt	ht	nh/0254_nh.bmp
185.76	0.72	249	2	8	29	mem	con	mod	mod	low	tg	ms	wh/0111.bmp
186.48	0.72	250	2	6	3	per	lib	mod	mod	mod	tg	ht	wh/0318.bmp
187.20	0.72	251	1	5	61	per	con	mod	mod	mod	nt	cr	nh/0686_nh.bmp
187.92	0.72	252	2	5	125	per	con	low	mod	low	tg	ms	wh/0024.bmp
188.64	0.72	253	1	5	79	mem	con	low	low	low	nt	ms	nh/1011_nh.bmp
189.36	0.72	254	1	7	122	mem	con	low	low	mod	nt	ms	nh/0475_nh.bmp
190.08	0.72	255	2	8	122	per	lib	low	mod	low	tg	ms	wh/0241.bmp
190.80	0.72	256	3	6	79	mem	con	mod	mod	mod	tg	ht	wh/0300.bmp
191.52	0.72	257	2	8	30	mem	con	mod	mod	low	tg	ms	wh/0064.bmp
192.24	0.72	258	1	7	42	per	lib	low	low	low	tg	ht	wh/0566.bmp
192.96	0.72	259	3	5	43	mem	con	mod	mod	low	tg	ht	wh/0255.bmp
193.68	0.72	260	2	6	62	mem	lib	mod	mod	mod	tg	ms	wh/0968.bmp
194.40	0.72	261	3	7	92	per	con	mod	mod	mod	tg	ht	wh/0764.bmp
195.12	0.72	262	3	8	107	mem	lib	mod	mod	low	nt	ms	nh/1019_nh.bmp
195.84	0.72	263	1	8	128	per	lib	low	mod	low	nt	cr	nh/0582_nh.bmp
196.56	0.72	264	3	8	17	mem	con	mod	mod	low	nt	ht	nh/0780_nh.bmp
197.28	0.72	265	5	8	55	per	lib	mod	mod	mod	nt	cr	nh/0599_nh.bmp
198.00	0.72	266	3	5	51	per	con	mod	mod	mod	tg	ms	wh/0441.bmp
198.72	0.72	267	2	5	21	mem	lib	mod	mod	low	nt	ht	nh/0249_nh.bmp
199.44	0.72	268	3	5	89	per	lib	low	mod	low	nt	fa	nh/0394_nh.bmp
200.16	0.72	269	2	8	32	mem	con	mod	mod	low	tg	ht	wh/1014.bmp
200.88	0.72	270	2	8	110	mem	lib	mod	mod	low	nt	ms	nh/0170_nh.bmp
201.60	0.72	271	3	7	70	mem	lib	mod	mod	mod	tg	ms	wh/0717.bmp
202.32	0.72	272	2	5	114	per	con	low	mod	low	tg	ms	wh/0863.bmp
203.04	0.72	273	4	7	79	mem	lib	mod	mod	mod	nt	ht	nh/0239_nh.bmp
203.76	0.72	274	2	6	50	mem	lib	mod	mod	mod	nt	ht	nh/0275_nh.bmp
204.48	0.72	275	1	6	30	mem	lib	low	low	low	tg	ht	wh/0022.bmp
205.20	0.72	276	1	5	48	mem	con	mod	mod	low	tg	ms	wh/0939.bmp
205.92	0.72	277	2	5	128	per	con	low	mod	low	tg	ht	wh/0519.bmp
206.64	0.72	278	3	7	77	mem	lib	mod	mod	mod	nt	ht	nh/0694_nh.bmp
207.36	0.72	279	2	5	48	mem	con	mod	mod	low	tg	ms	wh/0939.bmp
208.08	0.72	280	3	5	46	mem	con	mod	mod	low	tg	ms	wh/0042.bmp
208.80	0.72	281	3	6	73	mem	con	mod	mod	mod	nt	ht	nh/0763_nh.bmp
209.52	0.72	282	3	8	35	per	con	low	mod	low	nt	cr	nh/0403_nh.bmp
210.24	0.72	283	1	7	66	mem	lib	mod	mod	mod	tg	ht	wh/0952.bmp
210.96	0.72	284	3	8	44	per	con	low	mod	low	tg	ms	wh/0374.bmp
211.68	0.72	285	4	5	34	mem	con	mod	mod	low	tg	ht	wh/0848.bmp
212.40	0.72	286	4	5	54	per	con	mod	mod	mod	tg	ms	wh/0294.bmp
213.12	0.72	287	2	6	16	per	lib	mod	mod	mod	nt	fa	nh/0735_nh.bmp
213.84	0.72	288	2	7	88	per	con	mod	mod	mod	tg	ms	wh/0715.bmp
214.56	0.72	289	1	8	101	mem	lib	mod	mod	low	tg	ht	wh/0618.bmp
215.28	0.72	290	1	7	24	mem	con	mod	mod	mod	tg	ms	wh/0056.bmp
216.00	0.72	291	1	7	52	per	lib	mod	low	mod	nt	fa	nh/0207_nh.bmp
216.72	0.72	292	3	5	117	per	con	low	mod	low	nt	cr	nh/0883_nh.bmp
217.44	0.72	293	1	7	32	mem	con	mod	mod	mod	tg	ht	wh/0366.bmp
218.16	0.72	294	3	8	36	per	con	low	mod	low	nt	fa	nh/0746_nh.bmp
218.88	0.72	295	4	8	17	mem	con	mod	mod	low	nt	ht	nh/0780_nh.bmp
219.60	0.72	296	2	8	102	mem	lib	mod	mod	low	tg	ht	wh/0018.bmp
220.32	0.72	297	1	8	23	mem	con	mod	mod	low	tg	ht	wh/0640.bmp
221.04	0.72	298	2	5	18	mem	lib	mod	mod	low	tg	ht	wh/0734.bmp
221.76	0.72	299	1	8	98	mem	lib	mod	mod	low	nt	ms	nh/0986_nh.bmp
222.48	0.72	300	1	6	105	per	con	mod	low	mod	tg	ht	wh/0673.bmp
223.20	0.72	301	1	6	34	per	lib	low	low	low	tg	ht	wh/0865.bmp
223.92	0.72	302	1	5	6	per	lib	mod	low	mod	tg	ht	wh/0982.bmp
224.64	0.72	303	1	7	65	mem	lib	mod	mod	mod	nt	ht	nh/0603_nh.bmp
225.36	0.72	304	2	8	127	per	lib	low	mod	low	tg	ht	wh/1004.bmp
226.08	0.72	305	2	8	124	per	lib	low	mod	low	tg	ms	wh/0574.bmp
226.80	0.72	306	3	5	21	mem	lib	mod	mod	low	nt	ht	nh/0249_nh.bmp
227.52	0.72	307	1	7	59	per	lib	mod	low	mod	tg	ht	wh/0749.bmp
228.24	0.72	308	2	5	38	mem	con	mod	mod	low	nt	ht	nh/0450_nh.bmp
228.96	0.72	309	3	5	38	mem	con	mod	mod	low	nt	ht	nh/0450_nh.bmp
229.68	0.72	310	1	6	46	per	lib	low	low	low	nt	cr	nh/0258_nh.bmp
230.40	0.72	311	2	8	53	per	lib	mod	mod	mod	tg	ht	wh/0623.bmp
231.12	0.72	312	4	8	35	per	con	low	mod	low	nt	cr	nh/0403_nh.bmp
231.84	0.72	313	2	8	98	mem	lib	mod	mod	low	nt	ms	nh/0986_nh.bmp
232.56	0.72	314	3	8	98	mem	lib	mod	mod	low	nt	ms	nh/0986_nh.bmp
233.28	0.72	315	2	5	83	per	lib	low	mod	low	nt	fa	nh/0453_nh.bmp
234.00	0.72	316	3	8	51	per	lib	mod	mod	mod	tg	ht	wh/0995.bmp
234.72	0.72	317	3	8	53	per	lib	mod	mod	mod	tg	ht	wh/0623.bmp
235.44	0.72	318	2	7	73	mem	lib	mod	mod	mod	nt	ht	nh/0556_nh.bmp
236.16	0.72	319	3	8	45	per	con	low	mod	low	tg	ms	wh/0165.bmp
236.88	0.72	320	3	8	110	mem	lib	mod	mod	low	nt	ms	nh/0170_nh.bmp
237.60	0.72	321	2	8	128	per	lib	low	mod	low	nt	cr	nh/0582_nh.bmp
238.32	0.72	322	2	6	70	mem	con	mod	mod	mod	nt	ht	nh/0552_nh.bmp
239.04	0.72	323	2	7	66	mem	lib	mod	mod	mod	tg	ht	wh/0952.bmp
239.76	0.72	324	3	5	128	per	con	low	mod	low	tg	ht	wh/0519.bmp
240.48	0.72	325	4	7	87	per	con	mod	mod	mod	nt	cr	nh/0871_nh.bmp
241.20	0.72	326	3	6	6	per	lib	mod	mod	mod	tg	ht	wh/0086.bmp
241.92	0.72	327	3	8	100	mem	lib	mod	mod	low	tg	ht	wh/0678.bmp
242.64	0.72	328	1	6	76	mem	con	mod	mod	mod	tg	ht	wh/0586.bmp
243.36	0.72	329	4	7	30	mem	con	mod	mod	mod	nt	ms	nh/0549_nh.bmp
244.08	0.72	330	2	7	81	per	con	mod	mod	mod	tg	ht	wh/0495.bmp
244.80	0.72	331	3	6	16	per	lib	mod	mod	mod	nt	fa	nh/0735_nh.bmp
245.52	0.72	332	3	6	5	per	lib	mod	mod	mod	nt	cr	nh/0778_nh.bmp
246.24	0.72	333	2	8	97	mem	lib	mod	mod	low	nt	ht	nh/0892_nh.bmp
246.96	0.72	334	5	5	33	mem	con	mod	mod	low	nt	ms	nh/0172_nh.bmp
247.68	0.72	335	3	8	122	per	lib	low	mod	low	tg	ms	wh/0241.bmp
248.40	0.72	336	5	7	93	per	con	mod	mod	mod	nt	cr	nh/0269_nh.bmp
249.12	0.72	337	1	7	49	per	lib	mod	low	mod	tg	ms	wh/0907.bmp
249.84	0.72	338	3	5	81	per	lib	low	mod	low	nt	cr	nh/0756_nh.bmp
250.56	0.72	339	4	8	22	mem	con	mod	mod	low	nt	ht	nh/0254_nh.bmp
251.28	0.72	340	3	5	116	per	con	low	mod	low	nt	cr	nh/0297_nh.bmp
252.00	0.72	341	3	8	118	per	lib	low	mod	low	tg	ms	wh/0875.bmp
252.72	0.72	342	2	6	60	mem	lib	mod	mod	mod	nt	ms	nh/0638_nh.bmp
253.44	0.72	343	4	8	122	per	lib	low	mod	low	tg	ms	wh/0241.bmp
254.16	0.72	344	3	8	97	mem	lib	mod	mod	low	nt	ht	nh/0892_nh.bmp
254.88	0.72	345	4	5	43	mem	con	mod	mod	low	tg	ht	wh/0255.bmp
255.60	0.72	346	3	5	60	per	con	mod	mod	mod	tg	ht	wh/0060.bmp
256.32	0.72	347	2	7	25	mem	con	mod	mod	mod	tg	ht	wh/0629.bmp
257.04	0.72	348	2	5	23	mem	lib	mod	mod	low	tg	ht	wh/0164.bmp
257.76	0.72	349	2	5	119	per	con	low	mod	low	nt	cr	nh/0253_nh.bmp
258.48	0.72	350	2	5	20	mem	lib	mod	mod	low	nt	ms	nh/0143_nh.bmp
259.20	0.72	351	3	7	66	mem	lib	mod	mod	mod	tg	ht	wh/0952.bmp
259.92	0.72	352	3	6	70	mem	con	mod	mod	mod	nt	ht	nh/0552_nh.bmp
260.64	0.72	353	2	7	68	mem	lib	mod	mod	mod	tg	ht	wh/0378.bmp
261.36	0.72	354	2	8	38	per	con	low	mod	low	tg	ht	wh/0193.bmp
262.08	0.72	355	1	6	45	per	lib	low	low	low	nt	fa	nh/1015_nh.bmp
262.80	0.72	356	1	8	39	per	con	low	mod	low	nt	cr	nh/0118_nh.bmp
263.52	0.72	357	3	8	124	per	lib	low	mod	low	tg	ms	wh/0574.bmp
264.24	0.72	358	3	5	83	per	lib	low	mod	low	nt	fa	nh/0453_nh.bmp
264.96	0.72	359	3	7	25	mem	con	mod	mod	mod	tg	ht	wh/0629.bmp
265.68	0.72	360	4	8	51	per	lib	mod	mod	mod	tg	ht	wh/0995.bmp
266.40	0.72	361	4	5	95	per	lib	low	mod	low	nt	cr	nh/0401_nh.bmp
267.12	0.72	362	3	8	114	per	lib	low	mod	low	nt	cr	nh/0820_nh.bmp
267.84	0.72	363	1	8	87	mem	con	low	low	low	tg	ms	wh/0175.bmp
268.56	0.72	364	4	5	81	per	lib	low	mod	low	nt	cr	nh/0756_nh.bmp
269.28	0.72	365	2	7	32	mem	con	mod	mod	mod	tg	ht	wh/0366.bmp
270.00	0.72	366	4	8	124	per	lib	low	mod	low	tg	ms	wh/0574.bmp
270.72	0.72	367	4	8	107	mem	lib	mod	mod	low	nt	ms	nh/1019_nh.bmp
271.44	0.72	368	2	6	13	per	lib	mod	mod	mod	nt	cr	nh/0385_nh.bmp
272.16	0.72	369	1	7	53	per	lib	mod	low	mod	tg	ht	wh/0545.bmp
272.88	0.72	370	1	5	8	per	lib	mod	low	mod	nt	cr	nh/0305_nh.bmp
273.60	0.72	371	1	6	42	per	lib	low	low	low	nt	cr	nh/0482_nh.bmp
274.32	0.72	372	5	5	95	per	lib	low	mod	low	nt	cr	nh/0401_nh.bmp
275.04	0.72	373	6	5	33	mem	con	mod	mod	low	nt	ms	nh/0172_nh.bmp
275.76	0.72	374	4	5	128	per	con	low	mod	low	tg	ht	wh/0519.bmp
276.48	0.72	375	4	5	83	per	lib	low	mod	low	nt	fa	nh/0453_nh.bmp
277.20	0.72	376	4	7	92	per	con	mod	mod	mod	tg	ht	wh/0764.bmp
277.92	0.72	377	4	8	97	mem	lib	mod	mod	low	nt	ht	nh/0892_nh.bmp
278.64	0.72	378	5	5	83	per	lib	low	mod	low	nt	fa	nh/0453_nh.bmp
279.36	0.72	379	1	8	79	per	con	mod	low	mod	tg	ht	wh/1008.bmp
280.08	0.72	380	1	5	102	mem	lib	low	low	mod	tg	ht	wh/0980.bmp
280.80	0.72	381	2	5	94	per	lib	low	mod	low	tg	ms	wh/0248.bmp
281.52	0.72	382	4	5	89	per	lib	low	mod	low	nt	fa	nh/0394_nh.bmp
282.24	0.72	383	1	7	108	mem	lib	low	low	mod	tg	ht	wh/0779.bmp
282.96	0.72	384	1	6	11	per	lib	mod	mod	mod	nt	fa	nh/0399_nh.bmp
283.68	0.72	385	3	6	3	per	lib	mod	mod	mod	tg	ht	wh/0318.bmp
284.40	0.72	386	2	7	85	per	con	mod	mod	mod	nt	cr	nh/0602_nh.bmp
285.12	0.72	387	4	8	126	per	lib	low	mod	low	nt	cr	nh/0491_nh.bmp
285.84	0.72	388	1	6	22	mem	lib	low	low	low	nt	ht	nh/0516_nh.bmp
286.56	0.72	389	3	6	13	per	lib	mod	mod	mod	nt	cr	nh/0385_nh.bmp
287.28	0.72	390	3	7	85	per	con	mod	mod	mod	nt	cr	nh/0602_nh.bmp
288.00	0.72	391	2	8	43	per	con	low	mod	low	nt	fa	nh/0793_nh.bmp
288.72	0.72	392	3	5	20	mem	lib	mod	mod	low	nt	ms	nh/0143_nh.bmp
289.44	0.72	393	3	7	68	mem	lib	mod	mod	mod	tg	ht	wh/0378.bmp
290.16	0.72	394	3	5	48	mem	con	mod	mod	low	tg	ms	wh/0939.bmp
290.88	0.72	395	5	7	87	per	con	mod	mod	mod	nt	cr	nh/0871_nh.bmp
291.60	0.72	396	4	5	117	per	con	low	mod	low	nt	cr	nh/0883_nh.bmp
292.32	0.72	397	3	8	127	per	lib	low	mod	low	tg	ht	wh/1004.bmp
293.04	0.72	398	3	8	102	mem	lib	mod	mod	low	tg	ht	wh/0018.bmp
293.76	0.72	399	5	8	60	per	lib	mod	mod	mod	tg	ht	wh/0560.bmp
294.48	0.72	400	3	5	26	mem	lib	mod	mod	low	tg	ht	wh/0247.bmp
295.20	0.72	401	1	7	125	mem	con	low	low	mod	tg	ht	wh/0051.bmp
295.92	0.72	402	2	5	22	mem	lib	mod	mod	low	nt	ms	nh/0108_nh.bmp
296.64	0.72	403	4	6	5	per	lib	mod	mod	mod	nt	cr	nh/0778_nh.bmp
297.36	0.72	404	2	8	59	per	lib	mod	mod	mod	nt	fa	nh/0408_nh.bmp
298.08	0.72	405	1	6	99	per	con	mod	low	mod	nt	cr	nh/0342_nh.bmp
298.80	0.72	406	3	6	60	mem	lib	mod	mod	mod	nt	ms	nh/0638_nh.bmp
299.52	0.72	407	1	7	15	per	con	low	low	low	nt	cr	nh/0063_nh.bmp
300.24	0.72	408	1	6	89	mem	con	low	low	mod	nt	ms	nh/0349_nh.bmp
300.96	0.72	409	4	8	53	per	lib	mod	mod	mod	tg	ht	wh/0623.bmp
301.68	0.72	410	3	7	81	per	con	mod	mod	mod	tg	ht	wh/0495.bmp
302.40	0.72	411	4	5	21	mem	lib	mod	mod	low	nt	ht	nh/0249_nh.bmp
303.12	0.72	412	4	6	3	per	lib	mod	mod	mod	tg	ht	wh/0318.bmp
303.84	0.72	413	3	8	38	per	con	low	mod	low	tg	ht	wh/0193.bmp
304.56	0.72	414	1	8	5	mem	lib	low	low	low	nt	ht	nh/0770_nh.bmp
305.28	0.72	415	3	5	64	per	con	mod	mod	mod	nt	cr	nh/0546_nh.bmp
306.00	0.72	416	5	7	92	per	con	mod	mod	mod	tg	ht	wh/0764.bmp
306.72	0.72	417	1	6	104	per	con	mod	low	mod	nt	cr	nh/0091_nh.bmp
307.44	0.72	418	4	8	100	mem	lib	mod	mod	low	tg	ht	wh/0678.bmp
308.16	0.72	419	3	5	114	per	con	low	mod	low	tg	ms	wh/0863.bmp
308.88	0.72	420	2	5	27	mem	lib	mod	mod	low	nt	ht	nh/0262_nh.bmp
309.60	0.72	421	4	5	60	per	con	mod	mod	mod	tg	ht	wh/0060.bmp
310.32	0.72	422	2	5	61	per	con	mod	mod	mod	nt	cr	nh/0686_nh.bmp
311.04	0.72	423	4	5	114	per	con	low	mod	low	tg	ms	wh/0863.bmp
311.76	0.72	424	4	6	80	mem	con	mod	mod	mod	tg	ms	wh/0852.bmp
312.48	0.72	425	1	6	47	per	lib	low	low	low	nt	fa	nh/0154_nh.bmp
313.20	0.72	426	3	7	73	mem	lib	mod	mod	mod	nt	ht	nh/0556_nh.bmp
313.92	0.72	427	5	5	54	per	con	mod	mod	mod	tg	ms	wh/0294.bmp
314.64	0.72	428	5	6	3	per	lib	mod	mod	mod	tg	ht	wh/0318.bmp
315.36	0.72	429	4	7	17	mem	con	mod	mod	mod	nt	ht	nh/0436_nh.bmp
316.08	0.72	430	5	6	5	per	lib	mod	mod	mod	nt	cr	nh/0778_nh.bmp
316.80	0.72	431	3	8	27	mem	con	mod	mod	low	nt	ht	nh/0012_nh.bmp
317.52	0.72	432	3	5	121	per	con	low	mod	low	nt	cr	nh/0157_nh.bmp
318.24	0.72	433	5	5	128	per	con	low	mod	low	tg	ht	wh/0519.bmp
318.96	0.72	434	1	7	105	mem	lib	low	low	mod	nt	ht	nh/0093_nh.bmp
319.68	0.72	435	3	8	128	per	lib	low	mod	low	nt	cr	nh/0582_nh.bmp
320.40	0.72	436	1	6	52	mem	lib	mod	mod	mod	tg	ht	wh/0915.bmp
321.12	0.72	437	4	6	16	per	lib	mod	mod	mod	nt	fa	nh/0735_nh.bmp
321.84	0.72	438	4	8	44	per	con	low	mod	low	tg	ms	wh/0374.bmp
322.56	0.72	439	5	8	122	per	lib	low	mod	low	tg	ms	wh/0241.bmp
323.28	0.72	440	2	8	23	mem	con	mod	mod	low	tg	ht	wh/0640.bmp
324.00	0.72	441	2	8	61	per	lib	mod	mod	mod	nt	cr	nh/0797_nh.bmp
324.72	0.72	442	4	8	36	per	con	low	mod	low	nt	fa	nh/0746_nh.bmp
325.44	0.72	443	2	6	54	mem	lib	mod	mod	mod	nt	ms	nh/0821_nh.bmp
326.16	0.72	444	4	7	81	per	con	mod	mod	mod	tg	ht	wh/0495.bmp
326.88	0.72	445	1	7	118	mem	con	low	low	mod	nt	ht	nh/0037_nh.bmp
327.60	0.72	446	3	8	111	mem	lib	mod	mod	low	tg	ht	wh/0023.bmp
328.32	0.72	447	4	8	118	per	lib	low	mod	low	tg	ms	wh/0875.bmp
329.04	0.72	448	1	8	88	mem	con	low	low	low	nt	ms	nh/0676_nh.bmp
329.76	0.72	449	2	6	52	mem	lib	mod	mod	mod	tg	ht	wh/0915.bmp
330.48	0.72	450	2	6	76	mem	con	mod	mod	mod	tg	ht	wh/0586.bmp
331.20	0.72	451	4	8	102	mem	lib	mod	mod	low	tg	ht	wh/0018.bmp
331.92	0.72	452	4	6	57	mem	lib	mod	mod	mod	tg	ht	wh/0827.bmp
332.64	0.72	453	1	6	31	mem	lib	low	low	low	tg	ht	wh/0198.bmp
333.36	0.72	454	3	5	125	per	con	low	mod	low	tg	ms	wh/0024.bmp
334.08	0.72	455	4	8	123	per	lib	low	mod	low	nt	cr	nh/0073_nh.bmp
334.80	0.72	456	1	8	1	mem	lib	low	low	low	nt	ms	nh/0181_nh.bmp
335.52	0.72	457	3	5	61	per	con	mod	mod	mod	nt	cr	nh/0686_nh.bmp
336.24	0.72	458	3	7	88	per	con	mod	mod	mod	tg	ms	wh/0715.bmp
336.96	0.72	459	6	7	87	per	con	mod	mod	mod	nt	cr	nh/0871_nh.bmp
337.68	0.72	460	1	6	95	mem	con	low	low	mod	tg	ht	wh/0921.bmp
338.40	0.72	461	1	5	98	mem	lib	low	low	mod	tg	ms	wh/0373.bmp
339.12	0.72	462	1	7	115	mem	con	low	low	mod	nt	ht	nh/1005_nh.bmp
339.84	0.72	463	1	8	4	mem	lib	low	low	low	nt	ht	nh/0240_nh.bmp
340.56	0.72	464	5	8	126	per	lib	low	mod	low	nt	cr	nh/0491_nh.bmp
341.28	0.72	465	3	6	52	mem	lib	mod	mod	mod	tg	ht	wh/0915.bmp
342.00	0.72	466	3	5	22	mem	lib	mod	mod	low	nt	ms	nh/0108_nh.bmp
342.72	0.72	467	3	6	77	mem	con	mod	mod	mod	nt	ms	nh/0544_nh.bmp
343.44	0.72	468	3	7	71	mem	lib	mod	mod	mod	tg	ht	wh/0020.bmp
344.16	0.72	469	1	5	66	mem	con	low	low	low	tg	ht	wh/0506.bmp
344.88	0.72	470	1	6	118	per	con	low	low	low	tg	ms	wh/0994.bmp
345.60	0.72	471	4	5	22	mem	lib	mod	mod	low	nt	ms	nh/0108_nh.bmp
346.32	0.72	472	5	5	114	per	con	low	mod	low	tg	ms	wh/0863.bmp
347.04	0.72	473	3	8	32	mem	con	mod	mod	low	tg	ht	wh/1014.bmp
347.76	0.72	474	4	8	20	mem	con	mod	mod	low	nt	ht	nh/0139_nh.bmp
348.48	0.72	475	5	8	36	per	con	low	mod	low	nt	fa	nh/0746_nh.bmp
349.20	0.72	476	5	8	17	mem	con	mod	mod	low	nt	ht	nh/0780_nh.bmp
349.92	0.72	477	3	6	54	mem	lib	mod	mod	mod	nt	ms	nh/0821_nh.bmp
350.64	0.72	478	4	5	59	per	con	mod	mod	mod	nt	cr	nh/0420_nh.bmp
351.36	0.72	479	4	5	26	mem	lib	mod	mod	low	tg	ht	wh/0247.bmp
352.08	0.72	480	3	8	61	per	lib	mod	mod	mod	nt	cr	nh/0797_nh.bmp
352.80	0.72	481	2	5	45	mem	con	mod	mod	low	nt	ms	nh/0521_nh.bmp
353.52	0.72	482	2	5	88	per	lib	low	mod	low	tg	ms	wh/0814.bmp
354.24	0.72	483	4	8	27	mem	con	mod	mod	low	nt	ht	nh/0012_nh.bmp
354.96	0.72	484	4	8	111	mem	lib	mod	mod	low	tg	ht	wh/0023.bmp
355.68	0.72	485	4	6	73	mem	con	mod	mod	mod	nt	ht	nh/0763_nh.bmp
356.40	0.72	486	4	8	45	per	con	low	mod	low	tg	ms	wh/0165.bmp
357.12	0.72	487	1	8	8	mem	lib	low	low	low	tg	ht	wh/0005.bmp
357.84	0.72	488	5	5	60	per	con	mod	mod	mod	tg	ht	wh/0060.bmp
358.56	0.72	489	5	8	111	mem	lib	mod	mod	low	tg	ht	wh/0023.bmp
359.28	0.72	490	5	8	22	mem	con	mod	mod	low	nt	ht	nh/0254_nh.bmp
360.00	0.72	491	1	5	101	mem	lib	low	low	mod	nt	ht	nh/0402_nh.bmp
360.72	0.72	492	5	6	73	mem	con	mod	mod	mod	nt	ht	nh/0763_nh.bmp
361.44	0.72	493	4	7	77	mem	lib	mod	mod	mod	nt	ht	nh/0694_nh.bmp
362.16	0.72	494	4	6	13	per	lib	mod	mod	mod	nt	cr	nh/0385_nh.bmp
362.88	0.72	495	5	8	107	mem	lib	mod	mod	low	nt	ms	nh/1019_nh.bmp
363.60	0.72	496	3	8	30	mem	con	mod	mod	low	tg	ms	wh/0064.bmp
364.32	0.72	497	3	5	18	mem	lib	mod	mod	low	tg	ht	wh/0734.bmp
365.04	0.72	498	3	8	40	per	con	low	mod	low	tg	ms	wh/0578.bmp
365.76	0.72	499	2	8	58	per	lib	mod	mod	mod	tg	ht	wh/0337.bmp
366.48	0.72	500	2	7	24	mem	con	mod	mod	mod	tg	ms	wh/0056.bmp
367.20	0.72	501	4	6	7	per	lib	mod	mod	mod	tg	ht	wh/0564.bmp
367.92	0.72	502	4	8	98	mem	lib	mod	mod	low	nt	ms	nh/0986_nh.bmp
368.64	0.72	503	4	7	70	mem	lib	mod	mod	mod	tg	ms	wh/0717.bmp
369.36	0.72	504	6	8	55	per	lib	mod	mod	mod	nt	cr	nh/0599_nh.bmp
370.08	0.72	505	1	7	48	per	lib	low	low	low	nt	cr	nh/0767_nh.bmp
370.80	0.72	506	4	6	6	per	lib	mod	mod	mod	tg	ht	wh/0086.bmp
371.52	0.72	507	5	6	57	mem	lib	mod	mod	mod	tg	ht	wh/0827.bmp
372.24	0.72	508	3	6	50	mem	lib	mod	mod	mod	nt	ht	nh/0275_nh.bmp
372.96	0.72	509	5	6	16	per	lib	mod	mod	mod	nt	fa	nh/0735_nh.bmp
373.68	0.72	510	3	5	56	per	con	mod	mod	mod	nt	cr	nh/0958_nh.bmp
374.40	0.72	511	3	5	23	mem	lib	mod	mod	low	tg	ht	wh/0164.bmp
375.12	0.72	512	5	8	123	per	lib	low	mod	low	nt	cr	nh/0073_nh.bmp
375.84	0.72	513	2	7	31	mem	con	mod	mod	mod	nt	ht	nh/0971_nh.bmp
376.56	0.72	514	3	5	45	mem	con	mod	mod	low	nt	ms	nh/0521_nh.bmp
377.28	0.72	515	5	5	21	mem	lib	mod	mod	low	nt	ht	nh/0249_nh.bmp
378.00	0.72	516	4	7	88	per	con	mod	mod	mod	tg	ms	wh/0715.bmp
378.72	0.72	517	4	8	61	per	lib	mod	mod	mod	nt	cr	nh/0797_nh.bmp
379.44	0.72	518	3	8	59	per	lib	mod	mod	mod	nt	fa	nh/0408_nh.bmp
380.16	0.72	519	4	5	116	per	con	low	mod	low	nt	cr	nh/0297_nh.bmp
380.88	0.72	520	5	8	27	mem	con	mod	mod	low	nt	ht	nh/0012_nh.bmp
381.60	0.72	521	5	8	45	per	con	low	mod	low	tg	ms	wh/0165.bmp
382.32	0.72	522	4	6	79	mem	con	mod	mod	mod	tg	ht	wh/0300.bmp
383.04	0.72	523	5	6	79	mem	con	mod	mod	mod	tg	ht	wh/0300.bmp
383.76	0.72	524	2	5	93	per	lib	low	mod	low	tg	ht	wh/0176.bmp
384.48	0.72	525	5	8	53	per	lib	mod	mod	mod	tg	ht	wh/0623.bmp
385.20	0.72	526	5	8	118	per	lib	low	mod	low	tg	ms	wh/0875.bmp
385.92	0.72	527	5	8	20	mem	con	mod	mod	low	nt	ht	nh/0139_nh.bmp
386.64	0.72	528	2	5	115	per	con	low	mod	low	tg	ms	wh/0612.bmp
387.36	0.72	529	3	5	58	per	con	mod	mod	mod	tg	ms	wh/0888.bmp
388.08	0.72	530	4	8	32	mem	con	mod	mod	low	tg	ht	wh/1014.bmp
388.80	0.72	531	5	5	59	per	con	mod	mod	mod	nt	cr	nh/0420_nh.bmp
389.52	0.72	532	1	8	74	per	con	mod	low	mod	nt	cr	nh/0532_nh.bmp
390.24	0.72	533	2	8	101	mem	lib	mod	mod	low	tg	ht	wh/0618.bmp
390.96	0.72	534	4	5	48	mem	con	mod	mod	low	tg	ms	wh/0939.bmp
391.68	0.72	535	1	8	94	mem	con	low	low	low	nt	ht	nh/0360_nh.bmp
392.40	0.72	536	2	6	11	per	lib	mod	mod	mod	nt	fa	nh/0399_nh.bmp
393.12	0.72	537	6	8	118	per	lib	low	mod	low	tg	ms	wh/0875.bmp
393.84	0.72	538	5	7	88	per	con	mod	mod	mod	tg	ms	wh/0715.bmp
394.56	0.72	539	4	5	64	per	con	mod	mod	mod	nt	cr	nh/0546_nh.bmp
395.28	0.72	540	3	5	88	per	lib	low	mod	low	tg	ms	wh/0814.bmp
396.00	0.72	541	6	8	107	mem	lib	mod	mod	low	nt	ms	nh/1019_nh.bmp
396.72	0.72	542	4	5	20	mem	lib	mod	mod	low	nt	ms	nh/0143_nh.bmp
397.44	0.72	543	3	8	43	per	con	low	mod	low	nt	fa	nh/0793_nh.bmp
398.16	0.72	544	4	8	38	per	con	low	mod	low	tg	ht	wh/0193.bmp
398.88	0.72	545	4	5	61	per	con	mod	mod	mod	nt	cr	nh/0686_nh.bmp
399.60	0.72	546	3	7	29	mem	con	mod	mod	mod	nt	ms	nh/0822_nh.bmp
400.32	0.72	547	6	5	54	per	con	mod	mod	mod	tg	ms	wh/0294.bmp
401.04	0.72	548	4	8	114	per	lib	low	mod	low	nt	cr	nh/0820_nh.bmp
401.76	0.72	549	4	5	18	mem	lib	mod	mod	low	tg	ht	wh/0734.bmp
402.48	0.72	550	5	5	34	mem	con	mod	mod	low	tg	ht	wh/0848.bmp
403.20	0.72	551	4	8	127	per	lib	low	mod	low	tg	ht	wh/1004.bmp
403.92	0.72	552	5	5	116	per	con	low	mod	low	nt	cr	nh/0297_nh.bmp
404.64	0.72	553	4	5	125	per	con	low	mod	low	tg	ms	wh/0024.bmp
405.36	0.72	554	3	7	24	mem	con	mod	mod	mod	tg	ms	wh/0056.bmp
406.08	0.72	555	3	6	12	per	lib	mod	mod	mod	tg	ms	wh/0835.bmp
406.80	0.72	556	5	6	80	mem	con	mod	mod	mod	tg	ms	wh/0852.bmp
407.52	0.72	557	3	6	11	per	lib	mod	mod	mod	nt	fa	nh/0399_nh.bmp
408.24	0.72	558	4	6	12	per	lib	mod	mod	mod	tg	ms	wh/0835.bmp
408.96	0.72	559	5	5	117	per	con	low	mod	low	nt	cr	nh/0883_nh.bmp
409.68	0.72	560	3	6	62	mem	lib	mod	mod	mod	tg	ms	wh/0968.bmp
410.40	0.72	561	4	5	121	per	con	low	mod	low	nt	cr	nh/0157_nh.bmp
411.12	0.72	562	5	6	68	mem	con	mod	mod	mod	nt	ht	nh/0978_nh.bmp
411.84	0.72	563	5	8	102	mem	lib	mod	mod	low	tg	ht	wh/0018.bmp
412.56	0.72	564	3	7	31	mem	con	mod	mod	mod	nt	ht	nh/0971_nh.bmp
413.28	0.72	565	4	7	73	mem	lib	mod	mod	mod	nt	ht	nh/0556_nh.bmp
414.00	0.72	566	3	5	115	per	con	low	mod	low	tg	ms	wh/0612.bmp
414.72	0.72	567	6	8	17	mem	con	mod	mod	low	nt	ht	nh/0780_nh.bmp
415.44	0.72	568	4	5	56	per	con	mod	mod	mod	nt	cr	nh/0958_nh.bmp
416.16	0.72	569	5	5	20	mem	lib	mod	mod	low	nt	ms	nh/0143_nh.bmp
416.88	0.72	570	4	6	52	mem	lib	mod	mod	mod	tg	ht	wh/0915.bmp
417.60	0.72	571	2	7	65	mem	lib	mod	mod	mod	nt	ht	nh/0603_nh.bmp
418.32	0.72	572	6	5	128	per	con	low	mod	low	tg	ht	wh/0519.bmp
419.04	0.72	573	4	5	58	per	con	mod	mod	mod	tg	ms	wh/0888.bmp
419.76	0.72	574	5	5	48	mem	con	mod	mod	low	tg	ms	wh/0939.bmp
420.48	0.72	575	3	8	101	mem	lib	mod	mod	low	tg	ht	wh/0618.bmp
421.20	0.72	576	5	5	22	mem	lib	mod	mod	low	nt	ms	nh/0108_nh.bmp
421.92	0.72	577	5	8	124	per	lib	low	mod	low	tg	ms	wh/0574.bmp
422.64	0.72	578	3	6	76	mem	con	mod	mod	mod	tg	ht	wh/0586.bmp
423.36	0.72	579	4	5	46	mem	con	mod	mod	low	tg	ms	wh/0042.bmp
424.08	0.72	580	2	8	39	per	con	low	mod	low	nt	cr	nh/0118_nh.bmp
424.80	0.72	581	4	8	101	mem	lib	mod	mod	low	tg	ht	wh/0618.bmp
425.52	0.72	582	4	7	31	mem	con	mod	mod	mod	nt	ht	nh/0971_nh.bmp
426.24	0.72	583	4	6	62	mem	lib	mod	mod	mod	tg	ms	wh/0968.bmp
426.96	0.72	584	4	6	11	per	lib	mod	mod	mod	nt	fa	nh/0399_nh.bmp
427.68	0.72	585	6	5	116	per	con	low	mod	low	nt	cr	nh/0297_nh.bmp
428.40	0.72	586	4	8	110	mem	lib	mod	mod	low	nt	ms	nh/0170_nh.bmp
429.12	0.72	587	2	6	59	mem	lib	mod	mod	mod	tg	ht	wh/0590.bmp
429.84	0.72	588	6	8	111	mem	lib	mod	mod	low	tg	ht	wh/0023.bmp
430.56	0.72	589	1	6	27	mem	lib	low	low	low	tg	ms	wh/0041.bmp
431.28	0.72	590	5	6	6	per	lib	mod	mod	mod	tg	ht	wh/0086.bmp
432.00	0.72	591	1	7	111	mem	lib	low	low	mod	tg	ms	wh/0869.bmp
432.72	0.72	592	5	7	81	per	con	mod	mod	mod	tg	ht	wh/0495.bmp
433.44	0.72	593	5	8	97	mem	lib	mod	mod	low	nt	ht	nh/0892_nh.bmp
434.16	0.72	594	1	6	114	per	con	low	low	low	nt	cr	nh/0518_nh.bmp
434.88	0.72	595	5	8	32	mem	con	mod	mod	low	tg	ht	wh/1014.bmp
435.60	0.72	596	5	8	38	per	con	low	mod	low	tg	ht	wh/0193.bmp
436.32	0.72	597	4	7	25	mem	con	mod	mod	mod	tg	ht	wh/0629.bmp
437.04	0.72	598	6	6	16	per	lib	mod	mod	mod	nt	fa	nh/0735_nh.bmp
437.76	0.72	599	5	8	100	mem	lib	mod	mod	low	tg	ht	wh/0678.bmp
438.48	0.72	600	6	8	27	mem	con	mod	mod	low	nt	ht	nh/0012_nh.bmp
439.20	0.72	601	4	6	77	mem	con	mod	mod	mod	nt	ms	nh/0544_nh.bmp
439.92	0.72	602	5	7	17	mem	con	mod	mod	mod	nt	ht	nh/0436_nh.bmp
440.64	0.72	603	4	7	29	mem	con	mod	mod	mod	nt	ms	nh/0822_nh.bmp
441.36	0.72	604	5	8	114	per	lib	low	mod	low	nt	cr	nh/0820_nh.bmp
442.08	0.72	605	5	6	77	mem	con	mod	mod	mod	nt	ms	nh/0544_nh.bmp
442.80	0.72	606	3	7	28	mem	con	mod	mod	mod	tg	ht	wh/0179.bmp
443.52	0.72	607	5	5	125	per	con	low	mod	low	tg	ms	wh/0024.bmp
444.24	0.72	608	3	8	39	per	con	low	mod	low	nt	cr	nh/0118_nh.bmp
444.96	0.72	609	5	8	44	per	con	low	mod	low	tg	ms	wh/0374.bmp
445.68	0.72	610	1	7	101	mem	lib	low	low	mod	tg	ht	wh/0308.bmp
446.40	0.72	611	1	8	2	mem	lib	low	low	low	tg	ht	wh/0144.bmp
447.12	0.72	612	5	5	18	mem	lib	mod	mod	low	tg	ht	wh/0734.bmp
447.84	0.72	613	5	6	12	per	lib	mod	mod	mod	tg	ms	wh/0835.bmp
448.56	0.72	614	1	6	107	per	con	mod	low	mod	nt	cr	nh/0084_nh.bmp
449.28	0.72	615	2	7	83	per	con	mod	mod	mod	tg	ht	wh/0851.bmp
450.00	0.72	616	4	5	23	mem	lib	mod	mod	low	tg	ht	wh/0164.bmp
450.72	0.72	617	6	5	48	mem	con	mod	mod	low	tg	ms	wh/0939.bmp
451.44	0.72	618	3	5	93	per	lib	low	mod	low	tg	ht	wh/0176.bmp
452.16	0.72	619	1	5	41	mem	con	mod	mod	low	nt	ht	nh/0388_nh.bmp
452.88	0.72	620	3	8	29	mem	con	mod	mod	low	tg	ms	wh/0111.bmp
453.60	0.72	621	5	6	7	per	lib	mod	mod	mod	tg	ht	wh/0564.bmp
454.32	0.72	622	4	8	128	per	lib	low	mod	low	nt	cr	nh/0582_nh.bmp
455.04	0.72	623	4	6	50	mem	lib	mod	mod	mod	nt	ht	nh/0275_nh.bmp
455.76	0.72	624	5	8	127	per	lib	low	mod	low	tg	ht	wh/1004.bmp
456.48	0.72	625	5	8	61	per	lib	mod	mod	mod	nt	cr	nh/0797_nh.bmp
457.20	0.72	626	6	8	61	per	lib	mod	mod	mod	nt	cr	nh/0797_nh.bmp
457.92	0.72	627	4	7	28	mem	con	mod	mod	mod	tg	ht	wh/0179.bmp
458.64	0.72	628	1	5	75	mem	con	low	low	low	tg	ms	wh/0587.bmp
459.36	0.72	629	4	7	68	mem	lib	mod	mod	mod	tg	ht	wh/0378.bmp
460.08	0.72	630	3	7	32	mem	con	mod	mod	mod	tg	ht	wh/0366.bmp
460.80	0.72	631	1	6	86	mem	con	low	low	mod	nt	ms	nh/0186_nh.bmp
461.52	0.72	632	5	6	50	mem	lib	mod	mod	mod	nt	ht	nh/0275_nh.bmp
462.24	0.72	633	6	8	102	mem	lib	mod	mod	low	tg	ht	wh/0018.bmp
462.96	0.72	634	6	5	22	mem	lib	mod	mod	low	nt	ms	nh/0108_nh.bmp
463.68	0.72	635	5	5	58	per	con	mod	mod	mod	tg	ms	wh/0888.bmp
464.40	0.72	636	6	5	34	mem	con	mod	mod	low	tg	ht	wh/0848.bmp
465.12	0.72	637	5	7	25	mem	con	mod	mod	mod	tg	ht	wh/0629.bmp
465.84	0.72	638	4	5	38	mem	con	mod	mod	low	nt	ht	nh/0450_nh.bmp
466.56	0.72	639	6	8	20	mem	con	mod	mod	low	nt	ht	nh/0139_nh.bmp
467.28	0.72	640	4	6	64	mem	lib	mod	mod	mod	nt	ht	nh/0666_nh.bmp
468.00	0.72	641	6	6	73	mem	con	mod	mod	mod	nt	ht	nh/0763_nh.bmp
468.72	0.72	642	6	6	50	mem	lib	mod	mod	mod	nt	ht	nh/0275_nh.bmp
469.44	0.72	643	4	8	29	mem	con	mod	mod	low	tg	ms	wh/0111.bmp
470.16	0.72	644	1	7	98	mem	lib	low	low	mod	nt	ht	nh/0188_nh.bmp
470.88	0.72	645	1	6	120	per	con	low	low	low	tg	ht	wh/0657.bmp
471.60	0.72	646	3	6	59	mem	lib	mod	mod	mod	tg	ht	wh/0590.bmp
472.32	0.72	647	4	8	39	per	con	low	mod	low	nt	cr	nh/0118_nh.bmp
473.04	0.72	648	5	6	52	mem	lib	mod	mod	mod	tg	ht	wh/0915.bmp
473.76	0.72	649	6	8	124	per	lib	low	mod	low	tg	ms	wh/0574.bmp
474.48	0.72	650	5	7	28	mem	con	mod	mod	mod	tg	ht	wh/0179.bmp
475.20	0.72	651	1	5	100	mem	lib	low	low	mod	tg	ms	wh/0688.bmp
475.92	0.72	652	3	7	65	mem	lib	mod	mod	mod	nt	ht	nh/0603_nh.bmp
476.64	0.72	653	6	8	122	per	lib	low	mod	low	tg	ms	wh/0241.bmp
477.36	0.72	654	6	5	83	per	lib	low	mod	low	nt	fa	nh/0453_nh.bmp
478.08	0.72	655	5	7	68	mem	lib	mod	mod	mod	tg	ht	wh/0378.bmp
478.80	0.72	656	3	5	27	mem	lib	mod	mod	low	nt	ht	nh/0262_nh.bmp
479.52	0.72	657	4	7	66	mem	lib	mod	mod	mod	tg	ht	wh/0952.bmp
480.24	0.72	658	6	7	92	per	con	mod	mod	mod	tg	ht	wh/0764.bmp
480.96	0.72	659	5	5	26	mem	lib	mod	mod	low	tg	ht	wh/0247.bmp
481.68	0.72	660	6	8	45	per	con	low	mod	low	tg	ms	wh/0165.bmp
482.40	0.72	661	4	7	24	mem	con	mod	mod	mod	tg	ms	wh/0056.bmp
483.12	0.72	662	3	5	119	per	con	low	mod	low	nt	cr	nh/0253_nh.bmp
483.84	0.72	663	6	5	59	per	con	mod	mod	mod	nt	cr	nh/0420_nh.bmp
484.56	0.72	664	4	8	40	per	con	low	mod	low	tg	ms	wh/0578.bmp
485.28	0.72	665	5	6	64	mem	lib	mod	mod	mod	nt	ht	nh/0666_nh.bmp
486.00	0.72	666	4	6	70	mem	con	mod	mod	mod	nt	ht	nh/0552_nh.bmp
486.72	0.72	667	4	5	115	per	con	low	mod	low	tg	ms	wh/0612.bmp
487.44	0.72	668	4	7	85	per	con	mod	mod	mod	nt	cr	nh/0602_nh.bmp
488.16	0.72	669	5	5	81	per	lib	low	mod	low	nt	cr	nh/0756_nh.bmp
488.88	0.72	670	2	5	41	mem	con	mod	mod	low	nt	ht	nh/0388_nh.bmp
489.60	0.72	671	5	5	38	mem	con	mod	mod	low	nt	ht	nh/0450_nh.bmp
490.32	0.72	672	2	8	62	per	lib	mod	mod	mod	nt	cr	nh/0833_nh.bmp
491.04	0.72	673	5	8	51	per	lib	mod	mod	mod	tg	ht	wh/0995.bmp
491.76	0.72	674	1	8	92	mem	con	low	low	low	tg	ms	wh/0138.bmp
492.48	0.72	675	4	5	51	per	con	mod	mod	mod	tg	ms	wh/0441.bmp
493.20	0.72	676	5	5	19	mem	lib	mod	mod	low	tg	ht	wh/0647.bmp
493.92	0.72	677	6	5	26	mem	lib	mod	mod	low	tg	ht	wh/0247.bmp
494.64	0.72	678	5	8	128	per	lib	low	mod	low	nt	cr	nh/0582_nh.bmp
495.36	0.72	679	3	8	62	per	lib	mod	mod	mod	nt	cr	nh/0833_nh.bmp
496.08	0.72	680	4	7	32	mem	con	mod	mod	mod	tg	ht	wh/0366.bmp
496.80	0.72	681	3	5	94	per	lib	low	mod	low	tg	ms	wh/0248.bmp
497.52	0.72	682	6	7	88	per	con	mod	mod	mod	tg	ms	wh/0715.bmp
498.24	0.72	683	3	5	84	per	lib	low	mod	low	tg	ht	wh/0114.bmp
498.96	0.72	684	6	5	58	per	con	mod	mod	mod	tg	ms	wh/0888.bmp
499.68	0.72	685	6	5	60	per	con	mod	mod	mod	tg	ht	wh/0060.bmp
500.40	0.72	686	5	5	43	mem	con	mod	mod	low	tg	ht	wh/0255.bmp
501.12	0.72	687	1	5	14	per	lib	mod	low	mod	tg	ms	wh/1002.bmp
501.84	0.72	688	5	5	89	per	lib	low	mod	low	nt	fa	nh/0394_nh.bmp
502.56	0.72	689	5	7	77	mem	lib	mod	mod	mod	nt	ht	nh/0694_nh.bmp
503.28	0.72	690	6	8	53	per	lib	mod	mod	mod	tg	ht	wh/0623.bmp
504.00	0.72	691	4	6	59	mem	lib	mod	mod	mod	tg	ht	wh/0590.bmp
504.72	0.72	692	6	8	128	per	lib	low	mod	low	nt	cr	nh/0582_nh.bmp
505.44	0.72	693	5	7	66	mem	lib	mod	mod	mod	tg	ht	wh/0952.bmp
506.16	0.72	694	6	7	25	mem	con	mod	mod	mod	tg	ht	wh/0629.bmp
506.88	0.72	695	4	6	60	mem	lib	mod	mod	mod	nt	ms	nh/0638_nh.bmp
507.60	0.72	696	6	6	57	mem	lib	mod	mod	mod	tg	ht	wh/0827.bmp
508.32	0.72	697	1	7	35	per	lib	low	low	low	tg	ht	wh/0268.bmp
509.04	0.72	698	5	5	56	per	con	mod	mod	mod	nt	cr	nh/0958_nh.bmp
509.76	0.72	699	4	8	62	per	lib	mod	mod	mod	nt	cr	nh/0833_nh.bmp
510.48	0.72	700	1	6	108	per	con	mod	low	mod	tg	ht	wh/0663.bmp
511.20	0.72	701	6	8	51	per	lib	mod	mod	mod	tg	ht	wh/0995.bmp
511.92	0.72	702	5	5	115	per	con	low	mod	low	tg	ms	wh/0612.bmp
512.64	0.72	703	5	5	61	per	con	mod	mod	mod	nt	cr	nh/0686_nh.bmp
513.36	0.72	704	5	7	85	per	con	mod	mod	mod	nt	cr	nh/0602_nh.bmp
514.08	0.72	705	5	8	98	mem	lib	mod	mod	low	nt	ms	nh/0986_nh.bmp
514.80	0.72	706	5	7	24	mem	con	mod	mod	mod	tg	ms	wh/0056.bmp
515.52	0.72	707	4	5	27	mem	lib	mod	mod	low	nt	ht	nh/0262_nh.bmp
516.24	0.72	708	5	5	46	mem	con	mod	mod	low	tg	ms	wh/0042.bmp
516.96	0.72	709	5	8	62	per	lib	mod	mod	mod	nt	cr	nh/0833_nh.bmp
517.68	0.72	710	6	8	97	mem	lib	mod	mod	low	nt	ht	nh/0892_nh.bmp
518.40	0.72	711	5	5	64	per	con	mod	mod	mod	nt	cr	nh/0546_nh.bmp
519.12	0.72	712	1	5	10	per	lib	mod	low	mod	nt	cr	nh/0221_nh.bmp
519.84	0.72	713	6	8	127	per	lib	low	mod	low	tg	ht	wh/1004.bmp
520.56	0.72	714	1	8	71	per	con	mod	low	mod	tg	ms	wh/0668.bmp
521.28	0.72	715	6	8	123	per	lib	low	mod	low	nt	cr	nh/0073_nh.bmp
522.00	0.72	716	1	6	48	per	lib	low	low	low	tg	ms	wh/0285.bmp
522.72	0.72	717	3	6	71	mem	con	mod	mod	mod	tg	ms	wh/0832.bmp
523.44	0.72	718	4	6	54	mem	lib	mod	mod	mod	nt	ms	nh/0821_nh.bmp
524.16	0.72	719	3	8	23	mem	con	mod	mod	low	tg	ht	wh/0640.bmp
524.88	0.72	720	6	7	85	per	con	mod	mod	mod	nt	cr	nh/0602_nh.bmp
525.60	0.72	721	5	7	32	mem	con	mod	mod	mod	tg	ht	wh/0366.bmp
526.32	0.72	722	5	8	35	per	con	low	mod	low	nt	cr	nh/0403_nh.bmp
527.04	0.72	723	6	8	38	per	con	low	mod	low	tg	ht	wh/0193.bmp
527.76	0.72	724	6	6	7	per	lib	mod	mod	mod	tg	ht	wh/0564.bmp
528.48	0.72	725	4	5	94	per	lib	low	mod	low	tg	ms	wh/0248.bmp
529.20	0.72	726	6	8	32	mem	con	mod	mod	low	tg	ht	wh/1014.bmp
529.92	0.72	727	3	8	58	per	lib	mod	mod	mod	tg	ht	wh/0337.bmp
530.64	0.72	728	1	8	10	mem	lib	low	low	low	tg	ht	wh/0639.bmp
531.36	0.72	729	5	6	70	mem	con	mod	mod	mod	nt	ht	nh/0552_nh.bmp
532.08	0.72	730	5	6	60	mem	lib	mod	mod	mod	nt	ms	nh/0638_nh.bmp
532.80	0.72	731	4	8	30	mem	con	mod	mod	low	tg	ms	wh/0064.bmp
533.52	0.72	732	6	6	60	mem	lib	mod	mod	mod	nt	ms	nh/0638_nh.bmp
534.24	0.72	733	1	8	65	per	con	mod	low	mod	nt	cr	nh/0559_nh.bmp
534.96	0.72	734	6	5	61	per	con	mod	mod	mod	nt	cr	nh/0686_nh.bmp
535.68	0.72	735	3	5	41	mem	con	mod	mod	low	nt	ht	nh/0388_nh.bmp
536.40	0.72	736	4	8	58	per	lib	mod	mod	mod	tg	ht	wh/0337.bmp
537.12	0.72	737	6	8	62	per	lib	mod	mod	mod	nt	cr	nh/0833_nh.bmp
537.84	0.72	738	5	7	73	mem	lib	mod	mod	mod	nt	ht	nh/0556_nh.bmp
538.56	0.72	739	5	7	31	mem	con	mod	mod	mod	nt	ht	nh/0971_nh.bmp
539.28	0.72	740	4	5	93	per	lib	low	mod	low	tg	ht	wh/0176.bmp
540.00	0.72	741	4	5	88	per	lib	low	mod	low	tg	ms	wh/0814.bmp
540.72	0.72	742	4	6	76	mem	con	mod	mod	mod	tg	ht	wh/0586.bmp
541.44	0.72	743	3	7	83	per	con	mod	mod	mod	tg	ht	wh/0851.bmp
542.16	0.72	744	1	7	41	per	lib	low	low	low	nt	fa	nh/0376_nh.bmp
542.88	0.72	745	6	7	68	mem	lib	mod	mod	mod	tg	ht	wh/0378.bmp
543.60	0.72	746	5	8	40	per	con	low	mod	low	tg	ms	wh/0578.bmp
544.32	0.72	747	6	5	20	mem	lib	mod	mod	low	nt	ms	nh/0143_nh.bmp
545.04	0.72	748	5	6	11	per	lib	mod	mod	mod	nt	fa	nh/0399_nh.bmp
545.76	0.72	749	6	5	89	per	lib	low	mod	low	nt	fa	nh/0394_nh.bmp
546.48	0.72	750	4	7	71	mem	lib	mod	mod	mod	tg	ht	wh/0020.bmp
547.20	0.72	751	6	5	46	mem	con	mod	mod	low	tg	ms	wh/0042.bmp
547.92	0.72	752	4	5	45	mem	con	mod	mod	low	nt	ms	nh/0521_nh.bmp
548.64	0.72	753	4	7	65	mem	lib	mod	mod	mod	nt	ht	nh/0603_nh.bmp
549.36	0.72	754	1	5	13	per	lib	mod	low	mod	nt	cr	nh/0372_nh.bmp
550.08	0.72	755	5	5	51	per	con	mod	mod	mod	tg	ms	wh/0441.bmp
550.80	0.72	756	6	8	60	per	lib	mod	mod	mod	tg	ht	wh/0560.bmp
551.52	0.72	757	1	8	91	mem	con	low	low	low	nt	ms	nh/0842_nh.bmp
552.24	0.72	758	4	6	71	mem	con	mod	mod	mod	tg	ms	wh/0832.bmp
552.96	0.72	759	5	8	39	per	con	low	mod	low	nt	cr	nh/0118_nh.bmp
553.68	0.72	760	5	8	101	mem	lib	mod	mod	low	tg	ht	wh/0618.bmp
554.40	0.72	761	4	5	119	per	con	low	mod	low	nt	cr	nh/0253_nh.bmp
555.12	0.72	762	6	6	52	mem	lib	mod	mod	mod	tg	ht	wh/0915.bmp
555.84	0.72	763	1	8	13	mem	lib	low	low	low	nt	ht	nh/0224_nh.bmp
556.56	0.72	764	5	7	94	per	con	mod	mod	mod	nt	cr	nh/0609_nh.bmp
557.28	0.72	765	4	5	84	per	lib	low	mod	low	tg	ht	wh/0114.bmp
558.00	0.72	766	1	6	115	per	con	low	low	low	nt	fa	nh/0636_nh.bmp
558.72	0.72	767	5	6	62	mem	lib	mod	mod	mod	tg	ms	wh/0968.bmp
559.44	0.72	768	6	8	40	per	con	low	mod	low	tg	ms	wh/0578.bmp
560.16	0.72	769	1	7	46	per	lib	low	low	low	nt	fa	nh/0352_nh.bmp
560.88	0.72	770	5	5	88	per	lib	low	mod	low	tg	ms	wh/0814.bmp
561.60	0.72	771	6	5	117	per	con	low	mod	low	nt	cr	nh/0883_nh.bmp
562.32	0.72	772	5	5	119	per	con	low	mod	low	nt	cr	nh/0253_nh.bmp
563.04	0.72	773	1	6	92	mem	con	low	low	mod	tg	ht	wh/0227.bmp
563.76	0.72	774	5	5	93	per	lib	low	mod	low	tg	ht	wh/0176.bmp
564.48	0.72	775	5	7	70	mem	lib	mod	mod	mod	tg	ms	wh/0717.bmp
565.20	0.72	776	6	7	17	mem	con	mod	mod	mod	nt	ht	nh/0436_nh.bmp
565.92	0.72	777	6	5	18	mem	lib	mod	mod	low	tg	ht	wh/0734.bmp
566.64	0.72	778	1	7	55	per	lib	mod	low	mod	nt	cr	nh/0837_nh.bmp
567.36	0.72	779	4	8	23	mem	con	mod	mod	low	tg	ht	wh/0640.bmp
568.08	0.72	780	5	8	23	mem	con	mod	mod	low	tg	ht	wh/0640.bmp
568.80	0.72	781	1	6	36	per	lib	low	low	low	tg	ms	wh/0136.bmp
569.52	0.72	782	6	6	80	mem	con	mod	mod	mod	tg	ms	wh/0852.bmp
570.24	0.72	783	6	7	31	mem	con	mod	mod	mod	nt	ht	nh/0971_nh.bmp
570.96	0.72	784	6	6	11	per	lib	mod	mod	mod	nt	fa	nh/0399_nh.bmp
571.68	0.72	785	5	8	29	mem	con	mod	mod	low	tg	ms	wh/0111.bmp
572.40	0.72	786	5	6	71	mem	con	mod	mod	mod	tg	ms	wh/0832.bmp
573.12	0.72	787	1	6	117	per	con	low	low	low	nt	cr	nh/0106_nh.bmp
573.84	0.72	788	5	7	71	mem	lib	mod	mod	mod	tg	ht	wh/0020.bmp
574.56	0.72	789	5	7	29	mem	con	mod	mod	mod	nt	ms	nh/0822_nh.bmp
575.28	0.72	790	6	5	88	per	lib	low	mod	low	tg	ms	wh/0814.bmp
576.00	0.72	791	6	8	29	mem	con	mod	mod	low	tg	ms	wh/0111.bmp
576.72	0.72	792	6	7	32	mem	con	mod	mod	mod	tg	ht	wh/0366.bmp
577.44	0.72	793	5	6	76	mem	con	mod	mod	mod	tg	ht	wh/0586.bmp
578.16	0.72	794	4	8	59	per	lib	mod	mod	mod	nt	fa	nh/0408_nh.bmp
578.88	0.72	795	6	6	71	mem	con	mod	mod	mod	tg	ms	wh/0832.bmp
579.60	0.72	796	5	5	27	mem	lib	mod	mod	low	nt	ht	nh/0262_nh.bmp
580.32	0.72	797	6	6	6	per	lib	mod	mod	mod	tg	ht	wh/0086.bmp
581.04	0.72	798	5	5	94	per	lib	low	mod	low	tg	ms	wh/0248.bmp
581.76	0.72	799	6	5	93	per	lib	low	mod	low	tg	ht	wh/0176.bmp
582.48	0.72	800	5	7	79	mem	lib	mod	mod	mod	nt	ht	nh/0239_nh.bmp
583.20	0.72	801	6	6	76	mem	con	mod	mod	mod	tg	ht	wh/0586.bmp
583.92	0.72	802	6	7	77	mem	lib	mod	mod	mod	nt	ht	nh/0694_nh.bmp
584.64	0.72	803	6	7	79	mem	lib	mod	mod	mod	nt	ht	nh/0239_nh.bmp
585.36	0.72	804	5	8	59	per	lib	mod	mod	mod	nt	fa	nh/0408_nh.bmp
586.08	0.72	805	5	5	45	mem	con	mod	mod	low	nt	ms	nh/0521_nh.bmp
586.80	0.72	806	6	6	64	mem	lib	mod	mod	mod	nt	ht	nh/0666_nh.bmp
587.52	0.72	807	4	7	83	per	con	mod	mod	mod	tg	ht	wh/0851.bmp
588.24	0.72	808	4	5	41	mem	con	mod	mod	low	nt	ht	nh/0388_nh.bmp
588.96	0.72	809	1	6	29	mem	lib	low	low	low	nt	ht	nh/0737_nh.bmp
589.68	0.72	810	1	5	71	mem	con	low	low	low	nt	ms	nh/0202_nh.bmp
590.40	0.72	811	6	5	45	mem	con	mod	mod	low	nt	ms	nh/0521_nh.bmp
591.12	0.72	812	1	6	126	per	con	low	low	low	tg	ms	wh/0034.bmp
591.84	0.72	813	6	7	24	mem	con	mod	mod	mod	tg	ms	wh/0056.bmp
592.56	0.72	814	6	8	22	mem	con	mod	mod	low	nt	ht	nh/0254_nh.bmp
593.28	0.72	815	6	6	3	per	lib	mod	mod	mod	tg	ht	wh/0318.bmp
594.00	0.72	816	1	5	99	mem	lib	low	low	mod	nt	ms	nh/1016_nh.bmp
594.72	0.72	817	6	8	100	mem	lib	mod	mod	low	tg	ht	wh/0678.bmp
595.44	0.72	818	6	7	73	mem	lib	mod	mod	mod	nt	ht	nh/0556_nh.bmp
596.16	0.72	819	5	5	23	mem	lib	mod	mod	low	tg	ht	wh/0164.bmp
596.88	0.72	820	6	5	38	mem	con	mod	mod	low	nt	ht	nh/0450_nh.bmp
597.60	0.72	821	5	5	84	per	lib	low	mod	low	tg	ht	wh/0114.bmp
598.32	0.72	822	6	5	56	per	con	mod	mod	mod	nt	cr	nh/0958_nh.bmp
599.04	0.72	823	5	5	121	per	con	low	mod	low	nt	cr	nh/0157_nh.bmp
599.76	0.72	824	6	5	94	per	lib	low	mod	low	tg	ms	wh/0248.bmp
600.48	0.72	825	5	7	83	per	con	mod	mod	mod	tg	ht	wh/0851.bmp
601.20	0.72	826	5	6	13	per	lib	mod	mod	mod	nt	cr	nh/0385_nh.bmp
601.92	0.72	827	1	7	100	mem	lib	low	low	mod	tg	ms	wh/0953.bmp
602.64	0.72	828	6	7	94	per	con	mod	mod	mod	nt	cr	nh/0609_nh.bmp
603.36	0.72	829	6	8	98	mem	lib	mod	mod	low	nt	ms	nh/0986_nh.bmp
604.08	0.72	830	5	6	59	mem	lib	mod	mod	mod	tg	ht	wh/0590.bmp
604.80	0.72	831	5	8	58	per	lib	mod	mod	mod	tg	ht	wh/0337.bmp
605.52	0.72	832	1	8	69	per	con	mod	low	mod	nt	cr	nh/0631_nh.bmp
606.24	0.72	833	6	6	77	mem	con	mod	mod	mod	nt	ms	nh/0544_nh.bmp
606.96	0.72	834	6	5	23	mem	lib	mod	mod	low	tg	ht	wh/0164.bmp
607.68	0.72	835	6	5	119	per	con	low	mod	low	nt	cr	nh/0253_nh.bmp
608.40	0.72	836	1	6	122	per	con	low	low	low	tg	ht	wh/0043.bmp
609.12	0.72	837	6	8	23	mem	con	mod	mod	low	tg	ht	wh/0640.bmp
609.84	0.72	838	6	6	13	per	lib	mod	mod	mod	nt	cr	nh/0385_nh.bmp
610.56	0.72	839	6	8	101	mem	lib	mod	mod	low	tg	ht	wh/0618.bmp
611.28	0.72	840	5	8	30	mem	con	mod	mod	low	tg	ms	wh/0064.bmp
612.00	0.72	841	6	6	59	mem	lib	mod	mod	mod	tg	ht	wh/0590.bmp
612.72	0.72	842	6	8	36	per	con	low	mod	low	nt	fa	nh/0746_nh.bmp
613.44	0.72	843	6	7	83	per	con	mod	mod	mod	tg	ht	wh/0851.bmp
614.16	0.72	844	6	7	93	per	con	mod	mod	mod	nt	cr	nh/0269_nh.bmp
614.88	0.72	845	5	6	54	mem	lib	mod	mod	mod	nt	ms	nh/0821_nh.bmp
615.60	0.72	846	6	5	27	mem	lib	mod	mod	low	nt	ht	nh/0262_nh.bmp
616.32	0.72	847	6	7	28	mem	con	mod	mod	mod	tg	ht	wh/0179.bmp
617.04	0.72	848	5	7	65	mem	lib	mod	mod	mod	nt	ht	nh/0603_nh.bmp
617.76	0.72	849	6	6	62	mem	lib	mod	mod	mod	tg	ms	wh/0968.bmp
618.48	0.72	850	4	8	43	per	con	low	mod	low	nt	fa	nh/0793_nh.bmp
619.20	0.72	851	6	5	51	per	con	mod	mod	mod	tg	ms	wh/0441.bmp
619.92	0.72	852	6	6	68	mem	con	mod	mod	mod	nt	ht	nh/0978_nh.bmp
620.64	0.72	853	6	6	54	mem	lib	mod	mod	mod	nt	ms	nh/0821_nh.bmp
621.36	0.72	854	6	5	64	per	con	mod	mod	mod	nt	cr	nh/0546_nh.bmp
622.08	0.72	855	5	8	43	per	con	low	mod	low	nt	fa	nh/0793_nh.bmp
622.80	0.72	856	6	8	114	per	lib	low	mod	low	nt	cr	nh/0820_nh.bmp
623.52	0.72	857	6	8	44	per	con	low	mod	low	tg	ms	wh/0374.bmp
624.24	0.72	858	6	7	29	mem	con	mod	mod	mod	nt	ms	nh/0822_nh.bmp
624.96	0.72	859	5	7	30	mem	con	mod	mod	mod	nt	ms	nh/0549_nh.bmp
625.68	0.72	860	1	7	36	per	lib	low	low	low	tg	ms	wh/0260.bmp
626.40	0.72	861	6	8	30	mem	con	mod	mod	low	tg	ms	wh/0064.bmp
627.12	0.72	862	6	6	12	per	lib	mod	mod	mod	tg	ms	wh/0835.bmp
627.84	0.72	863	6	8	58	per	lib	mod	mod	mod	tg	ht	wh/0337.bmp
628.56	0.72	864	6	8	35	per	con	low	mod	low	nt	cr	nh/0403_nh.bmp
629.28	0.72	865	6	7	65	mem	lib	mod	mod	mod	nt	ht	nh/0603_nh.bmp
630.00	0.72	866	6	5	121	per	con	low	mod	low	nt	cr	nh/0157_nh.bmp
630.72	0.72	867	6	6	5	per	lib	mod	mod	mod	nt	cr	nh/0778_nh.bmp
631.44	0.72	868	6	8	59	per	lib	mod	mod	mod	nt	fa	nh/0408_nh.bmp
632.16	0.72	869	6	7	30	mem	con	mod	mod	mod	nt	ms	nh/0549_nh.bmp
632.88	0.72	870	6	5	19	mem	lib	mod	mod	low	tg	ht	wh/0647.bmp
633.60	0.72	871	1	8	7	mem	lib	low	low	low	tg	ms	wh/0219.bmp
634.32	0.72	872	5	8	110	mem	lib	mod	mod	low	nt	ms	nh/0170_nh.bmp
635.04	0.72	873	1	7	110	mem	lib	low	low	mod	nt	ht	nh/0951_nh.bmp
635.76	0.72	874	1	7	106	mem	lib	low	low	mod	nt	ht	nh/0418_nh.bmp
636.48	0.72	875	6	8	43	per	con	low	mod	low	nt	fa	nh/0793_nh.bmp
637.20	0.72	876	6	5	125	per	con	low	mod	low	tg	ms	wh/0024.bmp
637.92	0.72	877	5	5	41	mem	con	mod	mod	low	nt	ht	nh/0388_nh.bmp
638.64	0.72	878	6	5	95	per	lib	low	mod	low	nt	cr	nh/0401_nh.bmp
639.36	0.72	879	1	6	33	per	lib	low	low	low	tg	ms	wh/0468.bmp
640.08	0.72	880	6	5	21	mem	lib	mod	mod	low	nt	ht	nh/0249_nh.bmp
640.80	0.72	881	6	6	79	mem	con	mod	mod	mod	tg	ht	wh/0300.bmp
641.52	0.72	882	6	5	41	mem	con	mod	mod	low	nt	ht	nh/0388_nh.bmp
642.24	0.72	883	6	7	70	mem	lib	mod	mod	mod	tg	ms	wh/0717.bmp
642.96	0.72	884	6	5	115	per	con	low	mod	low	tg	ms	wh/0612.bmp
643.68	0.72	885	6	5	84	per	lib	low	mod	low	tg	ht	wh/0114.bmp
644.40	0.72	886	6	7	66	mem	lib	mod	mod	mod	tg	ht	wh/0952.bmp
645.12	0.72	887	6	5	114	per	con	low	mod	low	tg	ms	wh/0863.bmp
645.84	0.72	888	6	5	43	mem	con	mod	mod	low	tg	ht	wh/0255.bmp
646.56	0.72	889	6	8	110	mem	lib	mod	mod	low	nt	ms	nh/0170_nh.bmp
647.28	0.72	890	6	6	70	mem	con	mod	mod	mod	nt	ht	nh/0552_nh.bmp
648.00	0.72	891	6	7	81	per	con	mod	mod	mod	tg	ht	wh/0495.bmp
648.72	0.72	892	6	7	71	mem	lib	mod	mod	mod	tg	ht	wh/0020.bmp
649.44	0.72	893	1	5	77	mem	con	low	low	low	tg	ht	wh/0147.bmp
650.16	0.72	894	6	8	126	per	lib	low	mod	low	nt	cr	nh/0491_nh.bmp
650.88	0.72	895	6	8	39	per	con	low	mod	low	nt	cr	nh/0118_nh.bmp
651.60	0.72	896	6	5	81	per	lib	low	mod	low	nt	cr	nh/0756_nh.bmp
