onset	duration	trial	pres	ts_blk	ts_trl	task	crit	disc	mem_disc	per_disc	per_type	accuracy	stim_file
7.20	0.72	1	1	err	err	err	err	err	err	err	err	err	wh/0182.bmp
7.92	0.72	2	1	5	37	mem	con	mod	mod	mod	tg	ht	wh/0716.bmp
8.64	0.72	3	1	6	14	per	lib	low	mod	low	tg	ht	wh/0029.bmp
9.36	0.72	4	1	7	36	per	con	low	mod	low	tg	ms	wh/0082.bmp
10.08	0.72	5	1	8	57	mem	lib	mod	mod	low	tg	ht	wh/0256.bmp
10.80	0.72	6	1	err	err	err	err	err	err	err	err	err	wh/0593.bmp
11.52	0.72	7	1	err	err	err	err	err	err	err	err	err	wh/0079.bmp
12.24	0.72	8	1	5	42	mem	con	mod	mod	mod	tg	ms	wh/0540.bmp
12.96	0.72	9	1	8	85	per	lib	low	mod	low	tg	ms	wh/0967.bmp
13.68	0.72	10	1	8	59	mem	lib	mod	mod	low	nt	ht	nh/0355_nh.bmp
14.40	0.72	11	1	7	94	mem	lib	mod	mod	mod	nt	ht	nh/0874_nh.bmp
15.12	0.72	12	1	8	84	per	lib	low	mod	low	tg	ht	wh/0190.bmp
15.84	0.72	13	1	err	err	err	err	err	err	err	err	err	nh/0510_nh.bmp
16.56	0.72	14	1	7	65	per	lib	mod	mod	mod	nt	fa	nh/0843_nh.bmp
17.28	0.72	15	1	err	err	err	err	err	err	err	err	err	nh/0957_nh.bmp
18.00	0.72	16	2	err	err	err	err	err	err	err	err	err	nh/0957_nh.bmp
18.72	0.72	17	1	err	err	err	err	err	err	err	err	err	nh/0708_nh.bmp
19.44	0.72	18	1	8	68	per	con	mod	mod	mod	nt	cr	nh/0684_nh.bmp
20.16	0.72	19	1	8	14	mem	con	low	low	mod	tg	ms	wh/0025.bmp
20.88	0.72	20	1	err	err	err	err	err	err	err	err	err	wh/0350.bmp
21.60	0.72	21	1	err	err	err	err	err	err	err	err	err	nh/0802_nh.bmp
22.32	0.72	22	1	err	err	err	err	err	err	err	err	err	wh/0150.bmp
23.04	0.72	23	1	6	112	mem	con	mod	mod	low	nt	ms	nh/0443_nh.bmp
23.76	0.72	24	1	8	97	mem	con	mod	mod	mod	nt	ms	nh/0196_nh.bmp
24.48	0.72	25	1	6	4	per	lib	low	mod	low	tg	ht	wh/0893.bmp
25.20	0.72	26	1	7	12	mem	con	mod	mod	low	nt	ms	nh/0660_nh.bmp
25.92	0.72	27	1	6	9	per	lib	low	mod	low	nt	fa	nh/0568_nh.bmp
26.64	0.72	28	1	6	13	per	lib	low	mod	low	tg	ht	wh/0489.bmp
27.36	0.72	29	1	err	err	err	err	err	err	err	err	err	wh/0462.bmp
28.08	0.72	30	1	8	77	per	con	mod	mod	mod	nt	cr	nh/0442_nh.bmp
28.80	0.72	31	1	7	99	per	con	mod	low	mod	tg	ms	wh/0626.bmp
29.52	0.72	32	1	8	74	per	con	mod	mod	mod	nt	cr	nh/0380_nh.bmp
30.24	0.72	33	1	7	70	per	lib	mod	mod	mod	nt	cr	nh/0588_nh.bmp
30.96	0.72	34	1	7	72	per	lib	mod	mod	mod	tg	ht	wh/0954.bmp
31.68	0.72	35	1	err	err	err	err	err	err	err	err	err	nh/0748_nh.bmp
32.40	0.72	36	1	err	err	err	err	err	err	err	err	err	wh/0947.bmp
33.12	0.72	37	1	6	23	mem	lib	low	low	low	nt	ht	nh/0768_nh.bmp
33.84	0.72	38	1	7	38	per	con	low	mod	low	nt	cr	nh/0123_nh.bmp
34.56	0.72	39	1	5	48	mem	con	mod	mod	mod	nt	ms	nh/0803_nh.bmp
35.28	0.72	40	1	8	86	per	lib	low	mod	low	nt	fa	nh/0465_nh.bmp
36.00	0.72	41	1	7	41	per	con	low	mod	low	tg	ms	wh/0608.bmp
36.72	0.72	42	1	8	100	mem	con	mod	mod	mod	nt	ms	nh/0714_nh.bmp
37.44	0.72	43	1	err	err	err	err	err	err	err	err	err	nh/0805_nh.bmp
38.16	0.72	44	2	8	68	per	con	mod	mod	mod	nt	cr	nh/0684_nh.bmp
38.88	0.72	45	2	err	err	err	err	err	err	err	err	err	wh/0947.bmp
39.60	0.72	46	1	err	err	err	err	err	err	err	err	err	nh/0528_nh.bmp
40.32	0.72	47	1	7	4	mem	con	mod	mod	low	tg	ms	wh/0080.bmp
41.04	0.72	48	1	6	108	mem	con	mod	mod	low	tg	ms	wh/0818.bmp
41.76	0.72	49	1	5	36	mem	con	mod	mod	mod	tg	ms	wh/0772.bmp
42.48	0.72	50	2	6	4	per	lib	low	mod	low	tg	ht	wh/0893.bmp
43.20	0.72	51	1	8	63	mem	lib	mod	mod	low	tg	ht	wh/0364.bmp
43.92	0.72	52	1	err	err	err	err	err	err	err	err	err	wh/0973.bmp
44.64	0.72	53	2	7	12	mem	con	mod	mod	low	nt	ms	nh/0660_nh.bmp
45.36	0.72	54	1	6	3	per	lib	low	mod	low	nt	fa	nh/0508_nh.bmp
46.08	0.72	55	2	5	48	mem	con	mod	mod	mod	nt	ms	nh/0803_nh.bmp
46.80	0.72	56	2	6	13	per	lib	low	mod	low	tg	ht	wh/0489.bmp
47.52	0.72	57	1	err	err	err	err	err	err	err	err	err	nh/0338_nh.bmp
48.24	0.72	58	1	7	66	per	lib	mod	mod	mod	tg	ht	wh/0697.bmp
48.96	0.72	59	2	err	err	err	err	err	err	err	err	err	wh/0350.bmp
49.68	0.72	60	1	7	34	per	con	low	mod	low	nt	cr	nh/1023_nh.bmp
50.40	0.72	61	1	7	15	mem	con	mod	mod	low	nt	ms	nh/0194_nh.bmp
51.12	0.72	62	2	6	3	per	lib	low	mod	low	nt	fa	nh/0508_nh.bmp
51.84	0.72	63	1	7	26	per	lib	low	low	low	tg	ht	wh/0113.bmp
52.56	0.72	64	1	7	61	mem	con	low	low	low	nt	ms	nh/0225_nh.bmp
53.28	0.72	65	1	6	107	mem	con	mod	mod	low	tg	ms	wh/0077.bmp
54.00	0.72	66	1	7	3	mem	con	mod	mod	low	nt	ms	nh/0035_nh.bmp
54.72	0.72	67	1	err	err	err	err	err	err	err	err	err	nh/0153_nh.bmp
55.44	0.72	68	1	7	95	mem	lib	mod	mod	mod	tg	ht	wh/0094.bmp
56.16	0.72	69	1	6	1	per	lib	low	mod	low	nt	fa	nh/0577_nh.bmp
56.88	0.72	70	2	7	15	mem	con	mod	mod	low	nt	ms	nh/0194_nh.bmp
57.60	0.72	71	1	8	62	mem	lib	mod	mod	low	nt	ht	nh/0744_nh.bmp
58.32	0.72	72	2	7	36	per	con	low	mod	low	tg	ms	wh/0082.bmp
59.04	0.72	73	1	7	69	per	lib	mod	mod	mod	tg	ht	wh/0876.bmp
59.76	0.72	74	1	8	88	per	lib	low	mod	low	tg	ht	wh/0075.bmp
60.48	0.72	75	2	7	41	per	con	low	mod	low	tg	ms	wh/0608.bmp
61.20	0.72	76	1	err	err	err	err	err	err	err	err	err	wh/0336.bmp
61.92	0.72	77	1	err	err	err	err	err	err	err	err	err	nh/0548_nh.bmp
62.64	0.72	78	1	8	67	per	con	mod	mod	mod	tg	ht	wh/0398.bmp
63.36	0.72	79	1	7	39	per	con	low	mod	low	tg	n/a	wh/0964.bmp
64.08	0.72	80	1	8	82	per	lib	low	mod	low	nt	fa	nh/0125_nh.bmp
64.80	0.72	81	2	8	57	mem	lib	mod	mod	low	tg	ht	wh/0256.bmp
65.52	0.72	82	1	8	101	mem	con	mod	mod	mod	tg	ms	wh/0594.bmp
66.24	0.72	83	1	err	err	err	err	err	err	err	err	err	nh/0962_nh.bmp
66.96	0.72	84	1	err	err	err	err	err	err	err	err	err	wh/0382.bmp
67.68	0.72	85	2	8	86	per	lib	low	mod	low	nt	fa	nh/0465_nh.bmp
68.40	0.72	86	1	err	err	err	err	err	err	err	err	err	wh/0299.bmp
69.12	0.72	87	2	err	err	err	err	err	err	err	err	err	nh/0338_nh.bmp
69.84	0.72	88	1	6	2	per	lib	low	mod	low	tg	ms	wh/0619.bmp
70.56	0.72	89	1	8	60	mem	lib	mod	mod	low	tg	ht	wh/0758.bmp
71.28	0.72	90	1	7	85	mem	lib	mod	mod	mod	nt	ht	nh/0199_nh.bmp
72.00	0.72	91	1	err	err	err	err	err	err	err	err	err	wh/0923.bmp
72.72	0.72	92	2	err	err	err	err	err	err	err	err	err	wh/0079.bmp
73.44	0.72	93	1	7	59	mem	con	low	low	low	nt	ms	nh/0731_nh.bmp
74.16	0.72	94	1	err	err	err	err	err	err	err	err	err	wh/0904.bmp
74.88	0.72	95	2	5	37	mem	con	mod	mod	mod	tg	ht	wh/0716.bmp
75.60	0.72	96	1	7	117	mem	lib	low	low	mod	nt	ht	nh/0301_nh.bmp
76.32	0.72	97	1	err	err	err	err	err	err	err	err	err	nh/0148_nh.bmp
77.04	0.72	98	1	err	err	err	err	err	err	err	err	err	wh/0329.bmp
77.76	0.72	99	1	7	89	mem	lib	mod	mod	mod	tg	ht	wh/0319.bmp
78.48	0.72	100	1	err	err	err	err	err	err	err	err	err	nh/0134_nh.bmp
79.20	0.72	101	2	6	9	per	lib	low	mod	low	nt	fa	nh/0568_nh.bmp
79.92	0.72	102	1	err	err	err	err	err	err	err	err	err	nh/0345_nh.bmp
80.64	0.72	103	1	7	82	mem	lib	mod	mod	mod	nt	ht	nh/0941_nh.bmp
81.36	0.72	104	1	err	err	err	err	err	err	err	err	err	nh/0316_nh.bmp
82.08	0.72	105	2	7	38	per	con	low	mod	low	nt	cr	nh/0123_nh.bmp
82.80	0.72	106	2	7	94	mem	lib	mod	mod	mod	nt	ht	nh/0874_nh.bmp
83.52	0.72	107	2	8	82	per	lib	low	mod	low	nt	fa	nh/0125_nh.bmp
84.24	0.72	108	1	err	err	err	err	err	err	err	err	err	nh/0428_nh.bmp
84.96	0.72	109	1	6	12	per	lib	low	mod	low	nt	fa	nh/0503_nh.bmp
85.68	0.72	110	2	err	err	err	err	err	err	err	err	err	wh/0182.bmp
86.40	0.72	111	2	5	42	mem	con	mod	mod	mod	tg	ms	wh/0540.bmp
87.12	0.72	112	2	8	74	per	con	mod	mod	mod	nt	cr	nh/0380_nh.bmp
87.84	0.72	113	2	err	err	err	err	err	err	err	err	err	nh/0134_nh.bmp
88.56	0.72	114	1	8	99	mem	con	mod	mod	mod	nt	ms	nh/0446_nh.bmp
89.28	0.72	115	1	8	51	mem	lib	mod	mod	low	nt	ht	nh/0404_nh.bmp
90.00	0.72	116	3	8	82	per	lib	low	mod	low	nt	fa	nh/0125_nh.bmp
90.72	0.72	117	1	err	err	err	err	err	err	err	err	err	nh/0782_nh.bmp
91.44	0.72	118	2	8	97	mem	con	mod	mod	mod	nt	ms	nh/0196_nh.bmp
92.16	0.72	119	2	err	err	err	err	err	err	err	err	err	nh/0805_nh.bmp
92.88	0.72	120	1	8	94	per	lib	low	mod	low	nt	cr	nh/0383_nh.bmp
93.60	0.72	121	2	6	2	per	lib	low	mod	low	tg	ms	wh/0619.bmp
94.32	0.72	122	1	5	58	mem	lib	low	low	mod	nt	ht	nh/0966_nh.bmp
95.04	0.72	123	1	8	56	mem	lib	mod	mod	low	nt	ht	nh/0730_nh.bmp
95.76	0.72	124	1	7	93	mem	lib	mod	mod	mod	tg	ht	wh/0855.bmp
96.48	0.72	125	2	8	88	per	lib	low	mod	low	tg	ht	wh/0075.bmp
97.20	0.72	126	1	8	80	per	con	mod	mod	mod	tg	ms	wh/0328.bmp
97.92	0.72	127	1	8	108	mem	con	mod	mod	mod	nt	ms	nh/0099_nh.bmp
98.64	0.72	128	2	8	62	mem	lib	mod	mod	low	nt	ht	nh/0744_nh.bmp
99.36	0.72	129	1	err	err	err	err	err	err	err	err	err	nh/0447_nh.bmp
100.08	0.72	130	2	8	99	mem	con	mod	mod	mod	nt	ms	nh/0446_nh.bmp
100.80	0.72	131	2	6	112	mem	con	mod	mod	low	nt	ms	nh/0443_nh.bmp
101.52	0.72	132	1	err	err	err	err	err	err	err	err	err	nh/0563_nh.bmp
102.24	0.72	133	2	8	94	per	lib	low	mod	low	nt	cr	nh/0383_nh.bmp
102.96	0.72	134	1	err	err	err	err	err	err	err	err	err	wh/0558.bmp
103.68	0.72	135	2	err	err	err	err	err	err	err	err	err	nh/0962_nh.bmp
104.40	0.72	136	1	err	err	err	err	err	err	err	err	err	wh/0762.bmp
105.12	0.72	137	1	err	err	err	err	err	err	err	err	err	nh/0613_nh.bmp
105.84	0.72	138	1	6	111	mem	con	mod	mod	low	nt	ms	nh/0361_nh.bmp
106.56	0.72	139	1	6	104	mem	con	mod	mod	low	tg	ms	wh/0232.bmp
107.28	0.72	140	2	err	err	err	err	err	err	err	err	err	wh/0336.bmp
108.00	0.72	141	1	7	68	per	lib	mod	mod	mod	tg	ht	wh/0095.bmp
108.72	0.72	142	1	7	71	per	lib	mod	mod	mod	nt	cr	nh/0396_nh.bmp
109.44	0.72	143	2	7	4	mem	con	mod	mod	low	tg	ms	wh/0080.bmp
110.16	0.72	144	1	err	err	err	err	err	err	err	err	err	wh/0290.bmp
110.88	0.72	145	2	err	err	err	err	err	err	err	err	err	wh/0462.bmp
111.60	0.72	146	1	5	44	mem	con	mod	mod	mod	nt	ht	nh/0371_nh.bmp
112.32	0.72	147	2	err	err	err	err	err	err	err	err	err	nh/0345_nh.bmp
113.04	0.72	148	1	5	92	mem	con	low	low	mod	tg	n/a	wh/0781.bmp
113.76	0.72	149	2	7	72	per	lib	mod	mod	mod	tg	ht	wh/0954.bmp
114.48	0.72	150	3	5	48	mem	con	mod	mod	mod	nt	ms	nh/0803_nh.bmp
115.20	0.72	151	1	8	13	mem	con	low	low	mod	tg	ms	wh/0870.bmp
115.92	0.72	152	3	err	err	err	err	err	err	err	err	err	wh/0079.bmp
116.64	0.72	153	1	err	err	err	err	err	err	err	err	err	nh/0946_nh.bmp
117.36	0.72	154	1	7	1	mem	con	mod	mod	low	tg	ms	wh/0032.bmp
118.08	0.72	155	1	5	95	mem	con	low	low	mod	nt	ht	nh/0949_nh.bmp
118.80	0.72	156	2	err	err	err	err	err	err	err	err	err	nh/0428_nh.bmp
119.52	0.72	157	1	5	63	mem	lib	low	low	mod	nt	ht	nh/0531_nh.bmp
120.24	0.72	158	2	err	err	err	err	err	err	err	err	err	nh/0946_nh.bmp
120.96	0.72	159	1	7	113	mem	lib	low	low	mod	nt	ht	nh/0278_nh.bmp
121.68	0.72	160	2	7	71	per	lib	mod	mod	mod	nt	cr	nh/0396_nh.bmp
122.40	0.72	161	3	err	err	err	err	err	err	err	err	err	nh/0805_nh.bmp
123.12	0.72	162	3	8	62	mem	lib	mod	mod	low	nt	ht	nh/0744_nh.bmp
123.84	0.72	163	3	8	88	per	lib	low	mod	low	tg	ht	wh/0075.bmp
124.56	0.72	164	3	err	err	err	err	err	err	err	err	err	nh/0338_nh.bmp
125.28	0.72	165	1	err	err	err	err	err	err	err	err	err	wh/0650.bmp
126.00	0.72	166	2	err	err	err	err	err	err	err	err	err	nh/0563_nh.bmp
126.72	0.72	167	3	6	3	per	lib	low	mod	low	nt	fa	nh/0508_nh.bmp
127.44	0.72	168	2	8	108	mem	con	mod	mod	mod	nt	ms	nh/0099_nh.bmp
128.16	0.72	169	2	err	err	err	err	err	err	err	err	err	wh/0593.bmp
128.88	0.72	170	2	err	err	err	err	err	err	err	err	err	nh/0748_nh.bmp
129.60	0.72	171	1	7	48	per	con	low	mod	low	tg	ms	wh/0635.bmp
130.32	0.72	172	2	8	100	mem	con	mod	mod	mod	nt	ms	nh/0714_nh.bmp
131.04	0.72	173	1	7	8	mem	con	mod	mod	low	nt	ms	nh/0963_nh.bmp
131.76	0.72	174	2	7	1	mem	con	mod	mod	low	tg	ms	wh/0032.bmp
132.48	0.72	175	1	5	39	mem	con	mod	mod	mod	nt	ms	nh/0928_nh.bmp
133.20	0.72	176	1	err	err	err	err	err	err	err	err	err	wh/0451.bmp
133.92	0.72	177	3	6	4	per	lib	low	mod	low	tg	ht	wh/0893.bmp
134.64	0.72	178	1	6	97	mem	con	mod	mod	low	nt	ms	nh/0760_nh.bmp
135.36	0.72	179	2	8	67	per	con	mod	mod	mod	tg	ht	wh/0398.bmp
136.08	0.72	180	1	7	81	mem	lib	mod	mod	mod	tg	ht	wh/0187.bmp
136.80	0.72	181	3	8	67	per	con	mod	mod	mod	tg	ht	wh/0398.bmp
137.52	0.72	182	3	6	13	per	lib	low	mod	low	tg	ht	wh/0489.bmp
138.24	0.72	183	1	8	2	mem	con	low	low	mod	nt	ms	nh/0572_nh.bmp
138.96	0.72	184	2	7	85	mem	lib	mod	mod	mod	nt	ht	nh/0199_nh.bmp
139.68	0.72	185	2	6	111	mem	con	mod	mod	low	nt	ms	nh/0361_nh.bmp
140.40	0.72	186	3	8	68	per	con	mod	mod	mod	nt	cr	nh/0684_nh.bmp
141.12	0.72	187	2	6	108	mem	con	mod	mod	low	tg	ms	wh/0818.bmp
141.84	0.72	188	1	5	17	per	lib	low	low	low	nt	fa	nh/0864_nh.bmp
142.56	0.72	189	3	8	100	mem	con	mod	mod	mod	nt	ms	nh/0714_nh.bmp
143.28	0.72	190	3	6	112	mem	con	mod	mod	low	nt	ms	nh/0443_nh.bmp
144.00	0.72	191	4	6	112	mem	con	mod	mod	low	nt	ms	nh/0443_nh.bmp
144.72	0.72	192	1	6	57	mem	con	low	low	low	nt	ms	nh/0292_nh.bmp
145.44	0.72	193	3	err	err	err	err	err	err	err	err	err	nh/0345_nh.bmp
146.16	0.72	194	2	5	36	mem	con	mod	mod	mod	tg	ms	wh/0772.bmp
146.88	0.72	195	3	8	94	per	lib	low	mod	low	nt	cr	nh/0383_nh.bmp
147.60	0.72	196	1	7	108	per	con	mod	low	mod	tg	ms	wh/0426.bmp
148.32	0.72	197	4	err	err	err	err	err	err	err	err	err	nh/0345_nh.bmp
149.04	0.72	198	1	8	71	per	con	mod	mod	mod	nt	cr	nh/0795_nh.bmp
149.76	0.72	199	2	err	err	err	err	err	err	err	err	err	wh/0650.bmp
150.48	0.72	200	2	7	89	mem	lib	mod	mod	mod	tg	ht	wh/0319.bmp
151.20	0.72	201	1	7	46	per	con	low	mod	low	nt	cr	nh/0493_nh.bmp
151.92	0.72	202	1	8	72	per	con	mod	mod	mod	tg	ht	wh/0902.bmp
152.64	0.72	203	1	8	45	per	lib	mod	low	mod	tg	ht	wh/0900.bmp
153.36	0.72	204	1	8	39	per	lib	mod	low	mod	tg	ht	wh/0281.bmp
154.08	0.72	205	3	err	err	err	err	err	err	err	err	err	wh/0462.bmp
154.80	0.72	206	2	7	48	per	con	low	mod	low	tg	ms	wh/0635.bmp
155.52	0.72	207	2	7	70	per	lib	mod	mod	mod	nt	cr	nh/0588_nh.bmp
156.24	0.72	208	3	err	err	err	err	err	err	err	err	err	nh/0962_nh.bmp
156.96	0.72	209	4	6	4	per	lib	low	mod	low	tg	ht	wh/0893.bmp
157.68	0.72	210	2	7	34	per	con	low	mod	low	nt	cr	nh/1023_nh.bmp
158.40	0.72	211	2	8	60	mem	lib	mod	mod	low	tg	ht	wh/0758.bmp
159.12	0.72	212	1	err	err	err	err	err	err	err	err	err	wh/0339.bmp
159.84	0.72	213	2	err	err	err	err	err	err	err	err	err	nh/0802_nh.bmp
160.56	0.72	214	1	8	105	mem	con	mod	mod	mod	tg	ms	wh/0543.bmp
161.28	0.72	215	3	6	2	per	lib	low	mod	low	tg	ms	wh/0619.bmp
162.00	0.72	216	2	err	err	err	err	err	err	err	err	err	wh/0299.bmp
162.72	0.72	217	1	5	34	mem	con	mod	mod	mod	tg	ms	wh/0807.bmp
163.44	0.72	218	1	7	90	mem	lib	mod	mod	mod	nt	ht	nh/0222_nh.bmp
164.16	0.72	219	2	err	err	err	err	err	err	err	err	err	wh/0451.bmp
164.88	0.72	220	1	7	5	mem	con	mod	mod	low	tg	ms	wh/0940.bmp
165.60	0.72	221	1	5	49	mem	lib	low	low	mod	tg	ht	wh/0581.bmp
166.32	0.72	222	2	err	err	err	err	err	err	err	err	err	nh/0613_nh.bmp
167.04	0.72	223	2	8	84	per	lib	low	mod	low	tg	ht	wh/0190.bmp
167.76	0.72	224	1	5	59	mem	lib	low	low	mod	nt	ht	nh/0787_nh.bmp
168.48	0.72	225	4	6	13	per	lib	low	mod	low	tg	ht	wh/0489.bmp
169.20	0.72	226	1	7	13	mem	con	mod	mod	low	tg	ms	wh/0646.bmp
169.92	0.72	227	3	8	86	per	lib	low	mod	low	nt	fa	nh/0465_nh.bmp
170.64	0.72	228	1	8	21	per	con	low	low	low	nt	cr	nh/0691_nh.bmp
171.36	0.72	229	1	8	53	mem	lib	mod	mod	low	tg	ht	wh/0351.bmp
172.08	0.72	230	1	7	22	per	lib	low	low	low	nt	fa	nh/0146_nh.bmp
172.80	0.72	231	1	6	59	mem	con	low	low	low	nt	ms	nh/1009_nh.bmp
173.52	0.72	232	2	7	5	mem	con	mod	mod	low	tg	ms	wh/0940.bmp
174.24	0.72	233	2	7	46	per	con	low	mod	low	nt	cr	nh/0493_nh.bmp
174.96	0.72	234	3	8	99	mem	con	mod	mod	mod	nt	ms	nh/0446_nh.bmp
175.68	0.72	235	2	err	err	err	err	err	err	err	err	err	nh/0548_nh.bmp
176.40	0.72	236	2	7	81	mem	lib	mod	mod	mod	tg	ht	wh/0187.bmp
177.12	0.72	237	1	err	err	err	err	err	err	err	err	err	wh/1007.bmp
177.84	0.72	238	2	8	105	mem	con	mod	mod	mod	tg	ms	wh/0543.bmp
178.56	0.72	239	3	err	err	err	err	err	err	err	err	err	wh/0350.bmp
179.28	0.72	240	2	7	39	per	con	low	mod	low	tg	n/a	wh/0964.bmp
180.00	0.72	241	2	5	44	mem	con	mod	mod	mod	nt	ht	nh/0371_nh.bmp
180.72	0.72	242	2	6	12	per	lib	low	mod	low	nt	fa	nh/0503_nh.bmp
181.44	0.72	243	3	err	err	err	err	err	err	err	err	err	nh/0134_nh.bmp
182.16	0.72	244	2	5	39	mem	con	mod	mod	mod	nt	ms	nh/0928_nh.bmp
182.88	0.72	245	1	8	127	mem	lib	low	low	low	nt	ht	nh/0804_nh.bmp
183.60	0.72	246	1	8	123	mem	lib	low	low	low	nt	ht	nh/0812_nh.bmp
184.32	0.72	247	2	8	59	mem	lib	mod	mod	low	nt	ht	nh/0355_nh.bmp
185.04	0.72	248	2	8	77	per	con	mod	mod	mod	nt	cr	nh/0442_nh.bmp
185.76	0.72	249	2	6	1	per	lib	low	mod	low	nt	fa	nh/0577_nh.bmp
186.48	0.72	250	3	err	err	err	err	err	err	err	err	err	wh/0650.bmp
187.20	0.72	251	1	err	err	err	err	err	err	err	err	err	nh/0048_nh.bmp
187.92	0.72	252	1	err	err	err	err	err	err	err	err	err	wh/0397.bmp
188.64	0.72	253	1	err	err	err	err	err	err	err	err	err	wh/0112.bmp
189.36	0.72	254	2	7	13	mem	con	mod	mod	low	tg	ms	wh/0646.bmp
190.08	0.72	255	4	8	67	per	con	mod	mod	mod	tg	ht	wh/0398.bmp
190.80	0.72	256	3	8	97	mem	con	mod	mod	mod	nt	ms	nh/0196_nh.bmp
191.52	0.72	257	1	5	28	per	lib	low	low	low	nt	cr	nh/0930_nh.bmp
192.24	0.72	258	3	7	41	per	con	low	mod	low	tg	ms	wh/0608.bmp
192.96	0.72	259	4	6	3	per	lib	low	mod	low	nt	fa	nh/0508_nh.bmp
193.68	0.72	260	1	5	81	mem	con	low	low	mod	nt	ms	nh/0461_nh.bmp
194.40	0.72	261	3	7	12	mem	con	mod	mod	low	nt	ms	nh/0660_nh.bmp
195.12	0.72	262	3	8	108	mem	con	mod	mod	mod	nt	ms	nh/0099_nh.bmp
195.84	0.72	263	1	err	err	err	err	err	err	err	err	err	wh/0669.bmp
196.56	0.72	264	1	err	err	err	err	err	err	err	err	err	nh/0784_nh.bmp
197.28	0.72	265	1	8	47	per	lib	mod	low	mod	tg	ht	wh/0933.bmp
198.00	0.72	266	3	7	71	per	lib	mod	mod	mod	nt	cr	nh/0396_nh.bmp
198.72	0.72	267	1	7	75	per	lib	mod	mod	mod	nt	fa	nh/0497_nh.bmp
199.44	0.72	268	2	8	101	mem	con	mod	mod	mod	tg	ms	wh/0594.bmp
200.16	0.72	269	4	err	err	err	err	err	err	err	err	err	wh/0462.bmp
200.88	0.72	270	1	7	58	mem	con	low	low	low	tg	ms	wh/0881.bmp
201.60	0.72	271	1	8	38	per	lib	mod	low	mod	tg	ht	wh/0774.bmp
202.32	0.72	272	1	err	err	err	err	err	err	err	err	err	wh/0810.bmp
203.04	0.72	273	4	8	99	mem	con	mod	mod	mod	nt	ms	nh/0446_nh.bmp
203.76	0.72	274	4	6	2	per	lib	low	mod	low	tg	ms	wh/0619.bmp
204.48	0.72	275	3	7	39	per	con	low	mod	low	tg	n/a	wh/0964.bmp
205.20	0.72	276	2	err	err	err	err	err	err	err	err	err	wh/0150.bmp
205.92	0.72	277	1	8	75	per	con	mod	mod	mod	tg	ms	wh/0591.bmp
206.64	0.72	278	3	7	13	mem	con	mod	mod	low	tg	ms	wh/0646.bmp
207.36	0.72	279	1	err	err	err	err	err	err	err	err	err	wh/0284.bmp
208.08	0.72	280	1	8	31	per	con	low	low	low	tg	ms	wh/0655.bmp
208.80	0.72	281	2	8	71	per	con	mod	mod	mod	nt	cr	nh/0795_nh.bmp
209.52	0.72	282	2	6	107	mem	con	mod	mod	low	tg	ms	wh/0077.bmp
210.24	0.72	283	3	6	1	per	lib	low	mod	low	nt	fa	nh/0577_nh.bmp
210.96	0.72	284	2	err	err	err	err	err	err	err	err	err	wh/0973.bmp
211.68	0.72	285	4	8	94	per	lib	low	mod	low	nt	cr	nh/0383_nh.bmp
212.40	0.72	286	3	7	36	per	con	low	mod	low	tg	ms	wh/0082.bmp
213.12	0.72	287	1	5	45	mem	con	mod	mod	mod	nt	ms	nh/0909_nh.bmp
213.84	0.72	288	2	err	err	err	err	err	err	err	err	err	wh/0904.bmp
214.56	0.72	289	3	err	err	err	err	err	err	err	err	err	wh/0336.bmp
215.28	0.72	290	5	8	94	per	lib	low	mod	low	nt	cr	nh/0383_nh.bmp
216.00	0.72	291	2	8	80	per	con	mod	mod	mod	tg	ms	wh/0328.bmp
216.72	0.72	292	3	err	err	err	err	err	err	err	err	err	nh/0748_nh.bmp
217.44	0.72	293	2	7	3	mem	con	mod	mod	low	nt	ms	nh/0035_nh.bmp
218.16	0.72	294	3	err	err	err	err	err	err	err	err	err	wh/0182.bmp
218.88	0.72	295	4	8	88	per	lib	low	mod	low	tg	ht	wh/0075.bmp
219.60	0.72	296	4	5	48	mem	con	mod	mod	mod	nt	ms	nh/0803_nh.bmp
220.32	0.72	297	3	6	9	per	lib	low	mod	low	nt	fa	nh/0568_nh.bmp
221.04	0.72	298	3	8	77	per	con	mod	mod	mod	nt	cr	nh/0442_nh.bmp
221.76	0.72	299	4	8	108	mem	con	mod	mod	mod	nt	ms	nh/0099_nh.bmp
222.48	0.72	300	3	err	err	err	err	err	err	err	err	err	nh/0802_nh.bmp
223.20	0.72	301	4	7	12	mem	con	mod	mod	low	nt	ms	nh/0660_nh.bmp
223.92	0.72	302	3	7	85	mem	lib	mod	mod	mod	nt	ht	nh/0199_nh.bmp
224.64	0.72	303	1	8	24	per	con	low	low	low	tg	ms	wh/0439.bmp
225.36	0.72	304	3	6	12	per	lib	low	mod	low	nt	fa	nh/0503_nh.bmp
226.08	0.72	305	3	err	err	err	err	err	err	err	err	err	nh/0957_nh.bmp
226.80	0.72	306	1	err	err	err	err	err	err	err	err	err	nh/0209_nh.bmp
227.52	0.72	307	2	6	14	per	lib	low	mod	low	tg	ht	wh/0029.bmp
228.24	0.72	308	2	7	8	mem	con	mod	mod	low	nt	ms	nh/0963_nh.bmp
228.96	0.72	309	2	err	err	err	err	err	err	err	err	err	wh/0284.bmp
229.68	0.72	310	2	8	56	mem	lib	mod	mod	low	nt	ht	nh/0730_nh.bmp
230.40	0.72	311	4	8	68	per	con	mod	mod	mod	nt	cr	nh/0684_nh.bmp
231.12	0.72	312	1	7	105	per	con	mod	low	mod	nt	cr	nh/0693_nh.bmp
231.84	0.72	313	2	err	err	err	err	err	err	err	err	err	nh/0209_nh.bmp
232.56	0.72	314	2	err	err	err	err	err	err	err	err	err	wh/0810.bmp
233.28	0.72	315	1	5	84	mem	con	low	low	mod	tg	ms	wh/0736.bmp
234.00	0.72	316	4	7	85	mem	lib	mod	mod	mod	nt	ht	nh/0199_nh.bmp
234.72	0.72	317	1	8	115	mem	lib	low	low	low	nt	ht	nh/0956_nh.bmp
235.44	0.72	318	2	err	err	err	err	err	err	err	err	err	nh/0510_nh.bmp
236.16	0.72	319	4	8	62	mem	lib	mod	mod	low	nt	ht	nh/0744_nh.bmp
236.88	0.72	320	3	err	err	err	err	err	err	err	err	err	nh/0209_nh.bmp
237.60	0.72	321	2	8	85	per	lib	low	mod	low	tg	ms	wh/0967.bmp
238.32	0.72	322	2	8	53	mem	lib	mod	mod	low	tg	ht	wh/0351.bmp
239.04	0.72	323	2	7	66	per	lib	mod	mod	mod	tg	ht	wh/0697.bmp
239.76	0.72	324	2	8	51	mem	lib	mod	mod	low	nt	ht	nh/0404_nh.bmp
240.48	0.72	325	3	err	err	err	err	err	err	err	err	err	wh/0284.bmp
241.20	0.72	326	4	7	36	per	con	low	mod	low	tg	ms	wh/0082.bmp
241.92	0.72	327	2	7	75	per	lib	mod	mod	mod	nt	fa	nh/0497_nh.bmp
242.64	0.72	328	3	7	15	mem	con	mod	mod	low	nt	ms	nh/0194_nh.bmp
243.36	0.72	329	3	6	111	mem	con	mod	mod	low	nt	ms	nh/0361_nh.bmp
244.08	0.72	330	3	err	err	err	err	err	err	err	err	err	nh/0428_nh.bmp
244.80	0.72	331	1	8	93	per	lib	low	mod	low	tg	ht	wh/0074.bmp
245.52	0.72	332	4	err	err	err	err	err	err	err	err	err	nh/0338_nh.bmp
246.24	0.72	333	3	err	err	err	err	err	err	err	err	err	wh/0451.bmp
246.96	0.72	334	3	8	57	mem	lib	mod	mod	low	tg	ht	wh/0256.bmp
247.68	0.72	335	3	6	107	mem	con	mod	mod	low	tg	ms	wh/0077.bmp
248.40	0.72	336	1	err	err	err	err	err	err	err	err	err	nh/0417_nh.bmp
249.12	0.72	337	5	5	48	mem	con	mod	mod	mod	nt	ms	nh/0803_nh.bmp
249.84	0.72	338	2	7	93	mem	lib	mod	mod	mod	tg	ht	wh/0855.bmp
250.56	0.72	339	4	err	err	err	err	err	err	err	err	err	wh/0336.bmp
251.28	0.72	340	3	8	51	mem	lib	mod	mod	low	nt	ht	nh/0404_nh.bmp
252.00	0.72	341	2	7	68	per	lib	mod	mod	mod	tg	ht	wh/0095.bmp
252.72	0.72	342	2	err	err	err	err	err	err	err	err	err	nh/0417_nh.bmp
253.44	0.72	343	3	7	68	per	lib	mod	mod	mod	tg	ht	wh/0095.bmp
254.16	0.72	344	3	7	46	per	con	low	mod	low	nt	cr	nh/0493_nh.bmp
254.88	0.72	345	3	5	39	mem	con	mod	mod	mod	nt	ms	nh/0928_nh.bmp
255.60	0.72	346	3	7	72	per	lib	mod	mod	mod	tg	ht	wh/0954.bmp
256.32	0.72	347	5	8	62	mem	lib	mod	mod	low	nt	ht	nh/0744_nh.bmp
257.04	0.72	348	1	8	106	mem	con	mod	mod	mod	tg	ms	wh/0542.bmp
257.76	0.72	349	4	err	err	err	err	err	err	err	err	err	wh/0182.bmp
258.48	0.72	350	3	err	err	err	err	err	err	err	err	err	wh/0973.bmp
259.20	0.72	351	4	err	err	err	err	err	err	err	err	err	nh/0962_nh.bmp
259.92	0.72	352	2	err	err	err	err	err	err	err	err	err	nh/0784_nh.bmp
260.64	0.72	353	2	err	err	err	err	err	err	err	err	err	wh/0329.bmp
261.36	0.72	354	3	8	74	per	con	mod	mod	mod	nt	cr	nh/0380_nh.bmp
262.08	0.72	355	5	err	err	err	err	err	err	err	err	err	nh/0338_nh.bmp
262.80	0.72	356	1	6	54	mem	con	low	low	low	nt	ms	nh/0831_nh.bmp
263.52	0.72	357	3	8	84	per	lib	low	mod	low	tg	ht	wh/0190.bmp
264.24	0.72	358	2	8	75	per	con	mod	mod	mod	tg	ms	wh/0591.bmp
264.96	0.72	359	3	8	101	mem	con	mod	mod	mod	tg	ms	wh/0594.bmp
265.68	0.72	360	4	err	err	err	err	err	err	err	err	err	wh/0451.bmp
266.40	0.72	361	1	err	err	err	err	err	err	err	err	err	nh/0068_nh.bmp
267.12	0.72	362	3	8	75	per	con	mod	mod	mod	tg	ms	wh/0591.bmp
267.84	0.72	363	3	err	err	err	err	err	err	err	err	err	wh/0947.bmp
268.56	0.72	364	3	5	42	mem	con	mod	mod	mod	tg	ms	wh/0540.bmp
269.28	0.72	365	3	err	err	err	err	err	err	err	err	err	nh/0613_nh.bmp
270.00	0.72	366	3	8	53	mem	lib	mod	mod	low	tg	ht	wh/0351.bmp
270.72	0.72	367	4	8	74	per	con	mod	mod	mod	nt	cr	nh/0380_nh.bmp
271.44	0.72	368	2	err	err	err	err	err	err	err	err	err	nh/0153_nh.bmp
272.16	0.72	369	3	8	80	per	con	mod	mod	mod	tg	ms	wh/0328.bmp
272.88	0.72	370	5	7	12	mem	con	mod	mod	low	nt	ms	nh/0660_nh.bmp
273.60	0.72	371	6	7	12	mem	con	mod	mod	low	nt	ms	nh/0660_nh.bmp
274.32	0.72	372	4	7	41	per	con	low	mod	low	tg	ms	wh/0608.bmp
275.04	0.72	373	1	5	32	per	lib	low	low	low	tg	ms	wh/0579.bmp
275.76	0.72	374	4	6	12	per	lib	low	mod	low	nt	fa	nh/0503_nh.bmp
276.48	0.72	375	2	err	err	err	err	err	err	err	err	err	wh/0382.bmp
277.20	0.72	376	4	err	err	err	err	err	err	err	err	err	wh/0284.bmp
277.92	0.72	377	3	8	59	mem	lib	mod	mod	low	nt	ht	nh/0355_nh.bmp
278.64	0.72	378	1	7	50	mem	con	low	low	low	nt	ms	nh/0437_nh.bmp
279.36	0.72	379	3	5	44	mem	con	mod	mod	mod	nt	ht	nh/0371_nh.bmp
280.08	0.72	380	4	8	97	mem	con	mod	mod	mod	nt	ms	nh/0196_nh.bmp
280.80	0.72	381	3	err	err	err	err	err	err	err	err	err	nh/0548_nh.bmp
281.52	0.72	382	2	5	45	mem	con	mod	mod	mod	nt	ms	nh/0909_nh.bmp
282.24	0.72	383	4	err	err	err	err	err	err	err	err	err	nh/0805_nh.bmp
282.96	0.72	384	2	7	82	mem	lib	mod	mod	mod	nt	ht	nh/0941_nh.bmp
283.68	0.72	385	1	err	err	err	err	err	err	err	err	err	nh/0488_nh.bmp
284.40	0.72	386	1	7	42	per	con	low	mod	low	nt	cr	nh/0934_nh.bmp
285.12	0.72	387	2	6	97	mem	con	mod	mod	low	nt	ms	nh/0760_nh.bmp
285.84	0.72	388	1	7	23	per	lib	low	low	low	tg	ht	wh/0710.bmp
286.56	0.72	389	1	8	15	mem	con	low	low	mod	nt	ms	nh/0267_nh.bmp
287.28	0.72	390	4	8	75	per	con	mod	mod	mod	tg	ms	wh/0591.bmp
288.00	0.72	391	4	7	72	per	lib	mod	mod	mod	tg	ht	wh/0954.bmp
288.72	0.72	392	4	8	84	per	lib	low	mod	low	tg	ht	wh/0190.bmp
289.44	0.72	393	1	5	87	mem	con	low	low	mod	nt	ms	nh/0849_nh.bmp
290.16	0.72	394	3	7	94	mem	lib	mod	mod	mod	nt	ht	nh/0874_nh.bmp
290.88	0.72	395	1	8	89	per	lib	low	mod	low	nt	fa	nh/0238_nh.bmp
291.60	0.72	396	4	err	err	err	err	err	err	err	err	err	nh/0428_nh.bmp
292.32	0.72	397	5	8	88	per	lib	low	mod	low	tg	ht	wh/0075.bmp
293.04	0.72	398	3	7	82	mem	lib	mod	mod	mod	nt	ht	nh/0941_nh.bmp
293.76	0.72	399	4	err	err	err	err	err	err	err	err	err	nh/0134_nh.bmp
294.48	0.72	400	1	6	105	mem	con	mod	mod	low	tg	ms	wh/0036.bmp
295.20	0.72	401	2	5	34	mem	con	mod	mod	mod	tg	ms	wh/0807.bmp
295.92	0.72	402	2	err	err	err	err	err	err	err	err	err	wh/0397.bmp
296.64	0.72	403	2	7	90	mem	lib	mod	mod	mod	nt	ht	nh/0222_nh.bmp
297.36	0.72	404	4	err	err	err	err	err	err	err	err	err	wh/0650.bmp
298.08	0.72	405	3	err	err	err	err	err	err	err	err	err	nh/0153_nh.bmp
298.80	0.72	406	1	8	121	mem	lib	low	low	low	nt	ht	nh/0384_nh.bmp
299.52	0.72	407	4	err	err	err	err	err	err	err	err	err	wh/0350.bmp
300.24	0.72	408	6	8	62	mem	lib	mod	mod	low	nt	ht	nh/0744_nh.bmp
300.96	0.72	409	4	7	46	per	con	low	mod	low	nt	cr	nh/0493_nh.bmp
301.68	0.72	410	5	err	err	err	err	err	err	err	err	err	nh/0134_nh.bmp
302.40	0.72	411	5	8	108	mem	con	mod	mod	mod	nt	ms	nh/0099_nh.bmp
303.12	0.72	412	3	err	err	err	err	err	err	err	err	err	wh/0810.bmp
303.84	0.72	413	2	7	95	mem	lib	mod	mod	mod	tg	ht	wh/0094.bmp
304.56	0.72	414	3	5	36	mem	con	mod	mod	mod	tg	ms	wh/0772.bmp
305.28	0.72	415	5	8	84	per	lib	low	mod	low	tg	ht	wh/0190.bmp
306.00	0.72	416	2	err	err	err	err	err	err	err	err	err	wh/0339.bmp
306.72	0.72	417	2	8	72	per	con	mod	mod	mod	tg	ht	wh/0902.bmp
307.44	0.72	418	3	err	err	err	err	err	err	err	err	err	wh/0339.bmp
308.16	0.72	419	4	7	71	per	lib	mod	mod	mod	nt	cr	nh/0396_nh.bmp
308.88	0.72	420	3	7	81	mem	lib	mod	mod	mod	tg	ht	wh/0187.bmp
309.60	0.72	421	4	err	err	err	err	err	err	err	err	err	wh/0810.bmp
310.32	0.72	422	3	7	1	mem	con	mod	mod	low	tg	ms	wh/0032.bmp
311.04	0.72	423	4	5	42	mem	con	mod	mod	mod	tg	ms	wh/0540.bmp
311.76	0.72	424	3	err	err	err	err	err	err	err	err	err	wh/0382.bmp
312.48	0.72	425	3	err	err	err	err	err	err	err	err	err	wh/0904.bmp
313.20	0.72	426	2	8	63	mem	lib	mod	mod	low	tg	ht	wh/0364.bmp
313.92	0.72	427	3	7	8	mem	con	mod	mod	low	nt	ms	nh/0963_nh.bmp
314.64	0.72	428	2	8	93	per	lib	low	mod	low	tg	ht	wh/0074.bmp
315.36	0.72	429	2	8	106	mem	con	mod	mod	mod	tg	ms	wh/0542.bmp
316.08	0.72	430	1	5	30	per	lib	low	low	low	tg	ht	wh/0185.bmp
316.80	0.72	431	3	7	4	mem	con	mod	mod	low	tg	ms	wh/0080.bmp
317.52	0.72	432	4	err	err	err	err	err	err	err	err	err	nh/0153_nh.bmp
318.24	0.72	433	4	8	80	per	con	mod	mod	mod	tg	ms	wh/0328.bmp
318.96	0.72	434	2	8	89	per	lib	low	mod	low	nt	fa	nh/0238_nh.bmp
319.68	0.72	435	4	8	100	mem	con	mod	mod	mod	nt	ms	nh/0714_nh.bmp
320.40	0.72	436	1	6	32	mem	lib	low	low	low	nt	ht	nh/0261_nh.bmp
321.12	0.72	437	2	6	105	mem	con	mod	mod	low	tg	ms	wh/0036.bmp
321.84	0.72	438	2	7	65	per	lib	mod	mod	mod	nt	fa	nh/0843_nh.bmp
322.56	0.72	439	4	6	1	per	lib	low	mod	low	nt	fa	nh/0577_nh.bmp
323.28	0.72	440	4	err	err	err	err	err	err	err	err	err	wh/0079.bmp
324.00	0.72	441	3	7	75	per	lib	mod	mod	mod	nt	fa	nh/0497_nh.bmp
324.72	0.72	442	2	7	69	per	lib	mod	mod	mod	tg	ht	wh/0876.bmp
325.44	0.72	443	3	err	err	err	err	err	err	err	err	err	wh/0329.bmp
326.16	0.72	444	3	8	71	per	con	mod	mod	mod	nt	cr	nh/0795_nh.bmp
326.88	0.72	445	3	7	66	per	lib	mod	mod	mod	tg	ht	wh/0697.bmp
327.60	0.72	446	1	err	err	err	err	err	err	err	err	err	nh/0340_nh.bmp
328.32	0.72	447	4	7	68	per	lib	mod	mod	mod	tg	ht	wh/0095.bmp
329.04	0.72	448	3	8	60	mem	lib	mod	mod	low	tg	ht	wh/0758.bmp
329.76	0.72	449	1	5	64	mem	lib	low	low	mod	tg	ht	wh/0584.bmp
330.48	0.72	450	4	7	1	mem	con	mod	mod	low	tg	ms	wh/0032.bmp
331.20	0.72	451	5	8	80	per	con	mod	mod	mod	tg	ms	wh/0328.bmp
331.92	0.72	452	4	8	71	per	con	mod	mod	mod	nt	cr	nh/0795_nh.bmp
332.64	0.72	453	1	5	50	mem	lib	low	low	mod	tg	ht	wh/0860.bmp
333.36	0.72	454	4	7	81	mem	lib	mod	mod	mod	tg	ht	wh/0187.bmp
334.08	0.72	455	3	8	106	mem	con	mod	mod	mod	tg	ms	wh/0542.bmp
334.80	0.72	456	3	7	93	mem	lib	mod	mod	mod	tg	ht	wh/0855.bmp
335.52	0.72	457	3	err	err	err	err	err	err	err	err	err	wh/0299.bmp
336.24	0.72	458	1	err	err	err	err	err	err	err	err	err	wh/0419.bmp
336.96	0.72	459	3	7	3	mem	con	mod	mod	low	nt	ms	nh/0035_nh.bmp
337.68	0.72	460	3	7	89	mem	lib	mod	mod	mod	tg	ht	wh/0319.bmp
338.40	0.72	461	5	8	68	per	con	mod	mod	mod	nt	cr	nh/0684_nh.bmp
339.12	0.72	462	4	err	err	err	err	err	err	err	err	err	wh/0947.bmp
339.84	0.72	463	1	7	25	per	lib	low	low	low	nt	fa	nh/0483_nh.bmp
340.56	0.72	464	4	err	err	err	err	err	err	err	err	err	wh/0973.bmp
341.28	0.72	465	1	err	err	err	err	err	err	err	err	err	wh/0999.bmp
342.00	0.72	466	3	7	90	mem	lib	mod	mod	mod	nt	ht	nh/0222_nh.bmp
342.72	0.72	467	1	err	err	err	err	err	err	err	err	err	nh/0216_nh.bmp
343.44	0.72	468	4	err	err	err	err	err	err	err	err	err	wh/0299.bmp
344.16	0.72	469	5	6	1	per	lib	low	mod	low	nt	fa	nh/0577_nh.bmp
344.88	0.72	470	1	6	102	mem	con	mod	mod	low	nt	ms	nh/0690_nh.bmp
345.60	0.72	471	4	5	39	mem	con	mod	mod	mod	nt	ms	nh/0928_nh.bmp
346.32	0.72	472	4	err	err	err	err	err	err	err	err	err	wh/0904.bmp
347.04	0.72	473	3	7	48	per	con	low	mod	low	tg	ms	wh/0635.bmp
347.76	0.72	474	1	8	128	mem	lib	low	low	low	tg	ht	wh/0998.bmp
348.48	0.72	475	3	5	34	mem	con	mod	mod	mod	tg	ms	wh/0807.bmp
349.20	0.72	476	3	8	89	per	lib	low	mod	low	nt	fa	nh/0238_nh.bmp
349.92	0.72	477	5	err	err	err	err	err	err	err	err	err	wh/0904.bmp
350.64	0.72	478	3	6	108	mem	con	mod	mod	low	tg	ms	wh/0818.bmp
351.36	0.72	479	1	7	102	per	con	mod	low	mod	tg	ms	wh/0096.bmp
352.08	0.72	480	1	5	18	per	lib	low	low	low	tg	ht	wh/0789.bmp
352.80	0.72	481	1	8	29	per	con	low	low	low	nt	cr	nh/0237_nh.bmp
353.52	0.72	482	4	7	66	per	lib	mod	mod	mod	tg	ht	wh/0697.bmp
354.24	0.72	483	3	7	5	mem	con	mod	mod	low	tg	ms	wh/0940.bmp
354.96	0.72	484	3	7	34	per	con	low	mod	low	nt	cr	nh/1023_nh.bmp
355.68	0.72	485	5	6	2	per	lib	low	mod	low	tg	ms	wh/0619.bmp
356.40	0.72	486	3	7	65	per	lib	mod	mod	mod	nt	fa	nh/0843_nh.bmp
357.12	0.72	487	4	7	3	mem	con	mod	mod	low	nt	ms	nh/0035_nh.bmp
357.84	0.72	488	5	err	err	err	err	err	err	err	err	err	wh/0650.bmp
358.56	0.72	489	1	6	25	mem	lib	low	low	low	tg	ht	wh/0706.bmp
359.28	0.72	490	4	7	65	per	lib	mod	mod	mod	nt	fa	nh/0843_nh.bmp
360.00	0.72	491	1	8	11	mem	con	low	low	mod	tg	ms	wh/0220.bmp
360.72	0.72	492	4	8	89	per	lib	low	mod	low	nt	fa	nh/0238_nh.bmp
361.44	0.72	493	4	8	77	per	con	mod	mod	mod	nt	cr	nh/0442_nh.bmp
362.16	0.72	494	1	err	err	err	err	err	err	err	err	err	nh/0273_nh.bmp
362.88	0.72	495	3	8	105	mem	con	mod	mod	mod	tg	ms	wh/0543.bmp
363.60	0.72	496	5	err	err	err	err	err	err	err	err	err	wh/0973.bmp
364.32	0.72	497	3	6	14	per	lib	low	mod	low	tg	ht	wh/0029.bmp
365.04	0.72	498	4	8	53	mem	lib	mod	mod	low	tg	ht	wh/0351.bmp
365.76	0.72	499	5	7	85	mem	lib	mod	mod	mod	nt	ht	nh/0199_nh.bmp
366.48	0.72	500	5	err	err	err	err	err	err	err	err	err	wh/0350.bmp
367.20	0.72	501	3	err	err	err	err	err	err	err	err	err	nh/0946_nh.bmp
367.92	0.72	502	5	7	3	mem	con	mod	mod	low	nt	ms	nh/0035_nh.bmp
368.64	0.72	503	3	8	72	per	con	mod	mod	mod	tg	ht	wh/0902.bmp
369.36	0.72	504	2	err	err	err	err	err	err	err	err	err	wh/0558.bmp
370.08	0.72	505	3	8	93	per	lib	low	mod	low	tg	ht	wh/0074.bmp
370.80	0.72	506	3	7	95	mem	lib	mod	mod	mod	tg	ht	wh/0094.bmp
371.52	0.72	507	5	err	err	err	err	err	err	err	err	err	wh/0810.bmp
372.24	0.72	508	4	8	51	mem	lib	mod	mod	low	nt	ht	nh/0404_nh.bmp
372.96	0.72	509	1	7	111	per	con	mod	low	mod	nt	cr	nh/0306_nh.bmp
373.68	0.72	510	5	8	75	per	con	mod	mod	mod	tg	ms	wh/0591.bmp
374.40	0.72	511	4	7	90	mem	lib	mod	mod	mod	nt	ht	nh/0222_nh.bmp
375.12	0.72	512	4	err	err	err	err	err	err	err	err	err	wh/0329.bmp
375.84	0.72	513	5	err	err	err	err	err	err	err	err	err	nh/0962_nh.bmp
376.56	0.72	514	5	7	66	per	lib	mod	mod	mod	tg	ht	wh/0697.bmp
377.28	0.72	515	4	5	34	mem	con	mod	mod	mod	tg	ms	wh/0807.bmp
378.00	0.72	516	2	6	104	mem	con	mod	mod	low	tg	ms	wh/0232.bmp
378.72	0.72	517	4	6	107	mem	con	mod	mod	low	tg	ms	wh/0077.bmp
379.44	0.72	518	3	err	err	err	err	err	err	err	err	err	wh/0397.bmp
380.16	0.72	519	3	5	45	mem	con	mod	mod	mod	nt	ms	nh/0909_nh.bmp
380.88	0.72	520	1	8	98	mem	con	mod	mod	mod	tg	ms	wh/0680.bmp
381.60	0.72	521	4	err	err	err	err	err	err	err	err	err	wh/0397.bmp
382.32	0.72	522	1	8	1	mem	con	low	low	mod	nt	ms	nh/0277_nh.bmp
383.04	0.72	523	6	6	1	per	lib	low	mod	low	nt	fa	nh/0577_nh.bmp
383.76	0.72	524	4	err	err	err	err	err	err	err	err	err	wh/0339.bmp
384.48	0.72	525	4	7	95	mem	lib	mod	mod	mod	tg	ht	wh/0094.bmp
385.20	0.72	526	1	7	49	mem	con	low	low	low	tg	ms	wh/0434.bmp
385.92	0.72	527	4	8	101	mem	con	mod	mod	mod	tg	ms	wh/0594.bmp
386.64	0.72	528	5	err	err	err	err	err	err	err	err	err	wh/0182.bmp
387.36	0.72	529	6	8	108	mem	con	mod	mod	mod	nt	ms	nh/0099_nh.bmp
388.08	0.72	530	5	err	err	err	err	err	err	err	err	err	wh/0462.bmp
388.80	0.72	531	5	6	12	per	lib	low	mod	low	nt	fa	nh/0503_nh.bmp
389.52	0.72	532	3	err	err	err	err	err	err	err	err	err	nh/0417_nh.bmp
390.24	0.72	533	4	7	93	mem	lib	mod	mod	mod	tg	ht	wh/0855.bmp
390.96	0.72	534	3	err	err	err	err	err	err	err	err	err	nh/0563_nh.bmp
391.68	0.72	535	4	8	93	per	lib	low	mod	low	tg	ht	wh/0074.bmp
392.40	0.72	536	4	8	86	per	lib	low	mod	low	nt	fa	nh/0465_nh.bmp
393.12	0.72	537	5	8	74	per	con	mod	mod	mod	nt	cr	nh/0380_nh.bmp
393.84	0.72	538	6	8	94	per	lib	low	mod	low	nt	cr	nh/0383_nh.bmp
394.56	0.72	539	1	5	24	per	lib	low	low	low	tg	ht	wh/0815.bmp
395.28	0.72	540	5	6	4	per	lib	low	mod	low	tg	ht	wh/0893.bmp
396.00	0.72	541	5	5	42	mem	con	mod	mod	mod	tg	ms	wh/0540.bmp
396.72	0.72	542	5	err	err	err	err	err	err	err	err	err	wh/0397.bmp
397.44	0.72	543	2	err	err	err	err	err	err	err	err	err	nh/0273_nh.bmp
398.16	0.72	544	3	7	38	per	con	low	mod	low	nt	cr	nh/0123_nh.bmp
398.88	0.72	545	4	err	err	err	err	err	err	err	err	err	wh/0382.bmp
399.60	0.72	546	2	7	42	per	con	low	mod	low	nt	cr	nh/0934_nh.bmp
400.32	0.72	547	4	7	4	mem	con	mod	mod	low	tg	ms	wh/0080.bmp
401.04	0.72	548	5	7	4	mem	con	mod	mod	low	tg	ms	wh/0080.bmp
401.76	0.72	549	5	8	67	per	con	mod	mod	mod	tg	ht	wh/0398.bmp
402.48	0.72	550	4	8	105	mem	con	mod	mod	mod	tg	ms	wh/0543.bmp
403.20	0.72	551	1	7	28	per	lib	low	low	low	nt	fa	nh/0206_nh.bmp
403.92	0.72	552	5	err	err	err	err	err	err	err	err	err	wh/0947.bmp
404.64	0.72	553	3	7	69	per	lib	mod	mod	mod	tg	ht	wh/0876.bmp
405.36	0.72	554	4	7	5	mem	con	mod	mod	low	tg	ms	wh/0940.bmp
406.08	0.72	555	5	7	81	mem	lib	mod	mod	mod	tg	ht	wh/0187.bmp
406.80	0.72	556	4	6	108	mem	con	mod	mod	low	tg	ms	wh/0818.bmp
407.52	0.72	557	1	err	err	err	err	err	err	err	err	err	wh/0431.bmp
408.24	0.72	558	5	err	err	err	err	err	err	err	err	err	wh/0329.bmp
408.96	0.72	559	6	err	err	err	err	err	err	err	err	err	wh/0462.bmp
409.68	0.72	560	5	6	13	per	lib	low	mod	low	tg	ht	wh/0489.bmp
410.40	0.72	561	5	8	100	mem	con	mod	mod	mod	nt	ms	nh/0714_nh.bmp
411.12	0.72	562	5	7	68	per	lib	mod	mod	mod	tg	ht	wh/0095.bmp
411.84	0.72	563	3	5	37	mem	con	mod	mod	mod	tg	ht	wh/0716.bmp
412.56	0.72	564	4	6	9	per	lib	low	mod	low	nt	fa	nh/0568_nh.bmp
413.28	0.72	565	1	7	115	mem	lib	low	low	mod	nt	ht	nh/0927_nh.bmp
414.00	0.72	566	1	8	125	mem	lib	low	low	low	tg	ht	wh/0823.bmp
414.72	0.72	567	1	7	101	per	con	mod	low	mod	nt	cr	nh/0044_nh.bmp
415.44	0.72	568	2	8	98	mem	con	mod	mod	mod	tg	ms	wh/0680.bmp
416.16	0.72	569	4	7	75	per	lib	mod	mod	mod	nt	fa	nh/0497_nh.bmp
416.88	0.72	570	4	8	72	per	con	mod	mod	mod	tg	ht	wh/0902.bmp
417.60	0.72	571	5	8	77	per	con	mod	mod	mod	nt	cr	nh/0442_nh.bmp
418.32	0.72	572	1	7	106	per	con	mod	low	mod	nt	cr	nh/0729_nh.bmp
419.04	0.72	573	4	6	14	per	lib	low	mod	low	tg	ht	wh/0029.bmp
419.76	0.72	574	4	7	15	mem	con	mod	mod	low	nt	ms	nh/0194_nh.bmp
420.48	0.72	575	4	7	34	per	con	low	mod	low	nt	cr	nh/1023_nh.bmp
421.20	0.72	576	4	5	45	mem	con	mod	mod	mod	nt	ms	nh/0909_nh.bmp
421.92	0.72	577	5	err	err	err	err	err	err	err	err	err	wh/0382.bmp
422.64	0.72	578	3	8	98	mem	con	mod	mod	mod	tg	ms	wh/0680.bmp
423.36	0.72	579	5	6	14	per	lib	low	mod	low	tg	ht	wh/0029.bmp
424.08	0.72	580	5	7	46	per	con	low	mod	low	nt	cr	nh/0493_nh.bmp
424.80	0.72	581	5	7	36	per	con	low	mod	low	tg	ms	wh/0082.bmp
425.52	0.72	582	6	6	14	per	lib	low	mod	low	tg	ht	wh/0029.bmp
426.24	0.72	583	6	6	12	per	lib	low	mod	low	nt	fa	nh/0503_nh.bmp
426.96	0.72	584	3	err	err	err	err	err	err	err	err	err	wh/0593.bmp
427.68	0.72	585	1	5	93	mem	con	low	low	mod	tg	ms	wh/0838.bmp
428.40	0.72	586	5	err	err	err	err	err	err	err	err	err	nh/0153_nh.bmp
429.12	0.72	587	4	7	38	per	con	low	mod	low	nt	cr	nh/0123_nh.bmp
429.84	0.72	588	3	8	85	per	lib	low	mod	low	tg	ms	wh/0967.bmp
430.56	0.72	589	5	7	1	mem	con	mod	mod	low	tg	ms	wh/0032.bmp
431.28	0.72	590	4	7	82	mem	lib	mod	mod	mod	nt	ht	nh/0941_nh.bmp
432.00	0.72	591	5	8	99	mem	con	mod	mod	mod	nt	ms	nh/0446_nh.bmp
432.72	0.72	592	6	err	err	err	err	err	err	err	err	err	wh/0947.bmp
433.44	0.72	593	4	7	89	mem	lib	mod	mod	mod	tg	ht	wh/0319.bmp
434.16	0.72	594	5	7	15	mem	con	mod	mod	low	nt	ms	nh/0194_nh.bmp
434.88	0.72	595	3	err	err	err	err	err	err	err	err	err	nh/0273_nh.bmp
435.60	0.72	596	2	6	102	mem	con	mod	mod	low	nt	ms	nh/0690_nh.bmp
436.32	0.72	597	5	6	9	per	lib	low	mod	low	nt	fa	nh/0568_nh.bmp
437.04	0.72	598	5	err	err	err	err	err	err	err	err	err	nh/0428_nh.bmp
437.76	0.72	599	1	8	113	mem	lib	low	low	low	tg	ht	wh/0507.bmp
438.48	0.72	600	6	8	74	per	con	mod	mod	mod	nt	cr	nh/0380_nh.bmp
439.20	0.72	601	1	8	27	per	con	low	low	low	nt	cr	nh/0223_nh.bmp
439.92	0.72	602	1	6	28	mem	lib	low	low	low	nt	ht	nh/0055_nh.bmp
440.64	0.72	603	2	err	err	err	err	err	err	err	err	err	nh/0447_nh.bmp
441.36	0.72	604	5	5	45	mem	con	mod	mod	mod	nt	ms	nh/0909_nh.bmp
442.08	0.72	605	5	7	89	mem	lib	mod	mod	mod	tg	ht	wh/0319.bmp
442.80	0.72	606	6	err	err	err	err	err	err	err	err	err	nh/0153_nh.bmp
443.52	0.72	607	5	8	51	mem	lib	mod	mod	low	nt	ht	nh/0404_nh.bmp
444.24	0.72	608	4	8	82	per	lib	low	mod	low	nt	fa	nh/0125_nh.bmp
444.96	0.72	609	3	6	102	mem	con	mod	mod	low	nt	ms	nh/0690_nh.bmp
445.68	0.72	610	6	6	2	per	lib	low	mod	low	tg	ms	wh/0619.bmp
446.40	0.72	611	3	7	70	per	lib	mod	mod	mod	nt	cr	nh/0588_nh.bmp
447.12	0.72	612	6	7	4	mem	con	mod	mod	low	tg	ms	wh/0080.bmp
447.84	0.72	613	3	err	err	err	err	err	err	err	err	err	nh/0510_nh.bmp
448.56	0.72	614	4	8	106	mem	con	mod	mod	mod	tg	ms	wh/0542.bmp
449.28	0.72	615	5	err	err	err	err	err	err	err	err	err	wh/0284.bmp
450.00	0.72	616	1	6	29	mem	lib	low	low	low	tg	ht	wh/0513.bmp
450.72	0.72	617	4	err	err	err	err	err	err	err	err	err	nh/0273_nh.bmp
451.44	0.72	618	1	6	24	mem	lib	low	low	low	tg	ht	wh/0458.bmp
452.16	0.72	619	4	err	err	err	err	err	err	err	err	err	nh/0802_nh.bmp
452.88	0.72	620	4	8	57	mem	lib	mod	mod	low	tg	ht	wh/0256.bmp
453.60	0.72	621	4	7	70	per	lib	mod	mod	mod	nt	cr	nh/0588_nh.bmp
454.32	0.72	622	6	err	err	err	err	err	err	err	err	err	wh/0650.bmp
455.04	0.72	623	6	8	100	mem	con	mod	mod	mod	nt	ms	nh/0714_nh.bmp
455.76	0.72	624	4	7	94	mem	lib	mod	mod	mod	nt	ht	nh/0874_nh.bmp
456.48	0.72	625	1	5	20	per	lib	low	low	low	nt	fa	nh/0370_nh.bmp
457.20	0.72	626	5	err	err	err	err	err	err	err	err	err	wh/0451.bmp
457.92	0.72	627	4	7	8	mem	con	mod	mod	low	nt	ms	nh/0963_nh.bmp
458.64	0.72	628	1	8	46	per	lib	mod	low	mod	nt	fa	nh/0721_nh.bmp
459.36	0.72	629	5	err	err	err	err	err	err	err	err	err	wh/0079.bmp
460.08	0.72	630	6	err	err	err	err	err	err	err	err	err	nh/0962_nh.bmp
460.80	0.72	631	5	6	112	mem	con	mod	mod	low	nt	ms	nh/0443_nh.bmp
461.52	0.72	632	4	5	37	mem	con	mod	mod	mod	tg	ht	wh/0716.bmp
462.24	0.72	633	1	7	51	mem	con	low	low	low	nt	ms	nh/0173_nh.bmp
462.96	0.72	634	3	6	97	mem	con	mod	mod	low	nt	ms	nh/0760_nh.bmp
463.68	0.72	635	5	7	34	per	con	low	mod	low	nt	cr	nh/1023_nh.bmp
464.40	0.72	636	5	7	82	mem	lib	mod	mod	mod	nt	ht	nh/0941_nh.bmp
465.12	0.72	637	3	6	105	mem	con	mod	mod	low	tg	ms	wh/0036.bmp
465.84	0.72	638	5	5	34	mem	con	mod	mod	mod	tg	ms	wh/0807.bmp
466.56	0.72	639	1	6	52	mem	con	low	low	low	tg	ms	wh/0711.bmp
467.28	0.72	640	4	err	err	err	err	err	err	err	err	err	nh/0613_nh.bmp
468.00	0.72	641	4	err	err	err	err	err	err	err	err	err	nh/0957_nh.bmp
468.72	0.72	642	4	8	60	mem	lib	mod	mod	low	tg	ht	wh/0758.bmp
469.44	0.72	643	5	8	93	per	lib	low	mod	low	tg	ht	wh/0074.bmp
470.16	0.72	644	4	5	36	mem	con	mod	mod	mod	tg	ms	wh/0772.bmp
470.88	0.72	645	6	err	err	err	err	err	err	err	err	err	nh/0428_nh.bmp
471.60	0.72	646	4	err	err	err	err	err	err	err	err	err	nh/0946_nh.bmp
472.32	0.72	647	1	8	22	per	con	low	low	low	tg	ms	wh/0158.bmp
473.04	0.72	648	3	6	104	mem	con	mod	mod	low	tg	ms	wh/0232.bmp
473.76	0.72	649	6	6	112	mem	con	mod	mod	low	nt	ms	nh/0443_nh.bmp
474.48	0.72	650	3	err	err	err	err	err	err	err	err	err	wh/0150.bmp
475.20	0.72	651	5	err	err	err	err	err	err	err	err	err	nh/0345_nh.bmp
475.92	0.72	652	5	7	38	per	con	low	mod	low	nt	cr	nh/0123_nh.bmp
476.64	0.72	653	4	6	104	mem	con	mod	mod	low	tg	ms	wh/0232.bmp
477.36	0.72	654	4	7	39	per	con	low	mod	low	tg	n/a	wh/0964.bmp
478.08	0.72	655	1	7	29	per	lib	low	low	low	tg	ht	wh/0571.bmp
478.80	0.72	656	3	8	56	mem	lib	mod	mod	low	nt	ht	nh/0730_nh.bmp
479.52	0.72	657	5	8	57	mem	lib	mod	mod	low	tg	ht	wh/0256.bmp
480.24	0.72	658	4	6	102	mem	con	mod	mod	low	nt	ms	nh/0690_nh.bmp
480.96	0.72	659	6	7	68	per	lib	mod	mod	mod	tg	ht	wh/0095.bmp
481.68	0.72	660	4	err	err	err	err	err	err	err	err	err	nh/0548_nh.bmp
482.40	0.72	661	4	err	err	err	err	err	err	err	err	err	nh/0748_nh.bmp
483.12	0.72	662	4	6	105	mem	con	mod	mod	low	tg	ms	wh/0036.bmp
483.84	0.72	663	5	7	93	mem	lib	mod	mod	mod	tg	ht	wh/0855.bmp
484.56	0.72	664	1	7	116	mem	lib	low	low	mod	tg	ht	wh/0890.bmp
485.28	0.72	665	5	err	err	err	err	err	err	err	err	err	nh/0802_nh.bmp
486.00	0.72	666	5	7	72	per	lib	mod	mod	mod	tg	ht	wh/0954.bmp
486.72	0.72	667	4	err	err	err	err	err	err	err	err	err	wh/0150.bmp
487.44	0.72	668	3	err	err	err	err	err	err	err	err	err	nh/0784_nh.bmp
488.16	0.72	669	5	8	106	mem	con	mod	mod	mod	tg	ms	wh/0542.bmp
488.88	0.72	670	6	6	4	per	lib	low	mod	low	tg	ht	wh/0893.bmp
489.60	0.72	671	4	8	59	mem	lib	mod	mod	low	nt	ht	nh/0355_nh.bmp
490.32	0.72	672	5	5	39	mem	con	mod	mod	mod	nt	ms	nh/0928_nh.bmp
491.04	0.72	673	5	7	70	per	lib	mod	mod	mod	nt	cr	nh/0588_nh.bmp
491.76	0.72	674	4	7	13	mem	con	mod	mod	low	tg	ms	wh/0646.bmp
492.48	0.72	675	5	7	71	per	lib	mod	mod	mod	nt	cr	nh/0396_nh.bmp
493.20	0.72	676	5	err	err	err	err	err	err	err	err	err	nh/0946_nh.bmp
493.92	0.72	677	5	err	err	err	err	err	err	err	err	err	nh/0613_nh.bmp
494.64	0.72	678	1	8	44	per	lib	mod	low	mod	nt	cr	nh/0038_nh.bmp
495.36	0.72	679	6	err	err	err	err	err	err	err	err	err	nh/0338_nh.bmp
496.08	0.72	680	5	8	82	per	lib	low	mod	low	nt	fa	nh/0125_nh.bmp
496.80	0.72	681	4	err	err	err	err	err	err	err	err	err	nh/0563_nh.bmp
497.52	0.72	682	5	8	59	mem	lib	mod	mod	low	nt	ht	nh/0355_nh.bmp
498.24	0.72	683	4	5	44	mem	con	mod	mod	mod	nt	ht	nh/0371_nh.bmp
498.96	0.72	684	6	7	89	mem	lib	mod	mod	mod	tg	ht	wh/0319.bmp
499.68	0.72	685	6	8	99	mem	con	mod	mod	mod	nt	ms	nh/0446_nh.bmp
500.40	0.72	686	1	7	19	per	lib	low	low	low	tg	ms	wh/0695.bmp
501.12	0.72	687	4	8	85	per	lib	low	mod	low	tg	ms	wh/0967.bmp
501.84	0.72	688	5	6	107	mem	con	mod	mod	low	tg	ms	wh/0077.bmp
502.56	0.72	689	5	6	108	mem	con	mod	mod	low	tg	ms	wh/0818.bmp
503.28	0.72	690	5	8	97	mem	con	mod	mod	mod	nt	ms	nh/0196_nh.bmp
504.00	0.72	691	5	err	err	err	err	err	err	err	err	err	nh/0957_nh.bmp
504.72	0.72	692	5	7	65	per	lib	mod	mod	mod	nt	fa	nh/0843_nh.bmp
505.44	0.72	693	6	err	err	err	err	err	err	err	err	err	nh/0613_nh.bmp
506.16	0.72	694	6	err	err	err	err	err	err	err	err	err	wh/0973.bmp
506.88	0.72	695	1	6	55	mem	con	low	low	low	tg	ms	wh/0053.bmp
507.60	0.72	696	5	err	err	err	err	err	err	err	err	err	wh/0299.bmp
508.32	0.72	697	1	err	err	err	err	err	err	err	err	err	wh/0469.bmp
509.04	0.72	698	4	err	err	err	err	err	err	err	err	err	nh/0209_nh.bmp
509.76	0.72	699	5	7	75	per	lib	mod	mod	mod	nt	fa	nh/0497_nh.bmp
510.48	0.72	700	6	err	err	err	err	err	err	err	err	err	wh/0329.bmp
511.20	0.72	701	5	8	72	per	con	mod	mod	mod	tg	ht	wh/0902.bmp
511.92	0.72	702	1	7	55	mem	con	low	low	low	tg	ms	wh/0460.bmp
512.64	0.72	703	5	8	86	per	lib	low	mod	low	nt	fa	nh/0465_nh.bmp
513.36	0.72	704	6	8	97	mem	con	mod	mod	mod	nt	ms	nh/0196_nh.bmp
514.08	0.72	705	4	6	111	mem	con	mod	mod	low	nt	ms	nh/0361_nh.bmp
514.80	0.72	706	4	err	err	err	err	err	err	err	err	err	nh/0784_nh.bmp
515.52	0.72	707	3	7	42	per	con	low	mod	low	nt	cr	nh/0934_nh.bmp
516.24	0.72	708	1	8	20	per	con	low	low	low	tg	ms	wh/0266.bmp
516.96	0.72	709	4	err	err	err	err	err	err	err	err	err	wh/0593.bmp
517.68	0.72	710	1	7	118	mem	lib	low	low	mod	tg	ht	wh/0129.bmp
518.40	0.72	711	3	8	63	mem	lib	mod	mod	low	tg	ht	wh/0364.bmp
519.12	0.72	712	5	6	3	per	lib	low	mod	low	nt	fa	nh/0508_nh.bmp
519.84	0.72	713	5	err	err	err	err	err	err	err	err	err	nh/0805_nh.bmp
520.56	0.72	714	6	err	err	err	err	err	err	err	err	err	nh/0802_nh.bmp
521.28	0.72	715	5	6	105	mem	con	mod	mod	low	tg	ms	wh/0036.bmp
522.00	0.72	716	5	8	53	mem	lib	mod	mod	low	tg	ht	wh/0351.bmp
522.72	0.72	717	6	7	81	mem	lib	mod	mod	mod	tg	ht	wh/0187.bmp
523.44	0.72	718	5	7	41	per	con	low	mod	low	tg	ms	wh/0608.bmp
524.16	0.72	719	5	5	37	mem	con	mod	mod	mod	tg	ht	wh/0716.bmp
524.88	0.72	720	6	5	34	mem	con	mod	mod	mod	tg	ms	wh/0807.bmp
525.60	0.72	721	5	7	39	per	con	low	mod	low	tg	n/a	wh/0964.bmp
526.32	0.72	722	6	7	46	per	con	low	mod	low	nt	cr	nh/0493_nh.bmp
527.04	0.72	723	6	7	66	per	lib	mod	mod	mod	tg	ht	wh/0697.bmp
527.76	0.72	724	5	8	60	mem	lib	mod	mod	low	tg	ht	wh/0758.bmp
528.48	0.72	725	4	err	err	err	err	err	err	err	err	err	nh/0510_nh.bmp
529.20	0.72	726	5	5	36	mem	con	mod	mod	mod	tg	ms	wh/0772.bmp
529.92	0.72	727	6	5	45	mem	con	mod	mod	mod	nt	ms	nh/0909_nh.bmp
530.64	0.72	728	6	err	err	err	err	err	err	err	err	err	wh/0451.bmp
531.36	0.72	729	5	8	85	per	lib	low	mod	low	tg	ms	wh/0967.bmp
532.08	0.72	730	6	err	err	err	err	err	err	err	err	err	wh/0904.bmp
532.80	0.72	731	5	err	err	err	err	err	err	err	err	err	nh/0510_nh.bmp
533.52	0.72	732	4	err	err	err	err	err	err	err	err	err	nh/0417_nh.bmp
534.24	0.72	733	5	6	104	mem	con	mod	mod	low	tg	ms	wh/0232.bmp
534.96	0.72	734	4	7	42	per	con	low	mod	low	nt	cr	nh/0934_nh.bmp
535.68	0.72	735	4	6	97	mem	con	mod	mod	low	nt	ms	nh/0760_nh.bmp
536.40	0.72	736	1	7	128	mem	lib	low	low	mod	nt	ht	nh/0520_nh.bmp
537.12	0.72	737	4	8	56	mem	lib	mod	mod	low	nt	ht	nh/0730_nh.bmp
537.84	0.72	738	5	err	err	err	err	err	err	err	err	err	nh/0563_nh.bmp
538.56	0.72	739	6	7	36	per	con	low	mod	low	tg	ms	wh/0082.bmp
539.28	0.72	740	5	7	42	per	con	low	mod	low	nt	cr	nh/0934_nh.bmp
540.00	0.72	741	5	6	97	mem	con	mod	mod	low	nt	ms	nh/0760_nh.bmp
540.72	0.72	742	5	6	102	mem	con	mod	mod	low	nt	ms	nh/0690_nh.bmp
541.44	0.72	743	5	err	err	err	err	err	err	err	err	err	wh/0150.bmp
542.16	0.72	744	6	5	36	mem	con	mod	mod	mod	tg	ms	wh/0772.bmp
542.88	0.72	745	4	8	63	mem	lib	mod	mod	low	tg	ht	wh/0364.bmp
543.60	0.72	746	1	err	err	err	err	err	err	err	err	err	nh/0992_nh.bmp
544.32	0.72	747	6	err	err	err	err	err	err	err	err	err	wh/0079.bmp
545.04	0.72	748	5	7	8	mem	con	mod	mod	low	nt	ms	nh/0963_nh.bmp
545.76	0.72	749	5	8	71	per	con	mod	mod	mod	nt	cr	nh/0795_nh.bmp
546.48	0.72	750	6	8	60	mem	lib	mod	mod	low	tg	ht	wh/0758.bmp
547.20	0.72	751	6	err	err	err	err	err	err	err	err	err	wh/0182.bmp
547.92	0.72	752	5	7	13	mem	con	mod	mod	low	tg	ms	wh/0646.bmp
548.64	0.72	753	5	err	err	err	err	err	err	err	err	err	nh/0273_nh.bmp
549.36	0.72	754	5	8	56	mem	lib	mod	mod	low	nt	ht	nh/0730_nh.bmp
550.08	0.72	755	6	err	err	err	err	err	err	err	err	err	wh/0350.bmp
550.80	0.72	756	6	8	86	per	lib	low	mod	low	nt	fa	nh/0465_nh.bmp
551.52	0.72	757	6	err	err	err	err	err	err	err	err	err	wh/0810.bmp
552.24	0.72	758	6	7	72	per	lib	mod	mod	mod	tg	ht	wh/0954.bmp
552.96	0.72	759	5	5	44	mem	con	mod	mod	mod	nt	ht	nh/0371_nh.bmp
553.68	0.72	760	6	6	97	mem	con	mod	mod	low	nt	ms	nh/0760_nh.bmp
554.40	0.72	761	5	7	5	mem	con	mod	mod	low	tg	ms	wh/0940.bmp
555.12	0.72	762	6	8	67	per	con	mod	mod	mod	tg	ht	wh/0398.bmp
555.84	0.72	763	6	err	err	err	err	err	err	err	err	err	wh/0397.bmp
556.56	0.72	764	1	7	114	mem	lib	low	low	mod	tg	ht	wh/0525.bmp
557.28	0.72	765	6	8	84	per	lib	low	mod	low	tg	ht	wh/0190.bmp
558.00	0.72	766	5	7	90	mem	lib	mod	mod	mod	nt	ht	nh/0222_nh.bmp
558.72	0.72	767	1	6	61	mem	con	low	low	low	tg	ms	wh/0090.bmp
559.44	0.72	768	6	8	59	mem	lib	mod	mod	low	nt	ht	nh/0355_nh.bmp
560.16	0.72	769	6	err	err	err	err	err	err	err	err	err	nh/0273_nh.bmp
560.88	0.72	770	6	8	53	mem	lib	mod	mod	low	tg	ht	wh/0351.bmp
561.60	0.72	771	1	5	94	mem	con	low	low	mod	nt	ms	nh/1024_nh.bmp
562.32	0.72	772	6	7	82	mem	lib	mod	mod	mod	nt	ht	nh/0941_nh.bmp
563.04	0.72	773	1	8	42	per	lib	mod	low	mod	nt	fa	nh/0846_nh.bmp
563.76	0.72	774	6	7	90	mem	lib	mod	mod	mod	nt	ht	nh/0222_nh.bmp
564.48	0.72	775	6	8	72	per	con	mod	mod	mod	tg	ht	wh/0902.bmp
565.20	0.72	776	6	5	42	mem	con	mod	mod	mod	tg	ms	wh/0540.bmp
565.92	0.72	777	6	6	3	per	lib	low	mod	low	nt	fa	nh/0508_nh.bmp
566.64	0.72	778	5	8	101	mem	con	mod	mod	mod	tg	ms	wh/0594.bmp
567.36	0.72	779	1	7	98	per	con	mod	low	mod	tg	ms	wh/0569.bmp
568.08	0.72	780	6	err	err	err	err	err	err	err	err	err	nh/0957_nh.bmp
568.80	0.72	781	6	err	err	err	err	err	err	err	err	err	wh/0299.bmp
569.52	0.72	782	1	8	28	per	con	low	low	low	nt	cr	nh/0536_nh.bmp
570.24	0.72	783	6	8	71	per	con	mod	mod	mod	nt	cr	nh/0795_nh.bmp
570.96	0.72	784	6	6	108	mem	con	mod	mod	low	tg	ms	wh/0818.bmp
571.68	0.72	785	4	7	69	per	lib	mod	mod	mod	tg	ht	wh/0876.bmp
572.40	0.72	786	4	7	48	per	con	low	mod	low	tg	ms	wh/0635.bmp
573.12	0.72	787	6	err	err	err	err	err	err	err	err	err	nh/0345_nh.bmp
573.84	0.72	788	6	8	51	mem	lib	mod	mod	low	nt	ht	nh/0404_nh.bmp
574.56	0.72	789	6	8	82	per	lib	low	mod	low	nt	fa	nh/0125_nh.bmp
575.28	0.72	790	1	8	41	per	lib	mod	low	mod	nt	fa	nh/0652_nh.bmp
576.00	0.72	791	5	7	95	mem	lib	mod	mod	mod	tg	ht	wh/0094.bmp
576.72	0.72	792	5	7	94	mem	lib	mod	mod	mod	nt	ht	nh/0874_nh.bmp
577.44	0.72	793	5	7	69	per	lib	mod	mod	mod	tg	ht	wh/0876.bmp
578.16	0.72	794	6	7	38	per	con	low	mod	low	nt	cr	nh/0123_nh.bmp
578.88	0.72	795	6	5	39	mem	con	mod	mod	mod	nt	ms	nh/0928_nh.bmp
579.60	0.72	796	5	8	105	mem	con	mod	mod	mod	tg	ms	wh/0543.bmp
580.32	0.72	797	3	err	err	err	err	err	err	err	err	err	nh/0447_nh.bmp
581.04	0.72	798	5	err	err	err	err	err	err	err	err	err	nh/0548_nh.bmp
581.76	0.72	799	6	5	44	mem	con	mod	mod	mod	nt	ht	nh/0371_nh.bmp
582.48	0.72	800	5	err	err	err	err	err	err	err	err	err	wh/0593.bmp
583.20	0.72	801	1	5	51	mem	lib	low	low	mod	nt	ht	nh/0936_nh.bmp
583.92	0.72	802	5	err	err	err	err	err	err	err	err	err	nh/0784_nh.bmp
584.64	0.72	803	6	8	88	per	lib	low	mod	low	tg	ht	wh/0075.bmp
585.36	0.72	804	6	err	err	err	err	err	err	err	err	err	nh/0134_nh.bmp
586.08	0.72	805	6	err	err	err	err	err	err	err	err	err	nh/0946_nh.bmp
586.80	0.72	806	5	8	89	per	lib	low	mod	low	nt	fa	nh/0238_nh.bmp
587.52	0.72	807	1	7	122	mem	lib	low	low	mod	tg	ht	wh/0718.bmp
588.24	0.72	808	4	8	98	mem	con	mod	mod	mod	tg	ms	wh/0680.bmp
588.96	0.72	809	6	err	err	err	err	err	err	err	err	err	wh/0150.bmp
589.68	0.72	810	1	7	31	per	lib	low	low	low	nt	fa	nh/0452_nh.bmp
590.40	0.72	811	5	err	err	err	err	err	err	err	err	err	nh/0748_nh.bmp
591.12	0.72	812	1	6	27	mem	lib	low	low	low	nt	ht	nh/0433_nh.bmp
591.84	0.72	813	6	5	37	mem	con	mod	mod	mod	tg	ht	wh/0716.bmp
592.56	0.72	814	3	err	err	err	err	err	err	err	err	err	wh/0558.bmp
593.28	0.72	815	6	7	70	per	lib	mod	mod	mod	nt	cr	nh/0588_nh.bmp
594.00	0.72	816	6	7	13	mem	con	mod	mod	low	tg	ms	wh/0646.bmp
594.72	0.72	817	5	err	err	err	err	err	err	err	err	err	wh/0336.bmp
595.44	0.72	818	6	8	68	per	con	mod	mod	mod	nt	cr	nh/0684_nh.bmp
596.16	0.72	819	5	6	111	mem	con	mod	mod	low	nt	ms	nh/0361_nh.bmp
596.88	0.72	820	6	err	err	err	err	err	err	err	err	err	nh/0784_nh.bmp
597.60	0.72	821	1	6	53	mem	con	low	low	low	nt	ms	nh/0088_nh.bmp
598.32	0.72	822	5	8	98	mem	con	mod	mod	mod	tg	ms	wh/0680.bmp
599.04	0.72	823	4	err	err	err	err	err	err	err	err	err	wh/0558.bmp
599.76	0.72	824	5	7	48	per	con	low	mod	low	tg	ms	wh/0635.bmp
600.48	0.72	825	6	6	107	mem	con	mod	mod	low	tg	ms	wh/0077.bmp
601.20	0.72	826	6	7	71	per	lib	mod	mod	mod	nt	cr	nh/0396_nh.bmp
601.92	0.72	827	6	7	1	mem	con	mod	mod	low	tg	ms	wh/0032.bmp
602.64	0.72	828	6	err	err	err	err	err	err	err	err	err	wh/0593.bmp
603.36	0.72	829	6	8	75	per	con	mod	mod	mod	tg	ms	wh/0591.bmp
604.08	0.72	830	1	8	114	mem	lib	low	low	low	tg	ht	wh/0633.bmp
604.80	0.72	831	6	7	8	mem	con	mod	mod	low	nt	ms	nh/0963_nh.bmp
605.52	0.72	832	6	6	104	mem	con	mod	mod	low	tg	ms	wh/0232.bmp
606.24	0.72	833	6	7	85	mem	lib	mod	mod	mod	nt	ht	nh/0199_nh.bmp
606.96	0.72	834	6	6	105	mem	con	mod	mod	low	tg	ms	wh/0036.bmp
607.68	0.72	835	1	err	err	err	err	err	err	err	err	err	wh/0598.bmp
608.40	0.72	836	1	err	err	err	err	err	err	err	err	err	nh/0215_nh.bmp
609.12	0.72	837	5	err	err	err	err	err	err	err	err	err	wh/0339.bmp
609.84	0.72	838	5	8	63	mem	lib	mod	mod	low	tg	ht	wh/0364.bmp
610.56	0.72	839	6	err	err	err	err	err	err	err	err	err	wh/0284.bmp
611.28	0.72	840	6	err	err	err	err	err	err	err	err	err	nh/0805_nh.bmp
612.00	0.72	841	5	err	err	err	err	err	err	err	err	err	nh/0209_nh.bmp
612.72	0.72	842	6	err	err	err	err	err	err	err	err	err	nh/0748_nh.bmp
613.44	0.72	843	6	6	111	mem	con	mod	mod	low	nt	ms	nh/0361_nh.bmp
614.16	0.72	844	6	7	3	mem	con	mod	mod	low	nt	ms	nh/0035_nh.bmp
614.88	0.72	845	5	err	err	err	err	err	err	err	err	err	wh/0558.bmp
615.60	0.72	846	6	8	98	mem	con	mod	mod	mod	tg	ms	wh/0680.bmp
616.32	0.72	847	1	5	23	per	lib	low	low	low	nt	fa	nh/0701_nh.bmp
617.04	0.72	848	4	err	err	err	err	err	err	err	err	err	nh/0447_nh.bmp
617.76	0.72	849	1	6	20	mem	lib	low	low	low	tg	ht	wh/0845.bmp
618.48	0.72	850	6	7	34	per	con	low	mod	low	nt	cr	nh/1023_nh.bmp
619.20	0.72	851	6	err	err	err	err	err	err	err	err	err	wh/0336.bmp
619.92	0.72	852	6	err	err	err	err	err	err	err	err	err	nh/0209_nh.bmp
620.64	0.72	853	6	err	err	err	err	err	err	err	err	err	wh/0339.bmp
621.36	0.72	854	6	err	err	err	err	err	err	err	err	err	nh/0563_nh.bmp
622.08	0.72	855	5	err	err	err	err	err	err	err	err	err	nh/0447_nh.bmp
622.80	0.72	856	6	8	93	per	lib	low	mod	low	tg	ht	wh/0074.bmp
623.52	0.72	857	6	8	85	per	lib	low	mod	low	tg	ms	wh/0967.bmp
624.24	0.72	858	6	err	err	err	err	err	err	err	err	err	nh/0447_nh.bmp
624.96	0.72	859	6	7	65	per	lib	mod	mod	mod	nt	fa	nh/0843_nh.bmp
625.68	0.72	860	6	6	13	per	lib	low	mod	low	tg	ht	wh/0489.bmp
626.40	0.72	861	6	8	63	mem	lib	mod	mod	low	tg	ht	wh/0364.bmp
627.12	0.72	862	6	7	39	per	con	low	mod	low	tg	n/a	wh/0964.bmp
627.84	0.72	863	5	err	err	err	err	err	err	err	err	err	nh/0417_nh.bmp
628.56	0.72	864	6	7	69	per	lib	mod	mod	mod	tg	ht	wh/0876.bmp
629.28	0.72	865	6	6	9	per	lib	low	mod	low	nt	fa	nh/0568_nh.bmp
630.00	0.72	866	6	7	42	per	con	low	mod	low	nt	cr	nh/0934_nh.bmp
630.72	0.72	867	1	5	55	mem	lib	low	low	mod	tg	ht	wh/0530.bmp
631.44	0.72	868	1	8	16	mem	con	low	low	mod	tg	ms	wh/0699.bmp
632.16	0.72	869	6	7	5	mem	con	mod	mod	low	tg	ms	wh/0940.bmp
632.88	0.72	870	6	8	89	per	lib	low	mod	low	nt	fa	nh/0238_nh.bmp
633.60	0.72	871	6	7	93	mem	lib	mod	mod	mod	tg	ht	wh/0855.bmp
634.32	0.72	872	6	err	err	err	err	err	err	err	err	err	nh/0417_nh.bmp
635.04	0.72	873	1	err	err	err	err	err	err	err	err	err	wh/0059.bmp
635.76	0.72	874	1	6	49	mem	con	low	low	low	tg	ms	wh/0197.bmp
636.48	0.72	875	6	err	err	err	err	err	err	err	err	err	wh/0382.bmp
637.20	0.72	876	6	err	err	err	err	err	err	err	err	err	wh/0558.bmp
637.92	0.72	877	6	err	err	err	err	err	err	err	err	err	nh/0548_nh.bmp
638.64	0.72	878	6	8	105	mem	con	mod	mod	mod	tg	ms	wh/0543.bmp
639.36	0.72	879	6	7	15	mem	con	mod	mod	low	nt	ms	nh/0194_nh.bmp
640.08	0.72	880	6	7	41	per	con	low	mod	low	tg	ms	wh/0608.bmp
640.80	0.72	881	1	5	86	mem	con	low	low	mod	tg	ms	wh/1018.bmp
641.52	0.72	882	1	8	5	mem	con	low	low	mod	nt	ms	nh/0092_nh.bmp
642.24	0.72	883	6	7	75	per	lib	mod	mod	mod	nt	fa	nh/0497_nh.bmp
642.96	0.72	884	6	8	77	per	con	mod	mod	mod	nt	cr	nh/0442_nh.bmp
643.68	0.72	885	6	5	48	mem	con	mod	mod	mod	nt	ms	nh/0803_nh.bmp
644.40	0.72	886	6	7	48	per	con	low	mod	low	tg	ms	wh/0635.bmp
645.12	0.72	887	6	6	102	mem	con	mod	mod	low	nt	ms	nh/0690_nh.bmp
645.84	0.72	888	6	8	106	mem	con	mod	mod	mod	tg	ms	wh/0542.bmp
646.56	0.72	889	6	8	101	mem	con	mod	mod	mod	tg	ms	wh/0594.bmp
647.28	0.72	890	6	8	56	mem	lib	mod	mod	low	nt	ht	nh/0730_nh.bmp
648.00	0.72	891	1	7	52	mem	con	low	low	low	tg	ms	wh/0013.bmp
648.72	0.72	892	6	8	57	mem	lib	mod	mod	low	tg	ht	wh/0256.bmp
649.44	0.72	893	6	7	95	mem	lib	mod	mod	mod	tg	ht	wh/0094.bmp
650.16	0.72	894	6	8	80	per	con	mod	mod	mod	tg	ms	wh/0328.bmp
650.88	0.72	895	6	7	94	mem	lib	mod	mod	mod	nt	ht	nh/0874_nh.bmp
651.60	0.72	896	6	err	err	err	err	err	err	err	err	err	nh/0510_nh.bmp
