onset	duration	trial	pres	ts_blk	ts_trl	task	crit	disc	mem_disc	per_disc	per_type	accuracy	stim_file
7.20	0.72	1	1	1	71	per	lib	mod	mod	mod	tg	ms	wh/0975.bmp
7.92	0.72	2	1	1	66	per	lib	mod	mod	mod	nt	fa	nh/0189_nh.bmp
8.64	0.72	3	1	4	122	mem	lib	mod	mod	mod	nt	ms	nh/0935_nh.bmp
9.36	0.72	4	1	2	29	mem	lib	mod	mod	mod	tg	ht	wh/0463.bmp
10.08	0.72	5	1	1	42	per	con	mod	mod	mod	tg	ms	wh/0637.bmp
10.80	0.72	6	1	4	101	mem	con	mod	mod	low	tg	ms	wh/0868.bmp
11.52	0.72	7	1	1	61	per	lib	low	mod	low	tg	ht	wh/1021.bmp
12.24	0.72	8	1	3	113	mem	con	mod	mod	mod	nt	ht	nh/0857_nh.bmp
12.96	0.72	9	1	4	42	mem	lib	low	low	mod	nt	ht	nh/0303_nh.bmp
13.68	0.72	10	1	1	101	mem	lib	mod	mod	low	tg	ht	wh/0515.bmp
14.40	0.72	11	1	4	70	per	con	mod	mod	mod	nt	cr	nh/0098_nh.bmp
15.12	0.72	12	1	1	69	per	lib	mod	mod	mod	nt	cr	nh/0405_nh.bmp
15.84	0.72	13	1	1	44	per	con	mod	mod	mod	nt	cr	nh/0750_nh.bmp
16.56	0.72	14	1	1	39	per	con	mod	mod	mod	tg	ht	wh/0884.bmp
17.28	0.72	15	1	2	106	mem	lib	low	low	low	nt	ht	nh/0411_nh.bmp
18.00	0.72	16	1	3	127	mem	con	mod	mod	mod	tg	ms	wh/0878.bmp
18.72	0.72	17	1	1	77	per	lib	mod	mod	mod	nt	cr	nh/0775_nh.bmp
19.44	0.72	18	1	1	70	per	lib	mod	mod	mod	tg	ht	wh/0393.bmp
20.16	0.72	19	1	1	22	mem	con	low	low	low	tg	ms	wh/0330.bmp
20.88	0.72	20	1	3	63	mem	lib	mod	mod	low	nt	ht	nh/0597_nh.bmp
21.60	0.72	21	1	3	26	per	lib	low	mod	low	nt	fa	nh/0325_nh.bmp
22.32	0.72	22	1	2	33	mem	con	mod	mod	low	nt	ms	nh/0040_nh.bmp
23.04	0.72	23	1	1	99	mem	lib	mod	mod	low	tg	ht	wh/0133.bmp
23.76	0.72	24	1	3	67	per	lib	mod	mod	mod	tg	ms	wh/0414.bmp
24.48	0.72	25	1	1	98	mem	lib	mod	mod	low	tg	ht	wh/0155.bmp
25.20	0.72	26	1	3	88	per	con	low	mod	low	nt	cr	nh/0233_nh.bmp
25.92	0.72	27	1	1	102	mem	lib	mod	mod	low	nt	ht	nh/0031_nh.bmp
26.64	0.72	28	1	4	74	per	con	mod	mod	mod	nt	cr	nh/0627_nh.bmp
27.36	0.72	29	1	2	58	per	con	low	mod	low	nt	cr	nh/0648_nh.bmp
28.08	0.72	30	1	2	62	per	con	low	mod	low	nt	cr	nh/0265_nh.bmp
28.80	0.72	31	1	3	96	per	con	low	mod	low	tg	ms	wh/0769.bmp
29.52	0.72	32	1	1	2	mem	con	mod	mod	mod	nt	ht	nh/0526_nh.bmp
30.24	0.72	33	1	1	94	mem	lib	low	low	mod	tg	ht	wh/0324.bmp
30.96	0.72	34	1	1	37	per	con	mod	mod	mod	tg	ms	wh/0942.bmp
31.68	0.72	35	1	1	4	mem	con	mod	mod	mod	tg	ht	wh/0879.bmp
32.40	0.72	36	1	4	102	mem	con	mod	mod	low	tg	ms	wh/0733.bmp
33.12	0.72	37	1	2	20	mem	lib	mod	mod	mod	nt	ht	nh/0585_nh.bmp
33.84	0.72	38	2	1	39	per	con	mod	mod	mod	tg	ht	wh/0884.bmp
34.56	0.72	39	1	4	123	mem	lib	mod	mod	mod	tg	ht	wh/0425.bmp
35.28	0.72	40	1	1	75	per	lib	mod	mod	mod	nt	fa	nh/0274_nh.bmp
36.00	0.72	41	1	4	85	per	con	low	low	low	tg	ms	wh/0257.bmp
36.72	0.72	42	1	4	116	mem	lib	mod	mod	mod	nt	ht	nh/0642_nh.bmp
37.44	0.72	43	1	3	125	mem	con	mod	mod	mod	nt	ht	nh/0919_nh.bmp
38.16	0.72	44	2	3	63	mem	lib	mod	mod	low	nt	ht	nh/0597_nh.bmp
38.88	0.72	45	2	1	44	per	con	mod	mod	mod	nt	cr	nh/0750_nh.bmp
39.60	0.72	46	1	4	100	mem	con	mod	mod	low	nt	ht	nh/0739_nh.bmp
40.32	0.72	47	1	3	84	per	con	low	mod	low	tg	ms	wh/0472.bmp
41.04	0.72	48	2	4	116	mem	lib	mod	mod	mod	nt	ht	nh/0642_nh.bmp
41.76	0.72	49	1	3	120	mem	con	mod	mod	mod	tg	ms	wh/0847.bmp
42.48	0.72	50	1	4	80	per	con	mod	mod	mod	tg	ht	wh/0899.bmp
43.20	0.72	51	1	3	28	per	lib	low	mod	low	nt	cr	nh/0514_nh.bmp
43.92	0.72	52	1	4	49	per	lib	mod	low	mod	tg	ht	wh/0103.bmp
44.64	0.72	53	2	1	99	mem	lib	mod	mod	low	tg	ht	wh/0133.bmp
45.36	0.72	54	1	2	43	mem	con	mod	mod	low	tg	ht	wh/0926.bmp
46.08	0.72	55	1	3	73	per	lib	mod	mod	mod	tg	ms	wh/0605.bmp
46.80	0.72	56	1	4	106	mem	con	mod	mod	low	tg	ht	wh/0341.bmp
47.52	0.72	57	1	4	67	per	con	mod	mod	mod	tg	ms	wh/0658.bmp
48.24	0.72	58	1	2	34	mem	con	mod	mod	low	nt	ht	nh/0741_nh.bmp
48.96	0.72	59	1	3	108	mem	lib	low	low	low	nt	ht	nh/0362_nh.bmp
49.68	0.72	60	1	2	86	per	lib	low	low	low	tg	ms	wh/1012.bmp
50.40	0.72	61	2	4	80	per	con	mod	mod	mod	tg	ht	wh/0899.bmp
51.12	0.72	62	2	4	101	mem	con	mod	mod	low	tg	ms	wh/0868.bmp
51.84	0.72	63	1	2	17	mem	lib	mod	mod	mod	nt	ht	nh/0561_nh.bmp
52.56	0.72	64	1	1	17	mem	con	low	low	low	tg	ms	wh/0747.bmp
53.28	0.72	65	1	4	117	mem	lib	mod	mod	mod	tg	ht	wh/0955.bmp
54.00	0.72	66	2	1	77	per	lib	mod	mod	mod	nt	cr	nh/0775_nh.bmp
54.72	0.72	67	2	1	66	per	lib	mod	mod	mod	nt	fa	nh/0189_nh.bmp
55.44	0.72	68	2	3	73	per	lib	mod	mod	mod	tg	ms	wh/0605.bmp
56.16	0.72	69	1	4	83	per	con	low	low	low	nt	cr	nh/0777_nh.bmp
56.88	0.72	70	2	4	70	per	con	mod	mod	mod	nt	cr	nh/0098_nh.bmp
57.60	0.72	71	2	4	100	mem	con	mod	mod	low	nt	ht	nh/0739_nh.bmp
58.32	0.72	72	1	1	49	per	lib	low	mod	low	nt	fa	nh/0455_nh.bmp
59.04	0.72	73	2	3	84	per	con	low	mod	low	tg	ms	wh/0472.bmp
59.76	0.72	74	1	2	25	mem	lib	mod	mod	mod	nt	ht	nh/0204_nh.bmp
60.48	0.72	75	1	3	90	per	con	low	mod	low	tg	ms	wh/0573.bmp
61.20	0.72	76	1	4	68	per	con	mod	mod	mod	tg	ms	wh/0289.bmp
61.92	0.72	77	2	1	101	mem	lib	mod	mod	low	tg	ht	wh/0515.bmp
62.64	0.72	78	1	2	38	mem	con	mod	mod	low	tg	n/a	wh/0649.bmp
63.36	0.72	79	1	3	70	per	lib	mod	mod	mod	tg	ht	wh/0801.bmp
64.08	0.72	80	1	1	57	per	lib	low	mod	low	nt	fa	nh/0205_nh.bmp
64.80	0.72	81	2	2	17	mem	lib	mod	mod	mod	nt	ht	nh/0561_nh.bmp
65.52	0.72	82	1	2	69	per	con	mod	low	mod	tg	ht	wh/0009.bmp
66.24	0.72	83	1	3	94	per	con	low	mod	low	tg	ms	wh/0853.bmp
66.96	0.72	84	1	2	125	per	lib	mod	low	mod	nt	fa	nh/0922_nh.bmp
67.68	0.72	85	1	2	54	per	con	low	mod	low	nt	cr	nh/0105_nh.bmp
68.40	0.72	86	1	1	14	mem	con	mod	mod	mod	tg	ms	wh/0600.bmp
69.12	0.72	87	2	3	28	per	lib	low	mod	low	nt	cr	nh/0514_nh.bmp
69.84	0.72	88	1	1	60	per	lib	low	mod	low	nt	cr	nh/0168_nh.bmp
70.56	0.72	89	2	3	94	per	con	low	mod	low	tg	ms	wh/0853.bmp
71.28	0.72	90	1	1	43	per	con	mod	mod	mod	nt	cr	nh/0473_nh.bmp
72.00	0.72	91	1	4	97	mem	con	mod	mod	low	tg	ms	wh/0421.bmp
72.72	0.72	92	2	2	34	mem	con	mod	mod	low	nt	ht	nh/0741_nh.bmp
73.44	0.72	93	3	3	73	per	lib	mod	mod	mod	tg	ms	wh/0605.bmp
74.16	0.72	94	2	3	96	per	con	low	mod	low	tg	ms	wh/0769.bmp
74.88	0.72	95	1	3	50	mem	lib	mod	mod	low	nt	ht	nh/0377_nh.bmp
75.60	0.72	96	1	3	54	mem	lib	mod	mod	low	tg	ht	wh/0529.bmp
76.32	0.72	97	1	3	21	per	lib	low	mod	low	tg	ht	wh/0156.bmp
77.04	0.72	98	1	2	47	mem	con	mod	mod	low	nt	ht	nh/0115_nh.bmp
77.76	0.72	99	1	4	39	mem	lib	low	low	mod	tg	ht	wh/0850.bmp
78.48	0.72	100	2	4	106	mem	con	mod	mod	low	tg	ht	wh/0341.bmp
79.20	0.72	101	1	3	57	mem	lib	mod	mod	low	nt	ht	nh/0019_nh.bmp
79.92	0.72	102	1	3	51	mem	lib	mod	mod	low	tg	ms	wh/0128.bmp
80.64	0.72	103	1	2	84	per	lib	low	low	low	nt	fa	nh/1022_nh.bmp
81.36	0.72	104	2	3	26	per	lib	low	mod	low	nt	fa	nh/0325_nh.bmp
82.08	0.72	105	2	3	67	per	lib	mod	mod	mod	tg	ms	wh/0414.bmp
82.80	0.72	106	1	4	66	per	con	mod	mod	mod	nt	cr	nh/0429_nh.bmp
83.52	0.72	107	1	1	23	mem	con	low	low	low	tg	ms	wh/0119.bmp
84.24	0.72	108	1	4	43	mem	lib	low	low	mod	tg	ht	wh/0213.bmp
84.96	0.72	109	2	4	117	mem	lib	mod	mod	mod	tg	ht	wh/0955.bmp
85.68	0.72	110	1	3	85	per	con	low	mod	low	nt	cr	nh/0624_nh.bmp
86.40	0.72	111	1	1	90	mem	lib	low	low	mod	tg	ht	wh/0659.bmp
87.12	0.72	112	1	1	56	per	lib	low	mod	low	tg	ht	wh/0727.bmp
87.84	0.72	113	2	2	33	mem	con	mod	mod	low	nt	ms	nh/0040_nh.bmp
88.56	0.72	114	1	4	103	mem	con	mod	mod	low	nt	ht	nh/0675_nh.bmp
89.28	0.72	115	1	3	123	mem	con	mod	mod	mod	tg	ht	wh/0580.bmp
90.00	0.72	116	2	3	50	mem	lib	mod	mod	low	nt	ht	nh/0377_nh.bmp
90.72	0.72	117	2	1	98	mem	lib	mod	mod	low	tg	ht	wh/0155.bmp
91.44	0.72	118	1	4	98	mem	con	mod	mod	low	nt	ht	nh/0177_nh.bmp
92.16	0.72	119	2	3	85	per	con	low	mod	low	nt	cr	nh/0624_nh.bmp
92.88	0.72	120	3	4	70	per	con	mod	mod	mod	nt	cr	nh/0098_nh.bmp
93.60	0.72	121	3	1	99	mem	lib	mod	mod	low	tg	ht	wh/0133.bmp
94.32	0.72	122	1	4	57	per	lib	mod	low	mod	nt	fa	nh/0972_nh.bmp
95.04	0.72	123	3	1	101	mem	lib	mod	mod	low	tg	ht	wh/0515.bmp
95.76	0.72	124	2	1	75	per	lib	mod	mod	mod	nt	fa	nh/0274_nh.bmp
96.48	0.72	125	2	2	25	mem	lib	mod	mod	mod	nt	ht	nh/0204_nh.bmp
97.20	0.72	126	1	1	109	mem	lib	mod	mod	low	nt	ht	nh/0353_nh.bmp
97.92	0.72	127	1	3	60	mem	lib	mod	mod	low	tg	ht	wh/0816.bmp
98.64	0.72	128	1	1	45	per	con	mod	mod	mod	tg	ht	wh/0679.bmp
99.36	0.72	129	3	3	26	per	lib	low	mod	low	nt	fa	nh/0325_nh.bmp
100.08	0.72	130	1	2	49	per	con	low	mod	low	tg	ms	wh/0704.bmp
100.80	0.72	131	4	1	101	mem	lib	mod	mod	low	tg	ht	wh/0515.bmp
101.52	0.72	132	2	1	37	per	con	mod	mod	mod	tg	ms	wh/0942.bmp
102.24	0.72	133	2	3	51	mem	lib	mod	mod	low	tg	ms	wh/0128.bmp
102.96	0.72	134	1	3	23	per	lib	low	mod	low	nt	fa	nh/0145_nh.bmp
103.68	0.72	135	2	4	123	mem	lib	mod	mod	mod	tg	ht	wh/0425.bmp
104.40	0.72	136	1	3	32	per	lib	low	mod	low	tg	ht	wh/0766.bmp
105.12	0.72	137	2	1	57	per	lib	low	mod	low	nt	fa	nh/0205_nh.bmp
105.84	0.72	138	2	4	74	per	con	mod	mod	mod	nt	cr	nh/0627_nh.bmp
106.56	0.72	139	1	3	86	per	con	low	mod	low	nt	cr	nh/0836_nh.bmp
107.28	0.72	140	1	4	72	per	con	mod	mod	mod	tg	ht	wh/0621.bmp
108.00	0.72	141	2	4	98	mem	con	mod	mod	low	nt	ht	nh/0177_nh.bmp
108.72	0.72	142	3	3	50	mem	lib	mod	mod	low	nt	ht	nh/0377_nh.bmp
109.44	0.72	143	2	2	62	per	con	low	mod	low	nt	cr	nh/0265_nh.bmp
110.16	0.72	144	1	3	78	per	lib	mod	mod	mod	nt	cr	nh/0681_nh.bmp
110.88	0.72	145	1	2	53	per	con	low	mod	low	nt	fa	nh/0932_nh.bmp
111.60	0.72	146	3	1	75	per	lib	mod	mod	mod	nt	fa	nh/0274_nh.bmp
112.32	0.72	147	1	1	9	mem	con	mod	mod	mod	nt	ht	nh/0920_nh.bmp
113.04	0.72	148	1	2	44	mem	con	mod	mod	low	tg	ms	wh/0178.bmp
113.76	0.72	149	1	2	121	per	lib	mod	low	mod	tg	ht	wh/0270.bmp
114.48	0.72	150	1	4	52	per	lib	mod	low	mod	tg	ms	wh/0288.bmp
115.20	0.72	151	2	2	44	mem	con	mod	mod	low	tg	ms	wh/0178.bmp
115.92	0.72	152	1	3	118	mem	con	mod	mod	mod	nt	ht	nh/0938_nh.bmp
116.64	0.72	153	1	1	64	per	lib	low	mod	low	nt	cr	nh/0755_nh.bmp
117.36	0.72	154	2	3	32	per	lib	low	mod	low	tg	ht	wh/0766.bmp
118.08	0.72	155	1	3	71	per	lib	mod	mod	mod	tg	ht	wh/0391.bmp
118.80	0.72	156	3	1	39	per	con	mod	mod	mod	tg	ht	wh/0884.bmp
119.52	0.72	157	1	4	124	mem	lib	mod	mod	mod	tg	ht	wh/0700.bmp
120.24	0.72	158	2	4	67	per	con	mod	mod	mod	tg	ms	wh/0658.bmp
120.96	0.72	159	3	3	84	per	con	low	mod	low	tg	ms	wh/0472.bmp
121.68	0.72	160	2	1	4	mem	con	mod	mod	mod	tg	ht	wh/0879.bmp
122.40	0.72	161	1	1	68	per	lib	mod	mod	mod	tg	ht	wh/0959.bmp
123.12	0.72	162	2	1	42	per	con	mod	mod	mod	tg	ms	wh/0637.bmp
123.84	0.72	163	2	3	21	per	lib	low	mod	low	tg	ht	wh/0156.bmp
124.56	0.72	164	1	4	120	mem	lib	mod	mod	mod	nt	ht	nh/0984_nh.bmp
125.28	0.72	165	2	1	69	per	lib	mod	mod	mod	nt	cr	nh/0405_nh.bmp
126.00	0.72	166	1	4	114	mem	lib	mod	mod	mod	tg	ht	wh/0001.bmp
126.72	0.72	167	1	3	20	per	lib	low	mod	low	nt	cr	nh/0231_nh.bmp
127.44	0.72	168	2	3	71	per	lib	mod	mod	mod	tg	ht	wh/0391.bmp
128.16	0.72	169	2	3	90	per	con	low	mod	low	tg	ms	wh/0573.bmp
128.88	0.72	170	2	1	71	per	lib	mod	mod	mod	tg	ms	wh/0975.bmp
129.60	0.72	171	1	2	59	per	con	low	mod	low	tg	ms	wh/0897.bmp
130.32	0.72	172	1	2	39	mem	con	mod	mod	low	nt	ht	nh/0027_nh.bmp
131.04	0.72	173	1	2	2	mem	con	low	low	mod	nt	ht	nh/0974_nh.bmp
131.76	0.72	174	3	3	90	per	con	low	mod	low	tg	ms	wh/0573.bmp
132.48	0.72	175	2	2	38	mem	con	mod	mod	low	tg	n/a	wh/0649.bmp
133.20	0.72	176	3	4	117	mem	lib	mod	mod	mod	tg	ht	wh/0955.bmp
133.92	0.72	177	2	1	109	mem	lib	mod	mod	low	nt	ht	nh/0353_nh.bmp
134.64	0.72	178	2	3	120	mem	con	mod	mod	mod	tg	ms	wh/0847.bmp
135.36	0.72	179	1	3	74	per	lib	mod	mod	mod	nt	fa	nh/0466_nh.bmp
136.08	0.72	180	2	4	72	per	con	mod	mod	mod	tg	ht	wh/0621.bmp
136.80	0.72	181	1	1	11	mem	con	mod	mod	mod	tg	ht	wh/0162.bmp
137.52	0.72	182	3	1	37	per	con	mod	mod	mod	tg	ms	wh/0942.bmp
138.24	0.72	183	2	4	102	mem	con	mod	mod	low	tg	ms	wh/0733.bmp
138.96	0.72	184	3	1	57	per	lib	low	mod	low	nt	fa	nh/0205_nh.bmp
139.68	0.72	185	3	4	123	mem	lib	mod	mod	mod	tg	ht	wh/0425.bmp
140.40	0.72	186	1	4	127	mem	lib	mod	mod	mod	nt	ms	nh/0896_nh.bmp
141.12	0.72	187	2	2	58	per	con	low	mod	low	nt	cr	nh/0648_nh.bmp
141.84	0.72	188	1	3	22	per	lib	low	mod	low	tg	ht	wh/0387.bmp
142.56	0.72	189	1	1	5	mem	con	mod	mod	mod	tg	ms	wh/0596.bmp
143.28	0.72	190	1	3	109	mem	lib	low	low	low	nt	ht	nh/0140_nh.bmp
144.00	0.72	191	3	4	74	per	con	mod	mod	mod	nt	cr	nh/0627_nh.bmp
144.72	0.72	192	2	3	123	mem	con	mod	mod	mod	tg	ht	wh/0580.bmp
145.44	0.72	193	1	4	6	per	lib	low	low	low	nt	fa	nh/0889_nh.bmp
146.16	0.72	194	1	1	103	mem	lib	mod	mod	low	nt	ht	nh/0392_nh.bmp
146.88	0.72	195	1	1	25	mem	con	low	low	low	nt	ht	nh/0485_nh.bmp
147.60	0.72	196	1	3	81	per	con	low	mod	low	nt	cr	nh/0251_nh.bmp
148.32	0.72	197	2	1	2	mem	con	mod	mod	mod	nt	ht	nh/0526_nh.bmp
149.04	0.72	198	1	3	111	mem	lib	low	low	low	tg	ht	wh/0456.bmp
149.76	0.72	199	3	3	21	per	lib	low	mod	low	tg	ht	wh/0156.bmp
150.48	0.72	200	4	4	70	per	con	mod	mod	mod	nt	cr	nh/0098_nh.bmp
151.20	0.72	201	3	2	62	per	con	low	mod	low	nt	cr	nh/0265_nh.bmp
151.92	0.72	202	3	2	25	mem	lib	mod	mod	mod	nt	ht	nh/0204_nh.bmp
152.64	0.72	203	3	4	116	mem	lib	mod	mod	mod	nt	ht	nh/0642_nh.bmp
153.36	0.72	204	2	3	22	per	lib	low	mod	low	tg	ht	wh/0387.bmp
154.08	0.72	205	2	3	113	mem	con	mod	mod	mod	nt	ht	nh/0857_nh.bmp
154.80	0.72	206	1	4	107	mem	con	mod	mod	low	nt	ht	nh/0217_nh.bmp
155.52	0.72	207	1	3	128	mem	con	mod	mod	mod	tg	ht	wh/0287.bmp
156.24	0.72	208	1	4	37	mem	lib	low	low	mod	nt	ms	nh/0866_nh.bmp
156.96	0.72	209	1	3	72	per	lib	mod	mod	mod	nt	fa	nh/0534_nh.bmp
157.68	0.72	210	4	3	73	per	lib	mod	mod	mod	tg	ms	wh/0605.bmp
158.40	0.72	211	1	3	102	mem	lib	low	low	low	nt	ms	nh/0054_nh.bmp
159.12	0.72	212	1	1	111	mem	lib	mod	mod	low	nt	ht	nh/0163_nh.bmp
159.84	0.72	213	2	1	68	per	lib	mod	mod	mod	tg	ht	wh/0959.bmp
160.56	0.72	214	2	3	86	per	con	low	mod	low	nt	cr	nh/0836_nh.bmp
161.28	0.72	215	3	4	101	mem	con	mod	mod	low	tg	ms	wh/0868.bmp
162.00	0.72	216	3	1	77	per	lib	mod	mod	mod	nt	cr	nh/0775_nh.bmp
162.72	0.72	217	2	1	103	mem	lib	mod	mod	low	nt	ht	nh/0392_nh.bmp
163.44	0.72	218	1	1	26	mem	con	low	low	low	nt	ms	nh/0008_nh.bmp
164.16	0.72	219	2	3	78	per	lib	mod	mod	mod	nt	cr	nh/0681_nh.bmp
164.88	0.72	220	1	4	56	per	lib	mod	low	mod	nt	cr	nh/0873_nh.bmp
165.60	0.72	221	3	3	71	per	lib	mod	mod	mod	tg	ht	wh/0391.bmp
166.32	0.72	222	2	3	88	per	con	low	mod	low	nt	cr	nh/0233_nh.bmp
167.04	0.72	223	3	2	38	mem	con	mod	mod	low	tg	n/a	wh/0649.bmp
167.76	0.72	224	3	4	102	mem	con	mod	mod	low	tg	ms	wh/0733.bmp
168.48	0.72	225	1	1	12	mem	con	mod	mod	mod	nt	ht	nh/0724_nh.bmp
169.20	0.72	226	1	2	51	per	con	low	mod	low	tg	ms	wh/0379.bmp
169.92	0.72	227	2	4	122	mem	lib	mod	mod	mod	nt	ms	nh/0935_nh.bmp
170.64	0.72	228	3	3	63	mem	lib	mod	mod	low	nt	ht	nh/0597_nh.bmp
171.36	0.72	229	1	1	7	mem	con	mod	mod	mod	nt	ms	nh/0002_nh.bmp
172.08	0.72	230	1	1	40	per	con	mod	mod	mod	nt	cr	nh/0183_nh.bmp
172.80	0.72	231	2	1	43	per	con	mod	mod	mod	nt	cr	nh/0473_nh.bmp
173.52	0.72	232	3	3	32	per	lib	low	mod	low	tg	ht	wh/0766.bmp
174.24	0.72	233	3	1	42	per	con	mod	mod	mod	tg	ms	wh/0637.bmp
174.96	0.72	234	1	2	16	mem	con	low	low	mod	tg	ms	wh/0527.bmp
175.68	0.72	235	3	1	109	mem	lib	mod	mod	low	nt	ht	nh/0353_nh.bmp
176.40	0.72	236	1	4	75	per	con	mod	mod	mod	nt	cr	nh/0692_nh.bmp
177.12	0.72	237	2	4	124	mem	lib	mod	mod	mod	tg	ht	wh/0700.bmp
177.84	0.72	238	4	3	21	per	lib	low	mod	low	tg	ht	wh/0156.bmp
178.56	0.72	239	1	1	51	per	lib	low	mod	low	tg	ms	wh/0200.bmp
179.28	0.72	240	3	4	100	mem	con	mod	mod	low	nt	ht	nh/0739_nh.bmp
180.00	0.72	241	3	3	123	mem	con	mod	mod	mod	tg	ht	wh/0580.bmp
180.72	0.72	242	2	4	127	mem	lib	mod	mod	mod	nt	ms	nh/0896_nh.bmp
181.44	0.72	243	3	2	34	mem	con	mod	mod	low	nt	ht	nh/0741_nh.bmp
182.16	0.72	244	2	1	51	per	lib	low	mod	low	tg	ms	wh/0200.bmp
182.88	0.72	245	2	1	60	per	lib	low	mod	low	nt	cr	nh/0168_nh.bmp
183.60	0.72	246	2	2	20	mem	lib	mod	mod	mod	nt	ht	nh/0585_nh.bmp
184.32	0.72	247	3	1	103	mem	lib	mod	mod	low	nt	ht	nh/0392_nh.bmp
185.04	0.72	248	2	2	54	per	con	low	mod	low	nt	cr	nh/0105_nh.bmp
185.76	0.72	249	4	2	62	per	con	low	mod	low	nt	cr	nh/0265_nh.bmp
186.48	0.72	250	3	3	86	per	con	low	mod	low	nt	cr	nh/0836_nh.bmp
187.20	0.72	251	1	2	122	per	lib	mod	low	mod	tg	ht	wh/0856.bmp
187.92	0.72	252	2	1	45	per	con	mod	mod	mod	tg	ht	wh/0679.bmp
188.64	0.72	253	1	2	57	per	con	low	mod	low	tg	ms	wh/0298.bmp
189.36	0.72	254	2	3	125	mem	con	mod	mod	mod	nt	ht	nh/0919_nh.bmp
190.08	0.72	255	2	1	102	mem	lib	mod	mod	low	nt	ht	nh/0031_nh.bmp
190.80	0.72	256	3	1	102	mem	lib	mod	mod	low	nt	ht	nh/0031_nh.bmp
191.52	0.72	257	4	3	26	per	lib	low	mod	low	nt	fa	nh/0325_nh.bmp
192.24	0.72	258	1	3	38	per	con	mod	low	mod	tg	ht	wh/0687.bmp
192.96	0.72	259	3	1	51	per	lib	low	mod	low	tg	ms	wh/0200.bmp
193.68	0.72	260	2	2	39	mem	con	mod	mod	low	nt	ht	nh/0027_nh.bmp
194.40	0.72	261	2	3	60	mem	lib	mod	mod	low	tg	ht	wh/0816.bmp
195.12	0.72	262	1	3	13	mem	con	low	low	low	nt	ms	nh/0614_nh.bmp
195.84	0.72	263	1	3	53	mem	lib	mod	mod	low	tg	ht	wh/0066.bmp
196.56	0.72	264	1	4	55	per	lib	mod	low	mod	tg	ht	wh/0367.bmp
197.28	0.72	265	3	3	22	per	lib	low	mod	low	tg	ht	wh/0387.bmp
198.00	0.72	266	2	4	103	mem	con	mod	mod	low	nt	ht	nh/0675_nh.bmp
198.72	0.72	267	1	2	26	mem	lib	mod	mod	mod	tg	ht	wh/0965.bmp
199.44	0.72	268	3	3	120	mem	con	mod	mod	mod	tg	ms	wh/0847.bmp
200.16	0.72	269	3	1	69	per	lib	mod	mod	mod	nt	cr	nh/0405_nh.bmp
200.88	0.72	270	2	4	120	mem	lib	mod	mod	mod	nt	ht	nh/0984_nh.bmp
201.60	0.72	271	1	4	4	per	lib	low	low	low	tg	ht	wh/0210.bmp
202.32	0.72	272	1	1	108	mem	lib	mod	mod	low	tg	ht	wh/0435.bmp
203.04	0.72	273	4	3	22	per	lib	low	mod	low	tg	ht	wh/0387.bmp
203.76	0.72	274	4	3	120	mem	con	mod	mod	mod	tg	ms	wh/0847.bmp
204.48	0.72	275	1	2	83	per	lib	low	low	low	nt	fa	nh/0121_nh.bmp
205.20	0.72	276	4	3	90	per	con	low	mod	low	tg	ms	wh/0573.bmp
205.92	0.72	277	2	1	40	per	con	mod	mod	mod	nt	cr	nh/0183_nh.bmp
206.64	0.72	278	3	3	78	per	lib	mod	mod	mod	nt	cr	nh/0681_nh.bmp
207.36	0.72	279	3	4	103	mem	con	mod	mod	low	nt	ht	nh/0675_nh.bmp
208.08	0.72	280	3	3	113	mem	con	mod	mod	mod	nt	ht	nh/0857_nh.bmp
208.80	0.72	281	4	4	116	mem	lib	mod	mod	mod	nt	ht	nh/0642_nh.bmp
209.52	0.72	282	2	3	70	per	lib	mod	mod	mod	tg	ht	wh/0801.bmp
210.24	0.72	283	2	1	49	per	lib	low	mod	low	nt	fa	nh/0455_nh.bmp
210.96	0.72	284	1	2	46	mem	con	mod	mod	low	tg	ht	wh/0014.bmp
211.68	0.72	285	3	2	44	mem	con	mod	mod	low	tg	ms	wh/0178.bmp
212.40	0.72	286	1	3	69	per	lib	mod	mod	mod	nt	cr	nh/0981_nh.bmp
213.12	0.72	287	3	3	60	mem	lib	mod	mod	low	tg	ht	wh/0816.bmp
213.84	0.72	288	3	1	49	per	lib	low	mod	low	nt	fa	nh/0455_nh.bmp
214.56	0.72	289	3	3	125	mem	con	mod	mod	mod	nt	ht	nh/0919_nh.bmp
215.28	0.72	290	1	3	124	mem	con	mod	mod	mod	nt	ht	nh/0070_nh.bmp
216.00	0.72	291	1	2	30	mem	lib	mod	mod	mod	tg	ht	wh/0698.bmp
216.72	0.72	292	4	1	51	per	lib	low	mod	low	tg	ms	wh/0200.bmp
217.44	0.72	293	2	2	46	mem	con	mod	mod	low	tg	ht	wh/0014.bmp
218.16	0.72	294	2	2	29	mem	lib	mod	mod	mod	tg	ht	wh/0463.bmp
218.88	0.72	295	2	3	72	per	lib	mod	mod	mod	nt	fa	nh/0534_nh.bmp
219.60	0.72	296	2	3	128	mem	con	mod	mod	mod	tg	ht	wh/0287.bmp
220.32	0.72	297	3	1	44	per	con	mod	mod	mod	nt	cr	nh/0750_nh.bmp
221.04	0.72	298	3	4	120	mem	lib	mod	mod	mod	nt	ht	nh/0984_nh.bmp
221.76	0.72	299	3	2	54	per	con	low	mod	low	nt	cr	nh/0105_nh.bmp
222.48	0.72	300	1	2	123	per	lib	mod	low	mod	tg	ht	wh/0918.bmp
223.20	0.72	301	2	1	9	mem	con	mod	mod	mod	nt	ht	nh/0920_nh.bmp
223.92	0.72	302	2	3	124	mem	con	mod	mod	mod	nt	ht	nh/0070_nh.bmp
224.64	0.72	303	3	2	20	mem	lib	mod	mod	mod	nt	ht	nh/0585_nh.bmp
225.36	0.72	304	4	4	101	mem	con	mod	mod	low	tg	ms	wh/0868.bmp
226.08	0.72	305	3	4	72	per	con	mod	mod	mod	tg	ht	wh/0621.bmp
226.80	0.72	306	1	4	17	mem	con	low	low	mod	tg	ht	wh/0905.bmp
227.52	0.72	307	3	4	67	per	con	mod	mod	mod	tg	ms	wh/0658.bmp
228.24	0.72	308	1	2	32	mem	lib	mod	mod	mod	tg	ht	wh/0785.bmp
228.96	0.72	309	4	3	60	mem	lib	mod	mod	low	tg	ht	wh/0816.bmp
229.68	0.72	310	3	4	122	mem	lib	mod	mod	mod	nt	ms	nh/0935_nh.bmp
230.40	0.72	311	3	1	2	mem	con	mod	mod	mod	nt	ht	nh/0526_nh.bmp
231.12	0.72	312	3	3	51	mem	lib	mod	mod	low	tg	ms	wh/0128.bmp
231.84	0.72	313	1	1	34	per	con	mod	mod	mod	nt	cr	nh/0100_nh.bmp
232.56	0.72	314	3	2	46	mem	con	mod	mod	low	tg	ht	wh/0014.bmp
233.28	0.72	315	4	1	49	per	lib	low	mod	low	nt	fa	nh/0455_nh.bmp
234.00	0.72	316	2	1	61	per	lib	low	mod	low	tg	ht	wh/1021.bmp
234.72	0.72	317	1	2	66	per	con	mod	low	mod	nt	cr	nh/0885_nh.bmp
235.44	0.72	318	3	1	40	per	con	mod	mod	mod	nt	cr	nh/0183_nh.bmp
236.16	0.72	319	1	2	114	per	lib	mod	low	mod	nt	cr	nh/0776_nh.bmp
236.88	0.72	320	3	3	88	per	con	low	mod	low	nt	cr	nh/0233_nh.bmp
237.60	0.72	321	1	2	21	mem	lib	mod	mod	mod	nt	n/a	nh/0841_nh.bmp
238.32	0.72	322	2	1	111	mem	lib	mod	mod	low	nt	ht	nh/0163_nh.bmp
239.04	0.72	323	4	4	100	mem	con	mod	mod	low	nt	ht	nh/0739_nh.bmp
239.76	0.72	324	1	1	127	per	con	low	low	low	nt	cr	nh/0076_nh.bmp
240.48	0.72	325	1	2	111	mem	lib	low	low	low	nt	ht	nh/0109_nh.bmp
241.20	0.72	326	2	1	64	per	lib	low	mod	low	nt	cr	nh/0755_nh.bmp
241.92	0.72	327	3	2	33	mem	con	mod	mod	low	nt	ms	nh/0040_nh.bmp
242.64	0.72	328	4	1	69	per	lib	mod	mod	mod	nt	cr	nh/0405_nh.bmp
243.36	0.72	329	5	1	101	mem	lib	mod	mod	low	tg	ht	wh/0515.bmp
244.08	0.72	330	2	2	43	mem	con	mod	mod	low	tg	ht	wh/0926.bmp
244.80	0.72	331	2	2	26	mem	lib	mod	mod	mod	tg	ht	wh/0965.bmp
245.52	0.72	332	2	2	47	mem	con	mod	mod	low	nt	ht	nh/0115_nh.bmp
246.24	0.72	333	1	4	28	mem	con	low	low	mod	nt	ht	nh/1017_nh.bmp
246.96	0.72	334	3	1	68	per	lib	mod	mod	mod	tg	ht	wh/0959.bmp
247.68	0.72	335	4	1	102	mem	lib	mod	mod	low	nt	ht	nh/0031_nh.bmp
248.40	0.72	336	2	3	23	per	lib	low	mod	low	nt	fa	nh/0145_nh.bmp
249.12	0.72	337	1	4	31	mem	con	low	low	mod	nt	ht	nh/0541_nh.bmp
249.84	0.72	338	4	1	40	per	con	mod	mod	mod	nt	cr	nh/0183_nh.bmp
250.56	0.72	339	1	1	62	per	lib	low	mod	low	tg	ht	wh/0116.bmp
251.28	0.72	340	2	4	107	mem	con	mod	mod	low	nt	ht	nh/0217_nh.bmp
252.00	0.72	341	2	1	56	per	lib	low	mod	low	tg	ht	wh/0727.bmp
252.72	0.72	342	2	1	7	mem	con	mod	mod	mod	nt	ms	nh/0002_nh.bmp
253.44	0.72	343	3	3	96	per	con	low	mod	low	tg	ms	wh/0769.bmp
254.16	0.72	344	4	1	42	per	con	mod	mod	mod	tg	ms	wh/0637.bmp
254.88	0.72	345	1	3	37	per	con	mod	low	mod	tg	ms	wh/0047.bmp
255.60	0.72	346	3	1	7	mem	con	mod	mod	mod	nt	ms	nh/0002_nh.bmp
256.32	0.72	347	1	1	78	per	lib	mod	mod	mod	tg	ht	wh/0017.bmp
257.04	0.72	348	3	3	67	per	lib	mod	mod	mod	tg	ms	wh/0414.bmp
257.76	0.72	349	2	2	49	per	con	low	mod	low	tg	ms	wh/0704.bmp
258.48	0.72	350	5	3	60	mem	lib	mod	mod	low	tg	ht	wh/0816.bmp
259.20	0.72	351	4	2	25	mem	lib	mod	mod	mod	nt	ht	nh/0204_nh.bmp
259.92	0.72	352	2	4	97	mem	con	mod	mod	low	tg	ms	wh/0421.bmp
260.64	0.72	353	3	3	128	mem	con	mod	mod	mod	tg	ht	wh/0287.bmp
261.36	0.72	354	3	2	58	per	con	low	mod	low	nt	cr	nh/0648_nh.bmp
262.08	0.72	355	2	2	51	per	con	low	mod	low	tg	ms	wh/0379.bmp
262.80	0.72	356	4	3	125	mem	con	mod	mod	mod	nt	ht	nh/0919_nh.bmp
263.52	0.72	357	1	2	76	per	con	mod	low	mod	nt	cr	nh/0449_nh.bmp
264.24	0.72	358	4	2	34	mem	con	mod	mod	low	nt	ht	nh/0741_nh.bmp
264.96	0.72	359	1	2	88	per	lib	low	low	low	nt	cr	nh/0656_nh.bmp
265.68	0.72	360	3	1	61	per	lib	low	mod	low	tg	ht	wh/1021.bmp
266.40	0.72	361	2	1	12	mem	con	mod	mod	mod	nt	ht	nh/0724_nh.bmp
267.12	0.72	362	2	3	118	mem	con	mod	mod	mod	nt	ht	nh/0938_nh.bmp
267.84	0.72	363	1	4	91	per	con	low	low	low	tg	ms	wh/0722.bmp
268.56	0.72	364	1	4	22	mem	con	low	low	mod	nt	ms	nh/0977_nh.bmp
269.28	0.72	365	4	1	68	per	lib	mod	mod	mod	tg	ht	wh/0959.bmp
270.00	0.72	366	1	3	4	mem	con	low	low	low	tg	ms	wh/0028.bmp
270.72	0.72	367	1	2	82	per	lib	low	low	low	nt	cr	nh/0817_nh.bmp
271.44	0.72	368	4	3	88	per	con	low	mod	low	nt	cr	nh/0233_nh.bmp
272.16	0.72	369	5	1	51	per	lib	low	mod	low	tg	ms	wh/0200.bmp
272.88	0.72	370	2	1	14	mem	con	mod	mod	mod	tg	ms	wh/0600.bmp
273.60	0.72	371	3	1	4	mem	con	mod	mod	mod	tg	ht	wh/0879.bmp
274.32	0.72	372	4	4	102	mem	con	mod	mod	low	tg	ms	wh/0733.bmp
275.04	0.72	373	2	1	34	per	con	mod	mod	mod	nt	cr	nh/0100_nh.bmp
275.76	0.72	374	3	1	9	mem	con	mod	mod	mod	nt	ht	nh/0920_nh.bmp
276.48	0.72	375	2	4	75	per	con	mod	mod	mod	nt	cr	nh/0692_nh.bmp
277.20	0.72	376	3	3	28	per	lib	low	mod	low	nt	cr	nh/0514_nh.bmp
277.92	0.72	377	5	2	34	mem	con	mod	mod	low	nt	ht	nh/0741_nh.bmp
278.64	0.72	378	2	3	69	per	lib	mod	mod	mod	nt	cr	nh/0981_nh.bmp
279.36	0.72	379	3	1	56	per	lib	low	mod	low	tg	ht	wh/0727.bmp
280.08	0.72	380	2	3	81	per	con	low	mod	low	nt	cr	nh/0251_nh.bmp
280.80	0.72	381	4	1	44	per	con	mod	mod	mod	nt	cr	nh/0750_nh.bmp
281.52	0.72	382	1	3	112	mem	lib	low	low	low	tg	ht	wh/0354.bmp
282.24	0.72	383	1	2	11	mem	con	low	low	mod	nt	ht	nh/0322_nh.bmp
282.96	0.72	384	2	3	54	mem	lib	mod	mod	low	tg	ht	wh/0529.bmp
283.68	0.72	385	4	2	33	mem	con	mod	mod	low	nt	ms	nh/0040_nh.bmp
284.40	0.72	386	2	1	78	per	lib	mod	mod	mod	tg	ht	wh/0017.bmp
285.12	0.72	387	2	1	11	mem	con	mod	mod	mod	tg	ht	wh/0162.bmp
285.84	0.72	388	1	3	36	per	con	mod	low	mod	nt	cr	nh/0960_nh.bmp
286.56	0.72	389	4	1	99	mem	lib	mod	mod	low	tg	ht	wh/0133.bmp
287.28	0.72	390	3	3	69	per	lib	mod	mod	mod	nt	cr	nh/0981_nh.bmp
288.00	0.72	391	1	2	5	mem	con	low	low	mod	nt	ht	nh/0476_nh.bmp
288.72	0.72	392	3	4	127	mem	lib	mod	mod	mod	nt	ms	nh/0896_nh.bmp
289.44	0.72	393	1	2	108	mem	lib	low	low	low	nt	ht	nh/0481_nh.bmp
290.16	0.72	394	2	2	32	mem	lib	mod	mod	mod	tg	ht	wh/0785.bmp
290.88	0.72	395	1	2	73	per	con	mod	low	mod	nt	cr	nh/0228_nh.bmp
291.60	0.72	396	3	2	17	mem	lib	mod	mod	mod	nt	ht	nh/0561_nh.bmp
292.32	0.72	397	2	4	68	per	con	mod	mod	mod	tg	ms	wh/0289.bmp
293.04	0.72	398	1	3	25	per	lib	low	mod	low	tg	ht	wh/0745.bmp
293.76	0.72	399	3	1	64	per	lib	low	mod	low	nt	cr	nh/0755_nh.bmp
294.48	0.72	400	4	3	84	per	con	low	mod	low	tg	ms	wh/0472.bmp
295.20	0.72	401	1	4	13	per	lib	low	low	low	nt	cr	nh/0464_nh.bmp
295.92	0.72	402	5	3	90	per	con	low	mod	low	tg	ms	wh/0573.bmp
296.64	0.72	403	3	4	98	mem	con	mod	mod	low	nt	ht	nh/0177_nh.bmp
297.36	0.72	404	5	3	26	per	lib	low	mod	low	nt	fa	nh/0325_nh.bmp
298.08	0.72	405	4	4	72	per	con	mod	mod	mod	tg	ht	wh/0621.bmp
298.80	0.72	406	4	3	96	per	con	low	mod	low	tg	ms	wh/0769.bmp
299.52	0.72	407	4	3	71	per	lib	mod	mod	mod	tg	ht	wh/0391.bmp
300.24	0.72	408	5	3	88	per	con	low	mod	low	nt	cr	nh/0233_nh.bmp
300.96	0.72	409	2	1	108	mem	lib	mod	mod	low	tg	ht	wh/0435.bmp
301.68	0.72	410	3	2	32	mem	lib	mod	mod	mod	tg	ht	wh/0785.bmp
302.40	0.72	411	2	3	127	mem	con	mod	mod	mod	tg	ms	wh/0878.bmp
303.12	0.72	412	1	3	47	per	con	mod	low	mod	tg	ht	wh/0235.bmp
303.84	0.72	413	3	2	26	mem	lib	mod	mod	mod	tg	ht	wh/0965.bmp
304.56	0.72	414	1	4	33	mem	lib	low	low	mod	nt	ht	nh/0712_nh.bmp
305.28	0.72	415	2	1	62	per	lib	low	mod	low	tg	ht	wh/0116.bmp
306.00	0.72	416	1	2	99	mem	lib	low	low	low	tg	ht	wh/0903.bmp
306.72	0.72	417	4	2	58	per	con	low	mod	low	nt	cr	nh/0648_nh.bmp
307.44	0.72	418	1	1	30	mem	con	low	low	low	nt	ms	nh/0979_nh.bmp
308.16	0.72	419	1	3	62	mem	lib	mod	mod	low	nt	ht	nh/0997_nh.bmp
308.88	0.72	420	2	3	62	mem	lib	mod	mod	low	nt	ht	nh/0997_nh.bmp
309.60	0.72	421	5	3	71	per	lib	mod	mod	mod	tg	ht	wh/0391.bmp
310.32	0.72	422	4	1	56	per	lib	low	mod	low	tg	ht	wh/0727.bmp
311.04	0.72	423	3	4	97	mem	con	mod	mod	low	tg	ms	wh/0421.bmp
311.76	0.72	424	3	4	80	per	con	mod	mod	mod	tg	ht	wh/0899.bmp
312.48	0.72	425	2	1	5	mem	con	mod	mod	mod	tg	ms	wh/0596.bmp
313.20	0.72	426	1	3	11	mem	con	low	low	low	tg	ms	wh/0771.bmp
313.92	0.72	427	4	4	74	per	con	mod	mod	mod	nt	cr	nh/0627_nh.bmp
314.64	0.72	428	3	1	12	mem	con	mod	mod	mod	nt	ht	nh/0724_nh.bmp
315.36	0.72	429	3	2	29	mem	lib	mod	mod	mod	tg	ht	wh/0463.bmp
316.08	0.72	430	3	1	5	mem	con	mod	mod	mod	tg	ms	wh/0596.bmp
316.80	0.72	431	5	1	68	per	lib	mod	mod	mod	tg	ht	wh/0959.bmp
317.52	0.72	432	3	1	62	per	lib	low	mod	low	tg	ht	wh/0116.bmp
318.24	0.72	433	3	3	127	mem	con	mod	mod	mod	tg	ms	wh/0878.bmp
318.96	0.72	434	6	3	88	per	con	low	mod	low	nt	cr	nh/0233_nh.bmp
319.68	0.72	435	4	3	32	per	lib	low	mod	low	tg	ht	wh/0766.bmp
320.40	0.72	436	3	1	108	mem	lib	mod	mod	low	tg	ht	wh/0435.bmp
321.12	0.72	437	3	4	124	mem	lib	mod	mod	mod	tg	ht	wh/0700.bmp
321.84	0.72	438	4	4	124	mem	lib	mod	mod	mod	tg	ht	wh/0700.bmp
322.56	0.72	439	1	4	15	per	lib	low	low	low	nt	fa	nh/0634_nh.bmp
323.28	0.72	440	3	1	45	per	con	mod	mod	mod	tg	ht	wh/0679.bmp
324.00	0.72	441	4	2	29	mem	lib	mod	mod	mod	tg	ht	wh/0463.bmp
324.72	0.72	442	4	2	32	mem	lib	mod	mod	mod	tg	ht	wh/0785.bmp
325.44	0.72	443	5	2	25	mem	lib	mod	mod	mod	nt	ht	nh/0204_nh.bmp
326.16	0.72	444	1	3	1	mem	con	low	low	low	tg	ms	wh/0862.bmp
326.88	0.72	445	6	1	101	mem	lib	mod	mod	low	tg	ht	wh/0515.bmp
327.60	0.72	446	4	2	26	mem	lib	mod	mod	mod	tg	ht	wh/0965.bmp
328.32	0.72	447	5	4	102	mem	con	mod	mod	low	tg	ms	wh/0733.bmp
329.04	0.72	448	1	1	123	per	con	low	low	low	nt	cr	nh/0790_nh.bmp
329.76	0.72	449	2	3	20	per	lib	low	mod	low	nt	cr	nh/0231_nh.bmp
330.48	0.72	450	3	1	34	per	con	mod	mod	mod	nt	cr	nh/0100_nh.bmp
331.20	0.72	451	4	4	120	mem	lib	mod	mod	mod	nt	ht	nh/0984_nh.bmp
331.92	0.72	452	4	1	12	mem	con	mod	mod	mod	nt	ht	nh/0724_nh.bmp
332.64	0.72	453	5	4	120	mem	lib	mod	mod	mod	nt	ht	nh/0984_nh.bmp
333.36	0.72	454	1	1	81	mem	lib	low	low	mod	tg	ht	wh/0087.bmp
334.08	0.72	455	6	2	34	mem	con	mod	mod	low	nt	ht	nh/0741_nh.bmp
334.80	0.72	456	5	2	33	mem	con	mod	mod	low	nt	ms	nh/0040_nh.bmp
335.52	0.72	457	4	1	39	per	con	mod	mod	mod	tg	ht	wh/0884.bmp
336.24	0.72	458	4	1	103	mem	lib	mod	mod	low	nt	ht	nh/0392_nh.bmp
336.96	0.72	459	4	4	117	mem	lib	mod	mod	mod	tg	ht	wh/0955.bmp
337.68	0.72	460	5	3	84	per	con	low	mod	low	tg	ms	wh/0472.bmp
338.40	0.72	461	3	3	85	per	con	low	mod	low	nt	cr	nh/0624_nh.bmp
339.12	0.72	462	4	1	61	per	lib	low	mod	low	tg	ht	wh/1021.bmp
339.84	0.72	463	1	2	14	mem	con	low	low	mod	tg	ht	wh/0272.bmp
340.56	0.72	464	5	1	42	per	con	mod	mod	mod	tg	ms	wh/0637.bmp
341.28	0.72	465	3	3	62	mem	lib	mod	mod	low	nt	ht	nh/0997_nh.bmp
342.00	0.72	466	2	2	57	per	con	low	mod	low	tg	ms	wh/0298.bmp
342.72	0.72	467	3	1	60	per	lib	low	mod	low	nt	cr	nh/0168_nh.bmp
343.44	0.72	468	4	2	46	mem	con	mod	mod	low	tg	ht	wh/0014.bmp
344.16	0.72	469	4	4	97	mem	con	mod	mod	low	tg	ms	wh/0421.bmp
344.88	0.72	470	2	1	70	per	lib	mod	mod	mod	tg	ht	wh/0393.bmp
345.60	0.72	471	5	1	40	per	con	mod	mod	mod	nt	cr	nh/0183_nh.bmp
346.32	0.72	472	4	3	85	per	con	low	mod	low	nt	cr	nh/0624_nh.bmp
347.04	0.72	473	2	3	57	mem	lib	mod	mod	low	nt	ht	nh/0019_nh.bmp
347.76	0.72	474	4	1	4	mem	con	mod	mod	mod	tg	ht	wh/0879.bmp
348.48	0.72	475	3	3	70	per	lib	mod	mod	mod	tg	ht	wh/0801.bmp
349.20	0.72	476	5	3	73	per	lib	mod	mod	mod	tg	ms	wh/0605.bmp
349.92	0.72	477	1	1	125	per	con	low	low	low	tg	ms	wh/0432.bmp
350.64	0.72	478	3	3	81	per	con	low	mod	low	nt	cr	nh/0251_nh.bmp
351.36	0.72	479	5	1	49	per	lib	low	mod	low	nt	fa	nh/0455_nh.bmp
352.08	0.72	480	2	3	74	per	lib	mod	mod	mod	nt	fa	nh/0466_nh.bmp
352.80	0.72	481	5	4	74	per	con	mod	mod	mod	nt	cr	nh/0627_nh.bmp
353.52	0.72	482	5	3	96	per	con	low	mod	low	tg	ms	wh/0769.bmp
354.24	0.72	483	4	3	127	mem	con	mod	mod	mod	tg	ms	wh/0878.bmp
354.96	0.72	484	4	1	109	mem	lib	mod	mod	low	nt	ht	nh/0353_nh.bmp
355.68	0.72	485	3	3	57	mem	lib	mod	mod	low	nt	ht	nh/0019_nh.bmp
356.40	0.72	486	6	3	96	per	con	low	mod	low	tg	ms	wh/0769.bmp
357.12	0.72	487	2	2	53	per	con	low	mod	low	nt	fa	nh/0932_nh.bmp
357.84	0.72	488	1	4	14	per	lib	low	low	low	tg	ms	wh/0407.bmp
358.56	0.72	489	3	4	107	mem	con	mod	mod	low	nt	ht	nh/0217_nh.bmp
359.28	0.72	490	3	1	66	per	lib	mod	mod	mod	nt	fa	nh/0189_nh.bmp
360.00	0.72	491	1	2	71	per	con	mod	low	mod	tg	ms	wh/0550.bmp
360.72	0.72	492	4	3	113	mem	con	mod	mod	mod	nt	ht	nh/0857_nh.bmp
361.44	0.72	493	3	2	39	mem	con	mod	mod	low	nt	ht	nh/0027_nh.bmp
362.16	0.72	494	3	1	71	per	lib	mod	mod	mod	tg	ms	wh/0975.bmp
362.88	0.72	495	3	1	78	per	lib	mod	mod	mod	tg	ht	wh/0017.bmp
363.60	0.72	496	4	3	70	per	lib	mod	mod	mod	tg	ht	wh/0801.bmp
364.32	0.72	497	4	3	51	mem	lib	mod	mod	low	tg	ms	wh/0128.bmp
365.04	0.72	498	4	4	67	per	con	mod	mod	mod	tg	ms	wh/0658.bmp
365.76	0.72	499	3	3	54	mem	lib	mod	mod	low	tg	ht	wh/0529.bmp
366.48	0.72	500	3	2	53	per	con	low	mod	low	nt	fa	nh/0932_nh.bmp
367.20	0.72	501	2	4	114	mem	lib	mod	mod	mod	tg	ht	wh/0001.bmp
367.92	0.72	502	1	3	44	per	con	mod	low	mod	nt	cr	nh/0725_nh.bmp
368.64	0.72	503	4	1	7	mem	con	mod	mod	mod	nt	ms	nh/0002_nh.bmp
369.36	0.72	504	2	2	21	mem	lib	mod	mod	mod	nt	n/a	nh/0841_nh.bmp
370.08	0.72	505	4	2	53	per	con	low	mod	low	nt	fa	nh/0932_nh.bmp
370.80	0.72	506	1	1	93	mem	lib	low	low	mod	nt	ht	nh/0286_nh.bmp
371.52	0.72	507	3	3	20	per	lib	low	mod	low	nt	cr	nh/0231_nh.bmp
372.24	0.72	508	3	4	68	per	con	mod	mod	mod	tg	ms	wh/0289.bmp
372.96	0.72	509	5	2	26	mem	lib	mod	mod	mod	tg	ht	wh/0965.bmp
373.68	0.72	510	3	3	72	per	lib	mod	mod	mod	nt	fa	nh/0534_nh.bmp
374.40	0.72	511	5	2	32	mem	lib	mod	mod	mod	tg	ht	wh/0785.bmp
375.12	0.72	512	4	1	66	per	lib	mod	mod	mod	nt	fa	nh/0189_nh.bmp
375.84	0.72	513	6	1	49	per	lib	low	mod	low	nt	fa	nh/0455_nh.bmp
376.56	0.72	514	4	1	2	mem	con	mod	mod	mod	nt	ht	nh/0526_nh.bmp
377.28	0.72	515	5	3	120	mem	con	mod	mod	mod	tg	ms	wh/0847.bmp
378.00	0.72	516	6	3	26	per	lib	low	mod	low	nt	fa	nh/0325_nh.bmp
378.72	0.72	517	3	2	57	per	con	low	mod	low	tg	ms	wh/0298.bmp
379.44	0.72	518	2	3	53	mem	lib	mod	mod	low	tg	ht	wh/0066.bmp
380.16	0.72	519	1	2	15	mem	con	low	low	mod	tg	ht	wh/0321.bmp
380.88	0.72	520	5	3	32	per	lib	low	mod	low	tg	ht	wh/0766.bmp
381.60	0.72	521	3	1	111	mem	lib	mod	mod	low	nt	ht	nh/0163_nh.bmp
382.32	0.72	522	3	3	94	per	con	low	mod	low	tg	ms	wh/0853.bmp
383.04	0.72	523	4	1	62	per	lib	low	mod	low	tg	ht	wh/0116.bmp
383.76	0.72	524	1	4	10	per	lib	low	low	low	tg	ht	wh/0307.bmp
384.48	0.72	525	4	4	107	mem	con	mod	mod	low	nt	ht	nh/0217_nh.bmp
385.20	0.72	526	5	2	29	mem	lib	mod	mod	mod	tg	ht	wh/0463.bmp
385.92	0.72	527	4	1	57	per	lib	low	mod	low	nt	fa	nh/0205_nh.bmp
386.64	0.72	528	3	4	114	mem	lib	mod	mod	mod	tg	ht	wh/0001.bmp
387.36	0.72	529	4	3	63	mem	lib	mod	mod	low	nt	ht	nh/0597_nh.bmp
388.08	0.72	530	4	3	86	per	con	low	mod	low	nt	cr	nh/0836_nh.bmp
388.80	0.72	531	3	1	11	mem	con	mod	mod	mod	tg	ht	wh/0162.bmp
389.52	0.72	532	4	2	17	mem	lib	mod	mod	mod	nt	ht	nh/0561_nh.bmp
390.24	0.72	533	5	1	44	per	con	mod	mod	mod	nt	cr	nh/0750_nh.bmp
390.96	0.72	534	1	2	110	mem	lib	low	low	low	nt	ht	nh/0486_nh.bmp
391.68	0.72	535	3	1	14	mem	con	mod	mod	mod	tg	ms	wh/0600.bmp
392.40	0.72	536	5	3	85	per	con	low	mod	low	nt	cr	nh/0624_nh.bmp
393.12	0.72	537	4	2	20	mem	lib	mod	mod	mod	nt	ht	nh/0585_nh.bmp
393.84	0.72	538	3	3	124	mem	con	mod	mod	mod	nt	ht	nh/0070_nh.bmp
394.56	0.72	539	4	4	98	mem	con	mod	mod	low	nt	ht	nh/0177_nh.bmp
395.28	0.72	540	5	4	72	per	con	mod	mod	mod	tg	ht	wh/0621.bmp
396.00	0.72	541	4	3	67	per	lib	mod	mod	mod	tg	ms	wh/0414.bmp
396.72	0.72	542	4	3	78	per	lib	mod	mod	mod	nt	cr	nh/0681_nh.bmp
397.44	0.72	543	1	1	119	per	con	low	low	low	tg	ms	wh/0141.bmp
398.16	0.72	544	4	4	127	mem	lib	mod	mod	mod	nt	ms	nh/0896_nh.bmp
398.88	0.72	545	5	1	57	per	lib	low	mod	low	nt	fa	nh/0205_nh.bmp
399.60	0.72	546	5	4	117	mem	lib	mod	mod	mod	tg	ht	wh/0955.bmp
400.32	0.72	547	1	2	67	per	con	mod	low	mod	tg	ms	wh/0406.bmp
401.04	0.72	548	6	1	42	per	con	mod	mod	mod	tg	ms	wh/0637.bmp
401.76	0.72	549	4	1	45	per	con	mod	mod	mod	tg	ht	wh/0679.bmp
402.48	0.72	550	1	4	84	per	con	low	low	low	nt	cr	nh/0122_nh.bmp
403.20	0.72	551	4	2	57	per	con	low	mod	low	tg	ms	wh/0298.bmp
403.92	0.72	552	4	3	81	per	con	low	mod	low	nt	cr	nh/0251_nh.bmp
404.64	0.72	553	3	2	49	per	con	low	mod	low	tg	ms	wh/0704.bmp
405.36	0.72	554	4	3	128	mem	con	mod	mod	mod	tg	ht	wh/0287.bmp
406.08	0.72	555	3	2	51	per	con	low	mod	low	tg	ms	wh/0379.bmp
406.80	0.72	556	3	3	118	mem	con	mod	mod	mod	nt	ht	nh/0938_nh.bmp
407.52	0.72	557	3	4	106	mem	con	mod	mod	low	tg	ht	wh/0341.bmp
408.24	0.72	558	4	3	69	per	lib	mod	mod	mod	nt	cr	nh/0981_nh.bmp
408.96	0.72	559	3	2	47	mem	con	mod	mod	low	nt	ht	nh/0115_nh.bmp
409.68	0.72	560	1	1	121	per	con	low	low	low	nt	cr	nh/0786_nh.bmp
410.40	0.72	561	4	2	44	mem	con	mod	mod	low	tg	ms	wh/0178.bmp
411.12	0.72	562	5	1	45	per	con	mod	mod	mod	tg	ht	wh/0679.bmp
411.84	0.72	563	4	4	80	per	con	mod	mod	mod	tg	ht	wh/0899.bmp
412.56	0.72	564	6	1	57	per	lib	low	mod	low	nt	fa	nh/0205_nh.bmp
413.28	0.72	565	4	1	108	mem	lib	mod	mod	low	tg	ht	wh/0435.bmp
414.00	0.72	566	6	1	51	per	lib	low	mod	low	tg	ms	wh/0200.bmp
414.72	0.72	567	4	4	122	mem	lib	mod	mod	mod	nt	ms	nh/0935_nh.bmp
415.44	0.72	568	3	4	75	per	con	mod	mod	mod	nt	cr	nh/0692_nh.bmp
416.16	0.72	569	4	3	123	mem	con	mod	mod	mod	tg	ht	wh/0580.bmp
416.88	0.72	570	5	1	39	per	con	mod	mod	mod	tg	ht	wh/0884.bmp
417.60	0.72	571	5	2	58	per	con	low	mod	low	nt	cr	nh/0648_nh.bmp
418.32	0.72	572	2	2	30	mem	lib	mod	mod	mod	tg	ht	wh/0698.bmp
419.04	0.72	573	4	1	34	per	con	mod	mod	mod	nt	cr	nh/0100_nh.bmp
419.76	0.72	574	6	3	73	per	lib	mod	mod	mod	tg	ms	wh/0605.bmp
420.48	0.72	575	6	4	74	per	con	mod	mod	mod	nt	cr	nh/0627_nh.bmp
421.20	0.72	576	5	1	2	mem	con	mod	mod	mod	nt	ht	nh/0526_nh.bmp
421.92	0.72	577	5	3	128	mem	con	mod	mod	mod	tg	ht	wh/0287.bmp
422.64	0.72	578	3	1	43	per	con	mod	mod	mod	nt	cr	nh/0473_nh.bmp
423.36	0.72	579	1	2	8	mem	con	low	low	mod	tg	ht	wh/0696.bmp
424.08	0.72	580	4	3	62	mem	lib	mod	mod	low	nt	ht	nh/0997_nh.bmp
424.80	0.72	581	5	1	102	mem	lib	mod	mod	low	nt	ht	nh/0031_nh.bmp
425.52	0.72	582	4	3	20	per	lib	low	mod	low	nt	cr	nh/0231_nh.bmp
426.24	0.72	583	2	3	25	per	lib	low	mod	low	tg	ht	wh/0745.bmp
426.96	0.72	584	5	2	17	mem	lib	mod	mod	mod	nt	ht	nh/0561_nh.bmp
427.68	0.72	585	6	3	60	mem	lib	mod	mod	low	tg	ht	wh/0816.bmp
428.40	0.72	586	5	4	97	mem	con	mod	mod	low	tg	ms	wh/0421.bmp
429.12	0.72	587	1	2	1	mem	con	low	low	mod	nt	ms	nh/0887_nh.bmp
429.84	0.72	588	5	4	116	mem	lib	mod	mod	mod	nt	ht	nh/0642_nh.bmp
430.56	0.72	589	3	1	98	mem	lib	mod	mod	low	tg	ht	wh/0155.bmp
431.28	0.72	590	4	1	78	per	lib	mod	mod	mod	tg	ht	wh/0017.bmp
432.00	0.72	591	4	2	54	per	con	low	mod	low	nt	cr	nh/0105_nh.bmp
432.72	0.72	592	4	4	75	per	con	mod	mod	mod	nt	cr	nh/0692_nh.bmp
433.44	0.72	593	5	1	103	mem	lib	mod	mod	low	nt	ht	nh/0392_nh.bmp
434.16	0.72	594	4	2	51	per	con	low	mod	low	tg	ms	wh/0379.bmp
434.88	0.72	595	3	2	21	mem	lib	mod	mod	mod	nt	n/a	nh/0841_nh.bmp
435.60	0.72	596	4	1	43	per	con	mod	mod	mod	nt	cr	nh/0473_nh.bmp
436.32	0.72	597	5	1	99	mem	lib	mod	mod	low	tg	ht	wh/0133.bmp
437.04	0.72	598	3	3	53	mem	lib	mod	mod	low	tg	ht	wh/0066.bmp
437.76	0.72	599	3	2	30	mem	lib	mod	mod	mod	tg	ht	wh/0698.bmp
438.48	0.72	600	4	3	50	mem	lib	mod	mod	low	nt	ht	nh/0377_nh.bmp
439.20	0.72	601	4	2	30	mem	lib	mod	mod	mod	tg	ht	wh/0698.bmp
439.92	0.72	602	6	2	26	mem	lib	mod	mod	mod	tg	ht	wh/0965.bmp
440.64	0.72	603	6	2	29	mem	lib	mod	mod	mod	tg	ht	wh/0463.bmp
441.36	0.72	604	5	4	127	mem	lib	mod	mod	mod	nt	ms	nh/0896_nh.bmp
442.08	0.72	605	6	1	99	mem	lib	mod	mod	low	tg	ht	wh/0133.bmp
442.80	0.72	606	1	2	101	mem	lib	low	low	low	tg	ht	wh/0499.bmp
443.52	0.72	607	6	2	32	mem	lib	mod	mod	mod	tg	ht	wh/0785.bmp
444.24	0.72	608	5	3	22	per	lib	low	mod	low	tg	ht	wh/0387.bmp
444.96	0.72	609	5	2	46	mem	con	mod	mod	low	tg	ht	wh/0014.bmp
445.68	0.72	610	3	2	43	mem	con	mod	mod	low	tg	ht	wh/0926.bmp
446.40	0.72	611	5	1	56	per	lib	low	mod	low	tg	ht	wh/0727.bmp
447.12	0.72	612	4	1	11	mem	con	mod	mod	mod	tg	ht	wh/0162.bmp
447.84	0.72	613	3	3	23	per	lib	low	mod	low	nt	fa	nh/0145_nh.bmp
448.56	0.72	614	4	4	106	mem	con	mod	mod	low	tg	ht	wh/0341.bmp
449.28	0.72	615	4	3	53	mem	lib	mod	mod	low	tg	ht	wh/0066.bmp
450.00	0.72	616	6	1	45	per	con	mod	mod	mod	tg	ht	wh/0679.bmp
450.72	0.72	617	4	3	94	per	con	low	mod	low	tg	ms	wh/0853.bmp
451.44	0.72	618	6	1	56	per	lib	low	mod	low	tg	ht	wh/0727.bmp
452.16	0.72	619	4	3	57	mem	lib	mod	mod	low	nt	ht	nh/0019_nh.bmp
452.88	0.72	620	1	4	50	per	lib	mod	low	mod	tg	ht	wh/0311.bmp
453.60	0.72	621	4	3	54	mem	lib	mod	mod	low	tg	ht	wh/0529.bmp
454.32	0.72	622	5	1	43	per	con	mod	mod	mod	nt	cr	nh/0473_nh.bmp
455.04	0.72	623	5	3	86	per	con	low	mod	low	nt	cr	nh/0836_nh.bmp
455.76	0.72	624	5	3	81	per	con	low	mod	low	nt	cr	nh/0251_nh.bmp
456.48	0.72	625	4	1	98	mem	lib	mod	mod	low	tg	ht	wh/0155.bmp
457.20	0.72	626	6	4	102	mem	con	mod	mod	low	tg	ms	wh/0733.bmp
457.92	0.72	627	5	3	63	mem	lib	mod	mod	low	nt	ht	nh/0597_nh.bmp
458.64	0.72	628	1	4	18	mem	con	low	low	mod	tg	ms	wh/0326.bmp
459.36	0.72	629	4	4	68	per	con	mod	mod	mod	tg	ms	wh/0289.bmp
460.08	0.72	630	4	2	21	mem	lib	mod	mod	mod	nt	n/a	nh/0841_nh.bmp
460.80	0.72	631	4	1	111	mem	lib	mod	mod	low	nt	ht	nh/0163_nh.bmp
461.52	0.72	632	1	3	6	mem	con	low	low	low	tg	ms	wh/0142.bmp
462.24	0.72	633	5	4	80	per	con	mod	mod	mod	tg	ht	wh/0899.bmp
462.96	0.72	634	6	3	86	per	con	low	mod	low	nt	cr	nh/0836_nh.bmp
463.68	0.72	635	6	1	102	mem	lib	mod	mod	low	nt	ht	nh/0031_nh.bmp
464.40	0.72	636	5	3	127	mem	con	mod	mod	mod	tg	ms	wh/0878.bmp
465.12	0.72	637	5	4	101	mem	con	mod	mod	low	tg	ms	wh/0868.bmp
465.84	0.72	638	5	3	21	per	lib	low	mod	low	tg	ht	wh/0156.bmp
466.56	0.72	639	4	3	118	mem	con	mod	mod	mod	nt	ht	nh/0938_nh.bmp
467.28	0.72	640	1	4	58	per	lib	mod	low	mod	nt	fa	nh/0906_nh.bmp
468.00	0.72	641	4	4	103	mem	con	mod	mod	low	nt	ht	nh/0675_nh.bmp
468.72	0.72	642	5	3	62	mem	lib	mod	mod	low	nt	ht	nh/0997_nh.bmp
469.44	0.72	643	4	3	72	per	lib	mod	mod	mod	nt	fa	nh/0534_nh.bmp
470.16	0.72	644	5	4	75	per	con	mod	mod	mod	nt	cr	nh/0692_nh.bmp
470.88	0.72	645	6	3	84	per	con	low	mod	low	tg	ms	wh/0472.bmp
471.60	0.72	646	6	3	22	per	lib	low	mod	low	tg	ht	wh/0387.bmp
472.32	0.72	647	5	3	53	mem	lib	mod	mod	low	tg	ht	wh/0066.bmp
473.04	0.72	648	4	1	60	per	lib	low	mod	low	nt	cr	nh/0168_nh.bmp
473.76	0.72	649	6	3	21	per	lib	low	mod	low	tg	ht	wh/0156.bmp
474.48	0.72	650	3	1	70	per	lib	mod	mod	mod	tg	ht	wh/0393.bmp
475.20	0.72	651	6	3	62	mem	lib	mod	mod	low	nt	ht	nh/0997_nh.bmp
475.92	0.72	652	5	3	57	mem	lib	mod	mod	low	nt	ht	nh/0019_nh.bmp
476.64	0.72	653	5	3	123	mem	con	mod	mod	mod	tg	ht	wh/0580.bmp
477.36	0.72	654	1	2	117	per	lib	mod	low	mod	nt	fa	nh/0149_nh.bmp
478.08	0.72	655	4	3	23	per	lib	low	mod	low	nt	fa	nh/0145_nh.bmp
478.80	0.72	656	3	3	25	per	lib	low	mod	low	tg	ht	wh/0745.bmp
479.52	0.72	657	3	3	74	per	lib	mod	mod	mod	nt	fa	nh/0466_nh.bmp
480.24	0.72	658	2	2	59	per	con	low	mod	low	tg	ms	wh/0897.bmp
480.96	0.72	659	5	1	109	mem	lib	mod	mod	low	nt	ht	nh/0353_nh.bmp
481.68	0.72	660	5	3	51	mem	lib	mod	mod	low	tg	ms	wh/0128.bmp
482.40	0.72	661	4	2	43	mem	con	mod	mod	low	tg	ht	wh/0926.bmp
483.12	0.72	662	4	1	70	per	lib	mod	mod	mod	tg	ht	wh/0393.bmp
483.84	0.72	663	6	3	63	mem	lib	mod	mod	low	nt	ht	nh/0597_nh.bmp
484.56	0.72	664	4	3	25	per	lib	low	mod	low	tg	ht	wh/0745.bmp
485.28	0.72	665	5	1	111	mem	lib	mod	mod	low	nt	ht	nh/0163_nh.bmp
486.00	0.72	666	2	4	66	per	con	mod	mod	mod	nt	cr	nh/0429_nh.bmp
486.72	0.72	667	6	1	39	per	con	mod	mod	mod	tg	ht	wh/0884.bmp
487.44	0.72	668	4	3	124	mem	con	mod	mod	mod	nt	ht	nh/0070_nh.bmp
488.16	0.72	669	5	3	70	per	lib	mod	mod	mod	tg	ht	wh/0801.bmp
488.88	0.72	670	5	3	94	per	con	low	mod	low	tg	ms	wh/0853.bmp
489.60	0.72	671	5	1	12	mem	con	mod	mod	mod	nt	ht	nh/0724_nh.bmp
490.32	0.72	672	1	4	40	mem	lib	low	low	mod	tg	ht	wh/0702.bmp
491.04	0.72	673	6	3	90	per	con	low	mod	low	tg	ms	wh/0573.bmp
491.76	0.72	674	5	1	69	per	lib	mod	mod	mod	nt	cr	nh/0405_nh.bmp
492.48	0.72	675	5	1	61	per	lib	low	mod	low	tg	ht	wh/1021.bmp
493.20	0.72	676	5	2	53	per	con	low	mod	low	nt	fa	nh/0932_nh.bmp
493.92	0.72	677	5	4	70	per	con	mod	mod	mod	nt	cr	nh/0098_nh.bmp
494.64	0.72	678	4	1	64	per	lib	low	mod	low	nt	cr	nh/0755_nh.bmp
495.36	0.72	679	1	1	84	mem	lib	low	low	mod	nt	ms	nh/0752_nh.bmp
496.08	0.72	680	6	4	117	mem	lib	mod	mod	mod	tg	ht	wh/0955.bmp
496.80	0.72	681	4	1	77	per	lib	mod	mod	mod	nt	cr	nh/0775_nh.bmp
497.52	0.72	682	5	3	20	per	lib	low	mod	low	nt	cr	nh/0231_nh.bmp
498.24	0.72	683	5	1	34	per	con	mod	mod	mod	nt	cr	nh/0100_nh.bmp
498.96	0.72	684	4	4	123	mem	lib	mod	mod	mod	tg	ht	wh/0425.bmp
499.68	0.72	685	5	4	122	mem	lib	mod	mod	mod	nt	ms	nh/0935_nh.bmp
500.40	0.72	686	3	4	66	per	con	mod	mod	mod	nt	cr	nh/0429_nh.bmp
501.12	0.72	687	6	3	53	mem	lib	mod	mod	low	tg	ht	wh/0066.bmp
501.84	0.72	688	4	4	114	mem	lib	mod	mod	mod	tg	ht	wh/0001.bmp
502.56	0.72	689	1	3	42	per	con	mod	low	mod	nt	cr	nh/0844_nh.bmp
503.28	0.72	690	6	3	81	per	con	low	mod	low	nt	cr	nh/0251_nh.bmp
504.00	0.72	691	5	2	62	per	con	low	mod	low	nt	cr	nh/0265_nh.bmp
504.72	0.72	692	1	3	103	mem	lib	low	low	low	tg	ht	wh/1001.bmp
505.44	0.72	693	4	1	5	mem	con	mod	mod	mod	tg	ms	wh/0596.bmp
506.16	0.72	694	4	1	9	mem	con	mod	mod	mod	nt	ht	nh/0920_nh.bmp
506.88	0.72	695	5	4	98	mem	con	mod	mod	low	nt	ht	nh/0177_nh.bmp
507.60	0.72	696	4	2	38	mem	con	mod	mod	low	tg	n/a	wh/0649.bmp
508.32	0.72	697	1	3	40	per	con	mod	low	mod	tg	ms	wh/0332.bmp
509.04	0.72	698	4	1	75	per	lib	mod	mod	mod	nt	fa	nh/0274_nh.bmp
509.76	0.72	699	4	4	66	per	con	mod	mod	mod	nt	cr	nh/0429_nh.bmp
510.48	0.72	700	5	3	67	per	lib	mod	mod	mod	tg	ms	wh/0414.bmp
511.20	0.72	701	5	4	107	mem	con	mod	mod	low	nt	ht	nh/0217_nh.bmp
511.92	0.72	702	5	1	11	mem	con	mod	mod	mod	tg	ht	wh/0162.bmp
512.64	0.72	703	5	4	123	mem	lib	mod	mod	mod	tg	ht	wh/0425.bmp
513.36	0.72	704	5	1	77	per	lib	mod	mod	mod	nt	cr	nh/0775_nh.bmp
514.08	0.72	705	1	4	9	per	lib	low	low	low	tg	ht	wh/0065.bmp
514.80	0.72	706	5	2	44	mem	con	mod	mod	low	tg	ms	wh/0178.bmp
515.52	0.72	707	5	3	78	per	lib	mod	mod	mod	nt	cr	nh/0681_nh.bmp
516.24	0.72	708	6	1	111	mem	lib	mod	mod	low	nt	ht	nh/0163_nh.bmp
516.96	0.72	709	5	2	57	per	con	low	mod	low	tg	ms	wh/0298.bmp
517.68	0.72	710	6	3	67	per	lib	mod	mod	mod	tg	ms	wh/0414.bmp
518.40	0.72	711	1	4	81	per	con	low	low	low	tg	ms	wh/0191.bmp
519.12	0.72	712	5	4	103	mem	con	mod	mod	low	nt	ht	nh/0675_nh.bmp
519.84	0.72	713	4	2	49	per	con	low	mod	low	tg	ms	wh/0704.bmp
520.56	0.72	714	5	3	118	mem	con	mod	mod	mod	nt	ht	nh/0938_nh.bmp
521.28	0.72	715	4	1	14	mem	con	mod	mod	mod	tg	ms	wh/0600.bmp
522.00	0.72	716	6	2	44	mem	con	mod	mod	low	tg	ms	wh/0178.bmp
522.72	0.72	717	6	4	116	mem	lib	mod	mod	mod	nt	ht	nh/0642_nh.bmp
523.44	0.72	718	6	1	40	per	con	mod	mod	mod	nt	cr	nh/0183_nh.bmp
524.16	0.72	719	4	1	71	per	lib	mod	mod	mod	tg	ms	wh/0975.bmp
524.88	0.72	720	6	1	69	per	lib	mod	mod	mod	nt	cr	nh/0405_nh.bmp
525.60	0.72	721	5	2	43	mem	con	mod	mod	low	tg	ht	wh/0926.bmp
526.32	0.72	722	5	1	71	per	lib	mod	mod	mod	tg	ms	wh/0975.bmp
527.04	0.72	723	1	2	120	per	lib	mod	low	mod	nt	cr	nh/0589_nh.bmp
527.76	0.72	724	4	1	37	per	con	mod	mod	mod	tg	ms	wh/0942.bmp
528.48	0.72	725	5	1	70	per	lib	mod	mod	mod	tg	ht	wh/0393.bmp
529.20	0.72	726	5	4	106	mem	con	mod	mod	low	tg	ht	wh/0341.bmp
529.92	0.72	727	6	2	17	mem	lib	mod	mod	mod	nt	ht	nh/0561_nh.bmp
530.64	0.72	728	6	1	71	per	lib	mod	mod	mod	tg	ms	wh/0975.bmp
531.36	0.72	729	5	4	66	per	con	mod	mod	mod	nt	cr	nh/0429_nh.bmp
532.08	0.72	730	6	4	80	per	con	mod	mod	mod	tg	ht	wh/0899.bmp
532.80	0.72	731	6	1	43	per	con	mod	mod	mod	nt	cr	nh/0473_nh.bmp
533.52	0.72	732	4	3	28	per	lib	low	mod	low	nt	cr	nh/0514_nh.bmp
534.24	0.72	733	1	2	81	per	lib	low	low	low	tg	ht	wh/0126.bmp
534.96	0.72	734	5	1	5	mem	con	mod	mod	mod	tg	ms	wh/0596.bmp
535.68	0.72	735	1	2	95	per	lib	low	low	low	tg	ms	wh/0423.bmp
536.40	0.72	736	5	1	9	mem	con	mod	mod	mod	nt	ht	nh/0920_nh.bmp
537.12	0.72	737	1	2	70	per	con	mod	low	mod	nt	cr	nh/0829_nh.bmp
537.84	0.72	738	5	3	72	per	lib	mod	mod	mod	nt	fa	nh/0534_nh.bmp
538.56	0.72	739	6	1	34	per	con	mod	mod	mod	nt	cr	nh/0100_nh.bmp
539.28	0.72	740	6	1	12	mem	con	mod	mod	mod	nt	ht	nh/0724_nh.bmp
540.00	0.72	741	6	1	61	per	lib	low	mod	low	tg	ht	wh/1021.bmp
540.72	0.72	742	5	3	28	per	lib	low	mod	low	nt	cr	nh/0514_nh.bmp
541.44	0.72	743	5	3	23	per	lib	low	mod	low	nt	fa	nh/0145_nh.bmp
542.16	0.72	744	5	2	54	per	con	low	mod	low	nt	cr	nh/0105_nh.bmp
542.88	0.72	745	1	1	24	mem	con	low	low	low	tg	ms	wh/0996.bmp
543.60	0.72	746	6	3	51	mem	lib	mod	mod	low	tg	ms	wh/0128.bmp
544.32	0.72	747	6	2	54	per	con	low	mod	low	nt	cr	nh/0105_nh.bmp
545.04	0.72	748	5	1	78	per	lib	mod	mod	mod	tg	ht	wh/0017.bmp
545.76	0.72	749	1	1	124	per	con	low	low	low	tg	ms	wh/0006.bmp
546.48	0.72	750	1	4	38	mem	lib	low	low	mod	tg	ht	wh/0601.bmp
547.20	0.72	751	5	1	14	mem	con	mod	mod	mod	tg	ms	wh/0600.bmp
547.92	0.72	752	5	4	114	mem	lib	mod	mod	mod	tg	ht	wh/0001.bmp
548.64	0.72	753	6	3	78	per	lib	mod	mod	mod	nt	cr	nh/0681_nh.bmp
549.36	0.72	754	5	2	51	per	con	low	mod	low	tg	ms	wh/0379.bmp
550.08	0.72	755	6	4	123	mem	lib	mod	mod	mod	tg	ht	wh/0425.bmp
550.80	0.72	756	6	1	2	mem	con	mod	mod	mod	nt	ht	nh/0526_nh.bmp
551.52	0.72	757	1	4	25	mem	con	low	low	mod	nt	ms	nh/0912_nh.bmp
552.24	0.72	758	6	4	97	mem	con	mod	mod	low	tg	ms	wh/0421.bmp
552.96	0.72	759	6	3	20	per	lib	low	mod	low	nt	cr	nh/0231_nh.bmp
553.68	0.72	760	6	1	14	mem	con	mod	mod	mod	tg	ms	wh/0600.bmp
554.40	0.72	761	5	3	125	mem	con	mod	mod	mod	nt	ht	nh/0919_nh.bmp
555.12	0.72	762	5	1	60	per	lib	low	mod	low	nt	cr	nh/0168_nh.bmp
555.84	0.72	763	5	2	30	mem	lib	mod	mod	mod	tg	ht	wh/0698.bmp
556.56	0.72	764	6	3	118	mem	con	mod	mod	mod	nt	ht	nh/0938_nh.bmp
557.28	0.72	765	6	3	71	per	lib	mod	mod	mod	tg	ht	wh/0391.bmp
558.00	0.72	766	1	2	105	mem	lib	low	low	low	tg	ms	wh/0152.bmp
558.72	0.72	767	6	1	70	per	lib	mod	mod	mod	tg	ht	wh/0393.bmp
559.44	0.72	768	5	3	50	mem	lib	mod	mod	low	nt	ht	nh/0377_nh.bmp
560.16	0.72	769	5	3	124	mem	con	mod	mod	mod	nt	ht	nh/0070_nh.bmp
560.88	0.72	770	1	3	2	mem	con	low	low	low	nt	ms	nh/0682_nh.bmp
561.60	0.72	771	5	2	21	mem	lib	mod	mod	mod	nt	n/a	nh/0841_nh.bmp
562.32	0.72	772	6	4	66	per	con	mod	mod	mod	nt	cr	nh/0429_nh.bmp
563.04	0.72	773	5	4	68	per	con	mod	mod	mod	tg	ms	wh/0289.bmp
563.76	0.72	774	5	1	62	per	lib	low	mod	low	tg	ht	wh/0116.bmp
564.48	0.72	775	5	1	37	per	con	mod	mod	mod	tg	ms	wh/0942.bmp
565.20	0.72	776	6	1	5	mem	con	mod	mod	mod	tg	ms	wh/0596.bmp
565.92	0.72	777	6	4	98	mem	con	mod	mod	low	nt	ht	nh/0177_nh.bmp
566.64	0.72	778	3	2	59	per	con	low	mod	low	tg	ms	wh/0897.bmp
567.36	0.72	779	6	3	32	per	lib	low	mod	low	tg	ht	wh/0766.bmp
568.08	0.72	780	5	1	75	per	lib	mod	mod	mod	nt	fa	nh/0274_nh.bmp
568.80	0.72	781	5	1	98	mem	lib	mod	mod	low	tg	ht	wh/0155.bmp
569.52	0.72	782	5	2	38	mem	con	mod	mod	low	tg	n/a	wh/0649.bmp
570.24	0.72	783	4	2	39	mem	con	mod	mod	low	nt	ht	nh/0027_nh.bmp
570.96	0.72	784	6	3	72	per	lib	mod	mod	mod	nt	fa	nh/0534_nh.bmp
571.68	0.72	785	5	1	7	mem	con	mod	mod	mod	nt	ms	nh/0002_nh.bmp
572.40	0.72	786	1	4	94	per	con	low	low	low	nt	cr	nh/0788_nh.bmp
573.12	0.72	787	5	4	100	mem	con	mod	mod	low	nt	ht	nh/0739_nh.bmp
573.84	0.72	788	1	1	20	mem	con	low	low	low	nt	ms	nh/0159_nh.bmp
574.56	0.72	789	6	2	58	per	con	low	mod	low	nt	cr	nh/0648_nh.bmp
575.28	0.72	790	4	2	47	mem	con	mod	mod	low	nt	ht	nh/0115_nh.bmp
576.00	0.72	791	6	3	123	mem	con	mod	mod	mod	tg	ht	wh/0580.bmp
576.72	0.72	792	4	2	59	per	con	low	mod	low	tg	ms	wh/0897.bmp
577.44	0.72	793	1	4	26	mem	con	low	low	mod	tg	ms	wh/0501.bmp
578.16	0.72	794	5	1	66	per	lib	mod	mod	mod	nt	fa	nh/0189_nh.bmp
578.88	0.72	795	6	4	127	mem	lib	mod	mod	mod	nt	ms	nh/0896_nh.bmp
579.60	0.72	796	6	4	106	mem	con	mod	mod	low	tg	ht	wh/0341.bmp
580.32	0.72	797	5	1	108	mem	lib	mod	mod	low	tg	ht	wh/0435.bmp
581.04	0.72	798	5	1	64	per	lib	low	mod	low	nt	cr	nh/0755_nh.bmp
581.76	0.72	799	6	3	120	mem	con	mod	mod	mod	tg	ms	wh/0847.bmp
582.48	0.72	800	1	2	91	per	lib	low	low	low	tg	ht	wh/0794.bmp
583.20	0.72	801	1	1	89	mem	lib	low	low	mod	tg	ht	wh/0551.bmp
583.92	0.72	802	1	4	21	mem	con	low	low	mod	tg	ht	wh/0478.bmp
584.64	0.72	803	5	4	67	per	con	mod	mod	mod	tg	ms	wh/0658.bmp
585.36	0.72	804	6	4	107	mem	con	mod	mod	low	nt	ht	nh/0217_nh.bmp
586.08	0.72	805	6	3	85	per	con	low	mod	low	nt	cr	nh/0624_nh.bmp
586.80	0.72	806	6	4	72	per	con	mod	mod	mod	tg	ht	wh/0621.bmp
587.52	0.72	807	6	3	127	mem	con	mod	mod	mod	tg	ms	wh/0878.bmp
588.24	0.72	808	5	3	25	per	lib	low	mod	low	tg	ht	wh/0745.bmp
588.96	0.72	809	5	2	49	per	con	low	mod	low	tg	ms	wh/0704.bmp
589.68	0.72	810	5	2	59	per	con	low	mod	low	tg	ms	wh/0897.bmp
590.40	0.72	811	6	4	75	per	con	mod	mod	mod	nt	cr	nh/0692_nh.bmp
591.12	0.72	812	6	1	75	per	lib	mod	mod	mod	nt	fa	nh/0274_nh.bmp
591.84	0.72	813	6	2	57	per	con	low	mod	low	tg	ms	wh/0298.bmp
592.56	0.72	814	6	1	103	mem	lib	mod	mod	low	nt	ht	nh/0392_nh.bmp
593.28	0.72	815	1	1	126	per	con	low	low	low	nt	cr	nh/0533_nh.bmp
594.00	0.72	816	5	2	20	mem	lib	mod	mod	mod	nt	ht	nh/0585_nh.bmp
594.72	0.72	817	5	2	39	mem	con	mod	mod	low	nt	ht	nh/0027_nh.bmp
595.44	0.72	818	6	4	70	per	con	mod	mod	mod	nt	cr	nh/0098_nh.bmp
596.16	0.72	819	6	1	109	mem	lib	mod	mod	low	nt	ht	nh/0353_nh.bmp
596.88	0.72	820	6	1	108	mem	lib	mod	mod	low	tg	ht	wh/0435.bmp
597.60	0.72	821	6	1	44	per	con	mod	mod	mod	nt	cr	nh/0750_nh.bmp
598.32	0.72	822	1	2	126	per	lib	mod	low	mod	tg	ht	wh/0218.bmp
599.04	0.72	823	1	1	83	mem	lib	low	low	mod	nt	ms	nh/0553_nh.bmp
599.76	0.72	824	6	2	30	mem	lib	mod	mod	mod	tg	ht	wh/0698.bmp
600.48	0.72	825	6	1	62	per	lib	low	mod	low	tg	ht	wh/0116.bmp
601.20	0.72	826	1	4	90	per	con	low	low	low	tg	ms	wh/0654.bmp
601.92	0.72	827	6	3	57	mem	lib	mod	mod	low	nt	ht	nh/0019_nh.bmp
602.64	0.72	828	6	3	23	per	lib	low	mod	low	nt	fa	nh/0145_nh.bmp
603.36	0.72	829	1	3	48	per	con	mod	low	mod	nt	cr	nh/0898_nh.bmp
604.08	0.72	830	1	4	11	per	lib	low	low	low	nt	fa	nh/0800_nh.bmp
604.80	0.72	831	6	2	59	per	con	low	mod	low	tg	ms	wh/0897.bmp
605.52	0.72	832	6	2	33	mem	con	mod	mod	low	nt	ms	nh/0040_nh.bmp
606.24	0.72	833	6	2	21	mem	lib	mod	mod	mod	nt	n/a	nh/0841_nh.bmp
606.96	0.72	834	1	2	109	mem	lib	low	low	low	tg	ht	wh/0651.bmp
607.68	0.72	835	6	4	100	mem	con	mod	mod	low	nt	ht	nh/0739_nh.bmp
608.40	0.72	836	5	3	113	mem	con	mod	mod	mod	nt	ht	nh/0857_nh.bmp
609.12	0.72	837	1	3	110	mem	lib	low	low	low	nt	ms	nh/0685_nh.bmp
609.84	0.72	838	6	3	25	per	lib	low	mod	low	tg	ht	wh/0745.bmp
610.56	0.72	839	6	1	98	mem	lib	mod	mod	low	tg	ht	wh/0155.bmp
611.28	0.72	840	4	3	74	per	lib	mod	mod	mod	nt	fa	nh/0466_nh.bmp
612.00	0.72	841	6	1	60	per	lib	low	mod	low	nt	cr	nh/0168_nh.bmp
612.72	0.72	842	6	1	11	mem	con	mod	mod	mod	tg	ht	wh/0162.bmp
613.44	0.72	843	1	2	65	per	con	mod	low	mod	tg	ms	wh/0910.bmp
614.16	0.72	844	6	2	49	per	con	low	mod	low	tg	ms	wh/0704.bmp
614.88	0.72	845	6	3	70	per	lib	mod	mod	mod	tg	ht	wh/0801.bmp
615.60	0.72	846	6	3	128	mem	con	mod	mod	mod	tg	ht	wh/0287.bmp
616.32	0.72	847	5	2	47	mem	con	mod	mod	low	nt	ht	nh/0115_nh.bmp
617.04	0.72	848	6	1	78	per	lib	mod	mod	mod	tg	ht	wh/0017.bmp
617.76	0.72	849	6	3	28	per	lib	low	mod	low	nt	cr	nh/0514_nh.bmp
618.48	0.72	850	6	4	67	per	con	mod	mod	mod	tg	ms	wh/0658.bmp
619.20	0.72	851	1	3	97	mem	lib	low	low	low	tg	ht	wh/0522.bmp
619.92	0.72	852	6	1	68	per	lib	mod	mod	mod	tg	ht	wh/0959.bmp
620.64	0.72	853	5	3	69	per	lib	mod	mod	mod	nt	cr	nh/0981_nh.bmp
621.36	0.72	854	6	2	53	per	con	low	mod	low	nt	fa	nh/0932_nh.bmp
622.08	0.72	855	6	2	39	mem	con	mod	mod	low	nt	ht	nh/0027_nh.bmp
622.80	0.72	856	6	2	51	per	con	low	mod	low	tg	ms	wh/0379.bmp
623.52	0.72	857	6	3	113	mem	con	mod	mod	mod	nt	ht	nh/0857_nh.bmp
624.24	0.72	858	1	4	86	per	con	low	low	low	nt	cr	nh/0662_nh.bmp
624.96	0.72	859	6	4	68	per	con	mod	mod	mod	tg	ms	wh/0289.bmp
625.68	0.72	860	6	2	25	mem	lib	mod	mod	mod	nt	ht	nh/0204_nh.bmp
626.40	0.72	861	6	4	103	mem	con	mod	mod	low	nt	ht	nh/0675_nh.bmp
627.12	0.72	862	6	1	66	per	lib	mod	mod	mod	nt	fa	nh/0189_nh.bmp
627.84	0.72	863	6	2	62	per	con	low	mod	low	nt	cr	nh/0265_nh.bmp
628.56	0.72	864	6	4	122	mem	lib	mod	mod	mod	nt	ms	nh/0935_nh.bmp
629.28	0.72	865	6	2	38	mem	con	mod	mod	low	tg	n/a	wh/0649.bmp
630.00	0.72	866	6	1	7	mem	con	mod	mod	mod	nt	ms	nh/0002_nh.bmp
630.72	0.72	867	1	4	54	per	lib	mod	low	mod	nt	cr	nh/0083_nh.bmp
631.44	0.72	868	6	4	101	mem	con	mod	mod	low	tg	ms	wh/0868.bmp
632.16	0.72	869	6	4	114	mem	lib	mod	mod	mod	tg	ht	wh/0001.bmp
632.88	0.72	870	6	2	43	mem	con	mod	mod	low	tg	ht	wh/0926.bmp
633.60	0.72	871	6	3	124	mem	con	mod	mod	mod	nt	ht	nh/0070_nh.bmp
634.32	0.72	872	6	1	77	per	lib	mod	mod	mod	nt	cr	nh/0775_nh.bmp
635.04	0.72	873	5	3	54	mem	lib	mod	mod	low	tg	ht	wh/0529.bmp
635.76	0.72	874	1	1	118	per	con	low	low	low	tg	ms	wh/0015.bmp
636.48	0.72	875	1	1	87	mem	lib	low	low	mod	nt	ms	nh/0296_nh.bmp
637.20	0.72	876	6	3	94	per	con	low	mod	low	tg	ms	wh/0853.bmp
637.92	0.72	877	5	4	124	mem	lib	mod	mod	mod	tg	ht	wh/0700.bmp
638.64	0.72	878	5	3	74	per	lib	mod	mod	mod	nt	fa	nh/0466_nh.bmp
639.36	0.72	879	6	2	47	mem	con	mod	mod	low	nt	ht	nh/0115_nh.bmp
640.08	0.72	880	6	3	69	per	lib	mod	mod	mod	nt	cr	nh/0981_nh.bmp
640.80	0.72	881	6	3	74	per	lib	mod	mod	mod	nt	fa	nh/0466_nh.bmp
641.52	0.72	882	6	2	20	mem	lib	mod	mod	mod	nt	ht	nh/0585_nh.bmp
642.24	0.72	883	6	4	124	mem	lib	mod	mod	mod	tg	ht	wh/0700.bmp
642.96	0.72	884	6	3	125	mem	con	mod	mod	mod	nt	ht	nh/0919_nh.bmp
643.68	0.72	885	6	1	64	per	lib	low	mod	low	nt	cr	nh/0755_nh.bmp
644.40	0.72	886	6	1	9	mem	con	mod	mod	mod	nt	ht	nh/0920_nh.bmp
645.12	0.72	887	6	2	46	mem	con	mod	mod	low	tg	ht	wh/0014.bmp
645.84	0.72	888	5	1	4	mem	con	mod	mod	mod	tg	ht	wh/0879.bmp
646.56	0.72	889	6	3	50	mem	lib	mod	mod	low	nt	ht	nh/0377_nh.bmp
647.28	0.72	890	1	4	35	mem	lib	low	low	mod	nt	ms	nh/0740_nh.bmp
648.00	0.72	891	1	3	9	mem	con	low	low	low	nt	ms	nh/0709_nh.bmp
648.72	0.72	892	1	3	10	mem	con	low	low	low	nt	ht	nh/0057_nh.bmp
649.44	0.72	893	6	3	54	mem	lib	mod	mod	low	tg	ht	wh/0529.bmp
650.16	0.72	894	6	1	37	per	con	mod	mod	mod	tg	ms	wh/0942.bmp
650.88	0.72	895	6	1	4	mem	con	mod	mod	mod	tg	ht	wh/0879.bmp
651.60	0.72	896	6	4	120	mem	lib	mod	mod	mod	nt	ht	nh/0984_nh.bmp
