onset	duration	trial	pres	ts_blk	ts_trl	task	crit	disc	mem_disc	per_disc	per_type	accuracy	stim_file
7.20	0.72	1	1	8	90	mem	con	mod	mod	mod	nt	ms	nh/0056_nh.bmp
7.92	0.72	2	1	6	46	mem	lib	mod	mod	low	tg	ht	wh/0108.bmp
8.64	0.72	3	1	7	60	per	con	mod	mod	mod	nt	cr	nh/0715_nh.bmp
9.36	0.72	4	1	5	68	mem	con	mod	mod	mod	tg	ht	wh/0552.bmp
10.08	0.72	5	1	6	101	per	lib	low	low	low	tg	ht	wh/0258.bmp
10.80	0.72	6	1	5	8	per	con	low	mod	low	tg	ms	wh/0297.bmp
11.52	0.72	7	1	5	33	per	lib	low	mod	low	nt	cr	nh/0176_nh.bmp
12.24	0.72	8	1	5	112	mem	lib	mod	mod	mod	nt	ht	nh/0915_nh.bmp
12.96	0.72	9	1	7	93	per	lib	low	mod	low	tg	ms	wh/0073.bmp
13.68	0.72	10	1	7	117	per	con	low	low	low	nt	cr	nh/0880_nh.bmp
14.40	0.72	11	1	5	13	per	con	low	mod	low	tg	ms	wh/0883.bmp
15.12	0.72	12	1	8	85	mem	con	mod	mod	mod	tg	ht	wh/0822.bmp
15.84	0.72	13	1	8	25	mem	lib	low	low	mod	nt	ms	nh/0308_nh.bmp
16.56	0.72	14	1	5	5	per	con	low	mod	low	nt	cr	nh/0863_nh.bmp
17.28	0.72	15	1	6	44	mem	lib	mod	mod	low	nt	ht	nh/0247_nh.bmp
18.00	0.72	16	1	7	4	mem	con	mod	mod	low	tg	ht	wh/0254.bmp
18.72	0.72	17	1	8	127	per	lib	low	low	low	tg	ht	wh/0480.bmp
19.44	0.72	18	1	8	95	mem	con	mod	mod	mod	nt	ht	nh/0366_nh.bmp
20.16	0.72	19	1	7	28	mem	lib	mod	mod	mod	tg	ht	wh/0239.bmp
20.88	0.72	20	1	6	56	mem	con	mod	mod	low	nt	ht	nh/0939_nh.bmp
21.60	0.72	21	2	7	60	per	con	mod	mod	mod	nt	cr	nh/0715_nh.bmp
22.32	0.72	22	1	7	32	mem	lib	mod	mod	mod	nt	ms	nh/0020_nh.bmp
23.04	0.72	23	2	5	68	mem	con	mod	mod	mod	tg	ht	wh/0552.bmp
23.76	0.72	24	1	7	61	per	con	mod	mod	mod	tg	ms	wh/0269.bmp
24.48	0.72	25	1	7	97	mem	lib	low	low	low	tg	ht	wh/0181.bmp
25.20	0.72	26	1	8	99	per	con	low	mod	low	nt	cr	nh/0193_nh.bmp
25.92	0.72	27	2	8	85	mem	con	mod	mod	mod	tg	ht	wh/0822.bmp
26.64	0.72	28	1	6	35	mem	lib	mod	mod	low	tg	ms	wh/0143.bmp
27.36	0.72	29	1	5	66	mem	con	mod	mod	mod	nt	ms	nh/0586_nh.bmp
28.08	0.72	30	1	6	49	mem	con	mod	mod	low	tg	ms	wh/0388.bmp
28.80	0.72	31	1	5	15	per	con	low	mod	low	tg	ms	wh/0157.bmp
29.52	0.72	32	1	5	94	per	lib	mod	mod	mod	tg	ht	wh/0778.bmp
30.24	0.72	33	1	7	27	mem	lib	mod	mod	mod	tg	ht	wh/0603.bmp
30.96	0.72	34	1	7	14	mem	con	mod	mod	low	tg	ht	wh/0012.bmp
31.68	0.72	35	1	5	97	mem	lib	mod	mod	mod	nt	ht	nh/0827_nh.bmp
32.40	0.72	36	1	6	42	mem	lib	mod	mod	low	nt	ms	nh/0734_nh.bmp
33.12	0.72	37	1	8	84	mem	con	mod	mod	mod	tg	ms	wh/0436.bmp
33.84	0.72	38	2	7	27	mem	lib	mod	mod	mod	tg	ht	wh/0603.bmp
34.56	0.72	39	1	6	62	mem	con	mod	mod	low	nt	ht	nh/0255_nh.bmp
35.28	0.72	40	1	7	82	per	lib	low	mod	low	nt	cr	nh/0875_nh.bmp
36.00	0.72	41	2	7	82	per	lib	low	mod	low	nt	cr	nh/0875_nh.bmp
36.72	0.72	42	1	6	48	mem	lib	mod	mod	low	nt	ht	nh/0647_nh.bmp
37.44	0.72	43	1	5	42	per	lib	low	mod	low	tg	ht	wh/0394.bmp
38.16	0.72	44	3	5	68	mem	con	mod	mod	mod	tg	ht	wh/0552.bmp
38.88	0.72	45	1	8	59	mem	lib	mod	mod	low	tg	ht	wh/0170.bmp
39.60	0.72	46	2	5	33	per	lib	low	mod	low	nt	cr	nh/0176_nh.bmp
40.32	0.72	47	1	7	15	mem	con	mod	mod	low	tg	ms	wh/0139.bmp
41.04	0.72	48	1	6	63	mem	con	mod	mod	low	nt	ht	nh/0848_nh.bmp
41.76	0.72	49	1	7	80	mem	con	low	low	mod	nt	ht	nh/0234_nh.bmp
42.48	0.72	50	1	7	31	mem	lib	mod	mod	mod	tg	ht	wh/0556.bmp
43.20	0.72	51	2	5	112	mem	lib	mod	mod	mod	nt	ht	nh/0915_nh.bmp
43.92	0.72	52	2	7	31	mem	lib	mod	mod	mod	tg	ht	wh/0556.bmp
44.64	0.72	53	1	5	14	per	con	low	mod	low	nt	cr	nh/0612_nh.bmp
45.36	0.72	54	1	5	105	mem	lib	mod	mod	mod	tg	ht	wh/0821.bmp
46.08	0.72	55	1	5	74	mem	con	mod	mod	mod	nt	ht	nh/0300_nh.bmp
46.80	0.72	56	2	5	94	per	lib	mod	mod	mod	tg	ht	wh/0778.bmp
47.52	0.72	57	1	8	105	per	con	low	mod	low	nt	cr	nh/0165_nh.bmp
48.24	0.72	58	1	5	17	mem	lib	low	low	mod	nt	ms	nh/0688_nh.bmp
48.96	0.72	59	1	6	80	per	con	mod	mod	mod	nt	cr	nh/0060_nh.bmp
49.68	0.72	60	1	7	9	mem	con	mod	mod	low	nt	ht	nh/0064_nh.bmp
50.40	0.72	61	1	7	92	per	lib	low	mod	low	tg	ms	wh/0582.bmp
51.12	0.72	62	1	5	70	mem	con	mod	mod	mod	tg	ht	wh/0763.bmp
51.84	0.72	63	1	5	104	mem	lib	mod	mod	mod	nt	ht	nh/0968_nh.bmp
52.56	0.72	64	1	8	69	per	lib	mod	mod	mod	tg	ht	wh/0797.bmp
53.28	0.72	65	1	7	55	per	con	mod	mod	mod	nt	cr	nh/0495_nh.bmp
54.00	0.72	66	1	8	103	per	con	low	mod	low	nt	fa	nh/0374_nh.bmp
54.72	0.72	67	2	5	15	per	con	low	mod	low	tg	ms	wh/0157.bmp
55.44	0.72	68	1	6	21	per	lib	mod	low	mod	nt	fa	nh/0982_nh.bmp
56.16	0.72	69	1	5	40	per	lib	low	mod	low	tg	ms	wh/0401.bmp
56.88	0.72	70	1	5	108	mem	lib	mod	mod	mod	tg	ht	wh/0666.bmp
57.60	0.72	71	1	5	96	per	lib	mod	mod	mod	tg	ht	wh/0385.bmp
58.32	0.72	72	1	5	67	mem	con	mod	mod	mod	tg	ht	wh/0544.bmp
59.04	0.72	73	1	8	75	per	lib	mod	mod	mod	tg	ht	wh/0599.bmp
59.76	0.72	74	1	7	64	per	con	mod	mod	mod	tg	ht	wh/0871.bmp
60.48	0.72	75	1	6	40	mem	lib	mod	mod	low	tg	ht	wh/0249.bmp
61.20	0.72	76	1	8	93	mem	con	mod	mod	mod	tg	ht	wh/0971.bmp
61.92	0.72	77	2	5	14	per	con	low	mod	low	nt	cr	nh/0612_nh.bmp
62.64	0.72	78	2	7	64	per	con	mod	mod	mod	tg	ht	wh/0871.bmp
63.36	0.72	79	2	7	4	mem	con	mod	mod	low	tg	ht	wh/0254.bmp
64.08	0.72	80	1	6	77	per	con	mod	mod	mod	nt	cr	nh/0888_nh.bmp
64.80	0.72	81	1	5	127	mem	con	low	low	low	nt	ms	nh/0587_nh.bmp
65.52	0.72	82	1	7	63	per	con	mod	mod	mod	tg	ht	wh/0602.bmp
66.24	0.72	83	3	8	85	mem	con	mod	mod	mod	tg	ht	wh/0822.bmp
66.96	0.72	84	1	8	119	per	lib	low	low	low	nt	cr	nh/0260_nh.bmp
67.68	0.72	85	3	7	4	mem	con	mod	mod	low	tg	ht	wh/0254.bmp
68.40	0.72	86	1	8	58	mem	lib	mod	mod	low	tg	ht	wh/0986.bmp
69.12	0.72	87	3	5	33	per	lib	low	mod	low	nt	cr	nh/0176_nh.bmp
69.84	0.72	88	1	6	27	per	lib	mod	low	mod	tg	ht	wh/0372.bmp
70.56	0.72	89	1	5	106	mem	lib	mod	mod	mod	nt	ht	nh/0590_nh.bmp
71.28	0.72	90	1	7	18	mem	lib	mod	mod	mod	nt	ht	nh/0952_nh.bmp
72.00	0.72	91	1	7	81	per	lib	low	mod	low	nt	cr	nh/0574_nh.bmp
72.72	0.72	92	1	5	1	per	con	low	mod	low	nt	cr	nh/0024_nh.bmp
73.44	0.72	93	1	6	57	mem	con	mod	mod	low	tg	ht	wh/0450.bmp
74.16	0.72	94	1	5	117	mem	con	low	low	low	nt	ms	nh/0089_nh.bmp
74.88	0.72	95	1	5	48	per	lib	low	mod	low	tg	ht	wh/0453.bmp
75.60	0.72	96	1	5	35	per	lib	low	mod	low	nt	fa	nh/0814_nh.bmp
76.32	0.72	97	1	5	2	per	con	low	mod	low	tg	ms	wh/0253.bmp
77.04	0.72	98	1	8	66	per	lib	mod	mod	mod	nt	fa	nh/0560_nh.bmp
77.76	0.72	99	1	7	94	per	lib	low	mod	low	nt	fa	nh/0241_nh.bmp
78.48	0.72	100	1	7	125	per	con	low	low	low	tg	ms	wh/0063.bmp
79.20	0.72	101	1	5	4	per	con	low	mod	low	nt	cr	nh/0519_nh.bmp
79.92	0.72	102	2	8	59	mem	lib	mod	mod	low	tg	ht	wh/0170.bmp
80.64	0.72	103	1	6	71	per	con	mod	mod	mod	nt	cr	nh/0441_nh.bmp
81.36	0.72	104	1	8	120	per	lib	low	low	low	tg	ht	wh/0376.bmp
82.08	0.72	105	1	8	72	per	lib	mod	mod	mod	nt	n/a	nh/0623_nh.bmp
82.80	0.72	106	1	6	55	mem	con	mod	mod	low	nt	ms	nh/0042_nh.bmp
83.52	0.72	107	1	8	62	mem	lib	mod	mod	low	tg	ht	wh/0892.bmp
84.24	0.72	108	1	5	47	per	lib	low	mod	low	nt	fa	nh/0114_nh.bmp
84.96	0.72	109	1	5	86	per	lib	mod	mod	mod	tg	ht	wh/0735.bmp
85.68	0.72	110	2	6	77	per	con	mod	mod	mod	nt	cr	nh/0888_nh.bmp
86.40	0.72	111	1	8	54	mem	lib	mod	mod	low	tg	ht	wh/1019.bmp
87.12	0.72	112	2	6	71	per	con	mod	mod	mod	nt	cr	nh/0441_nh.bmp
87.84	0.72	113	2	5	35	per	lib	low	mod	low	nt	fa	nh/0814_nh.bmp
88.56	0.72	114	2	7	93	per	lib	low	mod	low	tg	ms	wh/0073.bmp
89.28	0.72	115	1	8	78	per	lib	mod	mod	mod	tg	ht	wh/0408.bmp
90.00	0.72	116	2	5	1	per	con	low	mod	low	nt	cr	nh/0024_nh.bmp
90.72	0.72	117	1	7	84	per	lib	low	mod	low	tg	ht	wh/0820.bmp
91.44	0.72	118	1	6	75	per	con	mod	mod	mod	tg	ms	wh/0958.bmp
92.16	0.72	119	1	5	46	per	lib	low	mod	low	nt	fa	nh/0248_nh.bmp
92.88	0.72	120	1	5	93	per	lib	mod	mod	mod	tg	ms	wh/0399.bmp
93.60	0.72	121	1	6	73	per	con	mod	mod	mod	tg	ht	wh/0546.bmp
94.32	0.72	122	3	6	71	per	con	mod	mod	mod	nt	cr	nh/0441_nh.bmp
95.04	0.72	123	2	8	62	mem	lib	mod	mod	low	tg	ht	wh/0892.bmp
95.76	0.72	124	2	7	18	mem	lib	mod	mod	mod	nt	ht	nh/0952_nh.bmp
96.48	0.72	125	1	6	3	per	con	low	low	low	nt	cr	nh/0034_nh.bmp
97.20	0.72	126	3	7	82	per	lib	low	mod	low	nt	cr	nh/0875_nh.bmp
97.92	0.72	127	3	7	93	per	lib	low	mod	low	tg	ms	wh/0073.bmp
98.64	0.72	128	1	8	112	per	con	low	mod	low	tg	ms	wh/0118.bmp
99.36	0.72	129	2	5	40	per	lib	low	mod	low	tg	ms	wh/0401.bmp
100.08	0.72	130	1	7	34	per	lib	mod	low	mod	nt	cr	nh/0907_nh.bmp
100.80	0.72	131	2	8	72	per	lib	mod	mod	mod	nt	n/a	nh/0623_nh.bmp
101.52	0.72	132	2	7	63	per	con	mod	mod	mod	tg	ht	wh/0602.bmp
102.24	0.72	133	1	7	11	mem	con	mod	mod	low	nt	ht	nh/1014_nh.bmp
102.96	0.72	134	1	8	46	mem	con	low	low	low	nt	ms	nh/0175_nh.bmp
103.68	0.72	135	1	7	56	per	con	mod	mod	mod	tg	ms	wh/0609.bmp
104.40	0.72	136	3	6	77	per	con	mod	mod	mod	nt	cr	nh/0888_nh.bmp
105.12	0.72	137	1	5	36	per	lib	low	mod	low	tg	ht	wh/0756.bmp
105.84	0.72	138	1	5	120	mem	con	low	low	low	nt	ms	nh/0506_nh.bmp
106.56	0.72	139	3	7	63	per	con	mod	mod	mod	tg	ht	wh/0602.bmp
107.28	0.72	140	1	6	99	per	lib	low	low	low	nt	cr	nh/0285_nh.bmp
108.00	0.72	141	2	7	61	per	con	mod	mod	mod	tg	ms	wh/0269.bmp
108.72	0.72	142	3	5	94	per	lib	mod	mod	mod	tg	ht	wh/0778.bmp
109.44	0.72	143	1	8	121	per	lib	low	low	low	nt	fa	nh/0268_nh.bmp
110.16	0.72	144	1	6	54	mem	con	mod	mod	low	tg	ms	wh/0172.bmp
110.88	0.72	145	1	8	51	mem	lib	mod	mod	low	nt	ht	nh/0618_nh.bmp
111.60	0.72	146	2	8	54	mem	lib	mod	mod	low	tg	ht	wh/1019.bmp
112.32	0.72	147	2	5	105	mem	lib	mod	mod	mod	tg	ht	wh/0821.bmp
113.04	0.72	148	2	5	67	mem	con	mod	mod	mod	tg	ht	wh/0544.bmp
113.76	0.72	149	2	7	92	per	lib	low	mod	low	tg	ms	wh/0582.bmp
114.48	0.72	150	1	7	95	per	lib	low	mod	low	tg	ht	wh/0491.bmp
115.20	0.72	151	2	6	46	mem	lib	mod	mod	low	tg	ht	wh/0108.bmp
115.92	0.72	152	1	7	38	per	lib	mod	low	mod	tg	ht	wh/0207.bmp
116.64	0.72	153	1	6	64	mem	con	mod	mod	low	tg	ms	wh/0521.bmp
117.36	0.72	154	1	5	109	mem	lib	mod	mod	mod	tg	ht	wh/0275.bmp
118.08	0.72	155	2	5	36	per	lib	low	mod	low	tg	ht	wh/0756.bmp
118.80	0.72	156	2	6	35	mem	lib	mod	mod	low	tg	ms	wh/0143.bmp
119.52	0.72	157	4	8	85	mem	con	mod	mod	mod	tg	ht	wh/0822.bmp
120.24	0.72	158	3	7	61	per	con	mod	mod	mod	tg	ms	wh/0269.bmp
120.96	0.72	159	2	8	105	per	con	low	mod	low	nt	cr	nh/0165_nh.bmp
121.68	0.72	160	2	6	73	per	con	mod	mod	mod	tg	ht	wh/0546.bmp
122.40	0.72	161	2	8	93	mem	con	mod	mod	mod	tg	ht	wh/0971.bmp
123.12	0.72	162	1	5	115	mem	con	low	low	low	tg	ms	wh/1011.bmp
123.84	0.72	163	1	7	111	mem	lib	low	low	low	nt	ht	nh/0005_nh.bmp
124.56	0.72	164	1	7	88	per	lib	low	mod	low	nt	fa	nh/1004_nh.bmp
125.28	0.72	165	4	5	33	per	lib	low	mod	low	nt	cr	nh/0176_nh.bmp
126.00	0.72	166	2	5	8	per	con	low	mod	low	tg	ms	wh/0297.bmp
126.72	0.72	167	1	5	83	per	lib	mod	mod	mod	nt	cr	nh/0318_nh.bmp
127.44	0.72	168	3	5	1	per	con	low	mod	low	nt	cr	nh/0024_nh.bmp
128.16	0.72	169	2	5	104	mem	lib	mod	mod	mod	nt	ht	nh/0968_nh.bmp
128.88	0.72	170	2	8	58	mem	lib	mod	mod	low	tg	ht	wh/0986.bmp
129.60	0.72	171	2	8	84	mem	con	mod	mod	mod	tg	ms	wh/0436.bmp
130.32	0.72	172	1	7	17	mem	lib	mod	mod	mod	nt	ht	nh/0717_nh.bmp
131.04	0.72	173	2	5	47	per	lib	low	mod	low	nt	fa	nh/0114_nh.bmp
131.76	0.72	174	1	8	83	mem	con	mod	mod	mod	nt	ms	nh/0179_nh.bmp
132.48	0.72	175	1	8	64	mem	lib	mod	mod	low	nt	ht	nh/0678_nh.bmp
133.20	0.72	176	1	6	114	mem	lib	low	low	low	tg	ms	wh/0990.bmp
133.92	0.72	177	1	8	67	per	lib	mod	mod	mod	nt	cr	nh/0995_nh.bmp
134.64	0.72	178	1	7	1	mem	con	mod	mod	low	nt	ms	nh/0111_nh.bmp
135.36	0.72	179	3	8	93	mem	con	mod	mod	mod	tg	ht	wh/0971.bmp
136.08	0.72	180	1	8	32	mem	lib	low	low	mod	tg	ht	wh/0093.bmp
136.80	0.72	181	2	8	103	per	con	low	mod	low	nt	fa	nh/0374_nh.bmp
137.52	0.72	182	2	7	95	per	lib	low	mod	low	tg	ht	wh/0491.bmp
138.24	0.72	183	1	6	86	mem	con	low	low	mod	tg	ms	wh/0839.bmp
138.96	0.72	184	1	7	13	mem	con	mod	mod	low	tg	ht	wh/0780.bmp
139.68	0.72	185	2	7	32	mem	lib	mod	mod	mod	nt	ms	nh/0020_nh.bmp
140.40	0.72	186	1	8	108	per	con	low	mod	low	nt	cr	nh/0578_nh.bmp
141.12	0.72	187	1	7	126	per	con	low	low	low	tg	ms	wh/0045.bmp
141.84	0.72	188	2	7	1	mem	con	mod	mod	low	nt	ms	nh/0111_nh.bmp
142.56	0.72	189	5	5	33	per	lib	low	mod	low	nt	cr	nh/0176_nh.bmp
143.28	0.72	190	3	8	59	mem	lib	mod	mod	low	tg	ht	wh/0170.bmp
144.00	0.72	191	3	7	1	mem	con	mod	mod	low	nt	ms	nh/0111_nh.bmp
144.72	0.72	192	1	8	57	mem	lib	mod	mod	low	nt	ht	nh/0018_nh.bmp
145.44	0.72	193	2	7	88	per	lib	low	mod	low	nt	fa	nh/1004_nh.bmp
146.16	0.72	194	1	6	109	per	lib	low	low	low	tg	ht	wh/0482.bmp
146.88	0.72	195	3	7	64	per	con	mod	mod	mod	tg	ht	wh/0871.bmp
147.60	0.72	196	1	6	15	per	con	low	low	low	tg	ms	wh/0728.bmp
148.32	0.72	197	1	6	30	per	lib	mod	low	mod	nt	fa	nh/1002_nh.bmp
149.04	0.72	198	3	5	35	per	lib	low	mod	low	nt	fa	nh/0814_nh.bmp
149.76	0.72	199	1	6	72	per	con	mod	mod	mod	nt	cr	nh/0294_nh.bmp
150.48	0.72	200	1	8	76	per	lib	mod	mod	mod	tg	ht	wh/0833.bmp
151.20	0.72	201	1	7	20	mem	lib	mod	mod	mod	tg	ht	wh/0694.bmp
151.92	0.72	202	1	7	36	per	lib	mod	low	mod	tg	ht	wh/0948.bmp
152.64	0.72	203	2	5	42	per	lib	low	mod	low	tg	ht	wh/0394.bmp
153.36	0.72	204	2	5	86	per	lib	mod	mod	mod	tg	ht	wh/0735.bmp
154.08	0.72	205	1	6	126	mem	lib	low	low	low	nt	ht	nh/0198_nh.bmp
154.80	0.72	206	2	5	83	per	lib	mod	mod	mod	nt	cr	nh/0318_nh.bmp
155.52	0.72	207	1	8	97	per	con	low	mod	low	tg	ms	wh/0403.bmp
156.24	0.72	208	2	8	95	mem	con	mod	mod	mod	nt	ht	nh/0366_nh.bmp
156.96	0.72	209	2	8	99	per	con	low	mod	low	nt	cr	nh/0193_nh.bmp
157.68	0.72	210	1	6	14	per	con	low	low	low	tg	ms	wh/0518.bmp
158.40	0.72	211	4	7	1	mem	con	mod	mod	low	nt	ms	nh/0111_nh.bmp
159.12	0.72	212	1	6	34	mem	lib	mod	mod	low	nt	ht	nh/0164_nh.bmp
159.84	0.72	213	1	6	103	per	lib	low	low	low	tg	ms	wh/1015.bmp
160.56	0.72	214	2	8	69	per	lib	mod	mod	mod	tg	ht	wh/0797.bmp
161.28	0.72	215	2	5	2	per	con	low	mod	low	tg	ms	wh/0253.bmp
162.00	0.72	216	2	5	13	per	con	low	mod	low	tg	ms	wh/0883.bmp
162.72	0.72	217	2	8	97	per	con	low	mod	low	tg	ms	wh/0403.bmp
163.44	0.72	218	2	8	78	per	lib	mod	mod	mod	tg	ht	wh/0408.bmp
164.16	0.72	219	2	7	56	per	con	mod	mod	mod	tg	ms	wh/0609.bmp
164.88	0.72	220	2	8	57	mem	lib	mod	mod	low	nt	ht	nh/0018_nh.bmp
165.60	0.72	221	2	7	14	mem	con	mod	mod	low	tg	ht	wh/0012.bmp
166.32	0.72	222	2	5	70	mem	con	mod	mod	mod	tg	ht	wh/0763.bmp
167.04	0.72	223	1	7	26	mem	lib	mod	mod	mod	nt	ht	nh/0378_nh.bmp
167.76	0.72	224	2	5	109	mem	lib	mod	mod	mod	tg	ht	wh/0275.bmp
168.48	0.72	225	2	7	15	mem	con	mod	mod	low	tg	ms	wh/0139.bmp
169.20	0.72	226	2	7	13	mem	con	mod	mod	low	tg	ht	wh/0780.bmp
169.92	0.72	227	4	7	61	per	con	mod	mod	mod	tg	ms	wh/0269.bmp
170.64	0.72	228	2	8	76	per	lib	mod	mod	mod	tg	ht	wh/0833.bmp
171.36	0.72	229	1	6	67	per	con	mod	mod	mod	tg	ms	wh/0420.bmp
172.08	0.72	230	2	7	26	mem	lib	mod	mod	mod	nt	ht	nh/0378_nh.bmp
172.80	0.72	231	1	7	58	per	con	mod	mod	mod	nt	cr	nh/0851_nh.bmp
173.52	0.72	232	1	8	106	per	con	low	mod	low	tg	ms	wh/0746.bmp
174.24	0.72	233	2	6	55	mem	con	mod	mod	low	nt	ms	nh/0042_nh.bmp
174.96	0.72	234	3	7	15	mem	con	mod	mod	low	tg	ms	wh/0139.bmp
175.68	0.72	235	2	7	58	per	con	mod	mod	mod	nt	cr	nh/0851_nh.bmp
176.40	0.72	236	3	5	14	per	con	low	mod	low	nt	cr	nh/0612_nh.bmp
177.12	0.72	237	3	7	88	per	lib	low	mod	low	nt	fa	nh/1004_nh.bmp
177.84	0.72	238	1	7	3	mem	con	mod	mod	low	nt	ht	nh/0640_nh.bmp
178.56	0.72	239	1	8	87	mem	con	mod	mod	mod	tg	ht	wh/0549.bmp
179.28	0.72	240	1	8	100	per	con	low	mod	low	tg	ht	wh/0793.bmp
180.00	0.72	241	3	8	103	per	con	low	mod	low	nt	fa	nh/0374_nh.bmp
180.72	0.72	242	2	5	93	per	lib	mod	mod	mod	tg	ms	wh/0399.bmp
181.44	0.72	243	3	8	62	mem	lib	mod	mod	low	tg	ht	wh/0892.bmp
182.16	0.72	244	4	8	59	mem	lib	mod	mod	low	tg	ht	wh/0170.bmp
182.88	0.72	245	1	5	60	per	con	mod	low	mod	nt	cr	nh/0924_nh.bmp
183.60	0.72	246	3	8	76	per	lib	mod	mod	mod	tg	ht	wh/0833.bmp
184.32	0.72	247	3	8	105	per	con	low	mod	low	nt	cr	nh/0165_nh.bmp
185.04	0.72	248	2	5	48	per	lib	low	mod	low	tg	ht	wh/0453.bmp
185.76	0.72	249	4	7	4	mem	con	mod	mod	low	tg	ht	wh/0254.bmp
186.48	0.72	250	3	7	26	mem	lib	mod	mod	mod	nt	ht	nh/0378_nh.bmp
187.20	0.72	251	2	7	55	per	con	mod	mod	mod	nt	cr	nh/0495_nh.bmp
187.92	0.72	252	2	6	64	mem	con	mod	mod	low	tg	ms	wh/0521.bmp
188.64	0.72	253	2	7	9	mem	con	mod	mod	low	nt	ht	nh/0064_nh.bmp
189.36	0.72	254	2	7	28	mem	lib	mod	mod	mod	tg	ht	wh/0239.bmp
190.08	0.72	255	3	8	78	per	lib	mod	mod	mod	tg	ht	wh/0408.bmp
190.80	0.72	256	1	5	95	per	lib	mod	mod	mod	nt	cr	nh/0835_nh.bmp
191.52	0.72	257	1	8	60	mem	lib	mod	mod	low	nt	ht	nh/0023_nh.bmp
192.24	0.72	258	2	6	40	mem	lib	mod	mod	low	tg	ht	wh/0249.bmp
192.96	0.72	259	2	6	62	mem	con	mod	mod	low	nt	ht	nh/0255_nh.bmp
193.68	0.72	260	2	8	64	mem	lib	mod	mod	low	nt	ht	nh/0678_nh.bmp
194.40	0.72	261	2	7	81	per	lib	low	mod	low	nt	cr	nh/0574_nh.bmp
195.12	0.72	262	2	8	75	per	lib	mod	mod	mod	tg	ht	wh/0599.bmp
195.84	0.72	263	2	8	87	mem	con	mod	mod	mod	tg	ht	wh/0549.bmp
196.56	0.72	264	2	7	3	mem	con	mod	mod	low	nt	ht	nh/0640_nh.bmp
197.28	0.72	265	3	7	92	per	lib	low	mod	low	tg	ms	wh/0582.bmp
198.00	0.72	266	2	8	112	per	con	low	mod	low	tg	ms	wh/0118.bmp
198.72	0.72	267	3	6	55	mem	con	mod	mod	low	nt	ms	nh/0042_nh.bmp
199.44	0.72	268	2	8	66	per	lib	mod	mod	mod	nt	fa	nh/0560_nh.bmp
200.16	0.72	269	3	7	28	mem	lib	mod	mod	mod	tg	ht	wh/0239.bmp
200.88	0.72	270	3	5	40	per	lib	low	mod	low	tg	ms	wh/0401.bmp
201.60	0.72	271	2	6	56	mem	con	mod	mod	low	nt	ht	nh/0939_nh.bmp
202.32	0.72	272	4	7	88	per	lib	low	mod	low	nt	fa	nh/1004_nh.bmp
203.04	0.72	273	3	6	62	mem	con	mod	mod	low	nt	ht	nh/0255_nh.bmp
203.76	0.72	274	1	8	45	mem	con	low	low	low	tg	ht	wh/0360.bmp
204.48	0.72	275	2	5	66	mem	con	mod	mod	mod	nt	ms	nh/0586_nh.bmp
205.20	0.72	276	3	6	73	per	con	mod	mod	mod	tg	ht	wh/0546.bmp
205.92	0.72	277	1	7	101	mem	lib	low	low	low	nt	ht	nh/0639_nh.bmp
206.64	0.72	278	3	5	66	mem	con	mod	mod	mod	nt	ms	nh/0586_nh.bmp
207.36	0.72	279	2	5	108	mem	lib	mod	mod	mod	tg	ht	wh/0666.bmp
208.08	0.72	280	1	6	119	mem	lib	low	low	low	tg	ht	wh/0516.bmp
208.80	0.72	281	4	7	63	per	con	mod	mod	mod	tg	ht	wh/0602.bmp
209.52	0.72	282	2	7	94	per	lib	low	mod	low	nt	fa	nh/0241_nh.bmp
210.24	0.72	283	1	5	122	mem	con	low	low	low	tg	ms	wh/0226.bmp
210.96	0.72	284	3	8	97	per	con	low	mod	low	tg	ms	wh/0403.bmp
211.68	0.72	285	2	6	44	mem	lib	mod	mod	low	nt	ht	nh/0247_nh.bmp
212.40	0.72	286	4	7	64	per	con	mod	mod	mod	tg	ht	wh/0871.bmp
213.12	0.72	287	3	7	58	per	con	mod	mod	mod	nt	cr	nh/0851_nh.bmp
213.84	0.72	288	4	5	68	mem	con	mod	mod	mod	tg	ht	wh/0552.bmp
214.56	0.72	289	3	5	108	mem	lib	mod	mod	mod	tg	ht	wh/0666.bmp
215.28	0.72	290	3	5	70	mem	con	mod	mod	mod	tg	ht	wh/0763.bmp
216.00	0.72	291	3	8	75	per	lib	mod	mod	mod	tg	ht	wh/0599.bmp
216.72	0.72	292	4	7	26	mem	lib	mod	mod	mod	nt	ht	nh/0378_nh.bmp
217.44	0.72	293	1	5	54	per	con	mod	low	mod	nt	fa	nh/0732_nh.bmp
218.16	0.72	294	1	5	75	mem	con	mod	mod	mod	tg	ms	wh/0978.bmp
218.88	0.72	295	4	7	58	per	con	mod	mod	mod	nt	cr	nh/0851_nh.bmp
219.60	0.72	296	2	7	17	mem	lib	mod	mod	mod	nt	ht	nh/0717_nh.bmp
220.32	0.72	297	5	7	26	mem	lib	mod	mod	mod	nt	ht	nh/0378_nh.bmp
221.04	0.72	298	3	7	14	mem	con	mod	mod	low	tg	ht	wh/0012.bmp
221.76	0.72	299	2	5	74	mem	con	mod	mod	mod	nt	ht	nh/0300_nh.bmp
222.48	0.72	300	3	7	60	per	con	mod	mod	mod	nt	cr	nh/0715_nh.bmp
223.20	0.72	301	1	5	69	mem	con	mod	mod	mod	nt	ht	nh/0852_nh.bmp
223.92	0.72	302	3	7	55	per	con	mod	mod	mod	nt	cr	nh/0495_nh.bmp
224.64	0.72	303	1	7	106	mem	lib	low	low	low	nt	ht	nh/0219_nh.bmp
225.36	0.72	304	2	8	106	per	con	low	mod	low	tg	ms	wh/0746.bmp
226.08	0.72	305	2	5	97	mem	lib	mod	mod	mod	nt	ht	nh/0827_nh.bmp
226.80	0.72	306	2	6	48	mem	lib	mod	mod	low	nt	ht	nh/0647_nh.bmp
227.52	0.72	307	3	7	17	mem	lib	mod	mod	mod	nt	ht	nh/0717_nh.bmp
228.24	0.72	308	3	7	18	mem	lib	mod	mod	mod	nt	ht	nh/0952_nh.bmp
228.96	0.72	309	3	5	42	per	lib	low	mod	low	tg	ht	wh/0394.bmp
229.68	0.72	310	1	5	57	per	con	mod	low	mod	tg	ht	wh/0091.bmp
230.40	0.72	311	1	5	52	per	con	mod	low	mod	tg	ht	wh/0084.bmp
231.12	0.72	312	3	8	69	per	lib	mod	mod	mod	tg	ht	wh/0797.bmp
231.84	0.72	313	2	5	69	mem	con	mod	mod	mod	nt	ht	nh/0852_nh.bmp
232.56	0.72	314	5	7	58	per	con	mod	mod	mod	nt	cr	nh/0851_nh.bmp
233.28	0.72	315	1	7	69	mem	con	low	low	mod	nt	ms	nh/0537_nh.bmp
234.00	0.72	316	4	6	62	mem	con	mod	mod	low	nt	ht	nh/0255_nh.bmp
234.72	0.72	317	3	8	72	per	lib	mod	mod	mod	nt	n/a	nh/0623_nh.bmp
235.44	0.72	318	3	8	84	mem	con	mod	mod	mod	tg	ms	wh/0436.bmp
236.16	0.72	319	3	8	106	per	con	low	mod	low	tg	ms	wh/0746.bmp
236.88	0.72	320	5	8	85	mem	con	mod	mod	mod	tg	ht	wh/0822.bmp
237.60	0.72	321	5	7	88	per	lib	low	mod	low	nt	fa	nh/1004_nh.bmp
238.32	0.72	322	1	5	26	mem	lib	low	low	mod	nt	ms	nh/0980_nh.bmp
239.04	0.72	323	1	7	105	mem	lib	low	low	low	tg	ht	wh/0224.bmp
239.76	0.72	324	1	5	84	per	lib	mod	mod	mod	nt	fa	nh/0564_nh.bmp
240.48	0.72	325	2	6	57	mem	con	mod	mod	low	tg	ht	wh/0450.bmp
241.20	0.72	326	3	5	67	mem	con	mod	mod	mod	tg	ht	wh/0544.bmp
241.92	0.72	327	1	7	35	per	lib	mod	low	mod	nt	cr	nh/0545_nh.bmp
242.64	0.72	328	2	6	42	mem	lib	mod	mod	low	nt	ms	nh/0734_nh.bmp
243.36	0.72	329	3	5	8	per	con	low	mod	low	tg	ms	wh/0297.bmp
244.08	0.72	330	3	5	97	mem	lib	mod	mod	mod	nt	ht	nh/0827_nh.bmp
244.80	0.72	331	2	5	5	per	con	low	mod	low	nt	cr	nh/0863_nh.bmp
245.52	0.72	332	2	6	54	mem	con	mod	mod	low	tg	ms	wh/0172.bmp
246.24	0.72	333	3	6	46	mem	lib	mod	mod	low	tg	ht	wh/0108.bmp
246.96	0.72	334	2	5	75	mem	con	mod	mod	mod	tg	ms	wh/0978.bmp
247.68	0.72	335	1	5	25	mem	lib	low	low	mod	nt	ht	nh/0945_nh.bmp
248.40	0.72	336	3	5	48	per	lib	low	mod	low	tg	ht	wh/0453.bmp
249.12	0.72	337	4	8	106	per	con	low	mod	low	tg	ms	wh/0746.bmp
249.84	0.72	338	2	6	72	per	con	mod	mod	mod	nt	cr	nh/0294_nh.bmp
250.56	0.72	339	3	8	58	mem	lib	mod	mod	low	tg	ht	wh/0986.bmp
251.28	0.72	340	4	8	69	per	lib	mod	mod	mod	tg	ht	wh/0797.bmp
252.00	0.72	341	3	6	54	mem	con	mod	mod	low	tg	ms	wh/0172.bmp
252.72	0.72	342	4	8	58	mem	lib	mod	mod	low	tg	ht	wh/0986.bmp
253.44	0.72	343	2	6	75	per	con	mod	mod	mod	tg	ms	wh/0958.bmp
254.16	0.72	344	4	7	60	per	con	mod	mod	mod	nt	cr	nh/0715_nh.bmp
254.88	0.72	345	2	7	20	mem	lib	mod	mod	mod	tg	ht	wh/0694.bmp
255.60	0.72	346	1	8	88	mem	con	mod	mod	mod	nt	ms	nh/0629_nh.bmp
256.32	0.72	347	4	6	73	per	con	mod	mod	mod	tg	ht	wh/0546.bmp
257.04	0.72	348	4	5	108	mem	lib	mod	mod	mod	tg	ht	wh/0666.bmp
257.76	0.72	349	1	7	40	per	lib	mod	low	mod	tg	ht	wh/0016.bmp
258.48	0.72	350	1	8	7	per	con	mod	low	mod	tg	ht	wh/0559.bmp
259.20	0.72	351	1	6	18	per	lib	mod	low	mod	tg	ht	wh/0305.bmp
259.92	0.72	352	1	6	66	per	con	mod	mod	mod	tg	ht	wh/0686.bmp
260.64	0.72	353	1	6	116	mem	lib	low	low	low	nt	ht	nh/0041_nh.bmp
261.36	0.72	354	1	8	43	mem	con	low	low	low	tg	ms	wh/0676.bmp
262.08	0.72	355	3	5	104	mem	lib	mod	mod	mod	nt	ht	nh/0968_nh.bmp
262.80	0.72	356	3	5	109	mem	lib	mod	mod	mod	tg	ht	wh/0275.bmp
263.52	0.72	357	5	7	60	per	con	mod	mod	mod	nt	cr	nh/0715_nh.bmp
264.24	0.72	358	3	5	93	per	lib	mod	mod	mod	tg	ms	wh/0399.bmp
264.96	0.72	359	2	6	66	per	con	mod	mod	mod	tg	ht	wh/0686.bmp
265.68	0.72	360	3	8	54	mem	lib	mod	mod	low	tg	ht	wh/1019.bmp
266.40	0.72	361	3	7	27	mem	lib	mod	mod	mod	tg	ht	wh/0603.bmp
267.12	0.72	362	5	7	1	mem	con	mod	mod	low	nt	ms	nh/0111_nh.bmp
267.84	0.72	363	3	6	40	mem	lib	mod	mod	low	tg	ht	wh/0249.bmp
268.56	0.72	364	4	7	92	per	lib	low	mod	low	tg	ms	wh/0582.bmp
269.28	0.72	365	3	6	35	mem	lib	mod	mod	low	tg	ms	wh/0143.bmp
270.00	0.72	366	1	6	45	mem	lib	mod	mod	low	tg	ht	wh/0262.bmp
270.72	0.72	367	4	8	76	per	lib	mod	mod	mod	tg	ht	wh/0833.bmp
271.44	0.72	368	4	5	70	mem	con	mod	mod	mod	tg	ht	wh/0763.bmp
272.16	0.72	369	3	5	86	per	lib	mod	mod	mod	tg	ht	wh/0735.bmp
272.88	0.72	370	1	8	28	mem	lib	low	low	mod	tg	ht	wh/0188.bmp
273.60	0.72	371	5	8	106	per	con	low	mod	low	tg	ms	wh/0746.bmp
274.32	0.72	372	1	8	80	per	lib	mod	mod	mod	nt	cr	nh/0337_nh.bmp
275.04	0.72	373	2	6	63	mem	con	mod	mod	low	nt	ht	nh/0848_nh.bmp
275.76	0.72	374	2	5	84	per	lib	mod	mod	mod	nt	fa	nh/0564_nh.bmp
276.48	0.72	375	3	5	105	mem	lib	mod	mod	mod	tg	ht	wh/0821.bmp
277.20	0.72	376	1	8	13	per	con	mod	low	mod	tg	ht	wh/0532.bmp
277.92	0.72	377	3	8	95	mem	con	mod	mod	mod	nt	ht	nh/0366_nh.bmp
278.64	0.72	378	4	8	103	per	con	low	mod	low	nt	fa	nh/0374_nh.bmp
279.36	0.72	379	4	8	84	mem	con	mod	mod	mod	tg	ms	wh/0436.bmp
280.08	0.72	380	4	7	82	per	lib	low	mod	low	nt	cr	nh/0875_nh.bmp
280.80	0.72	381	2	8	83	mem	con	mod	mod	mod	nt	ms	nh/0179_nh.bmp
281.52	0.72	382	4	7	55	per	con	mod	mod	mod	nt	cr	nh/0495_nh.bmp
282.24	0.72	383	3	8	83	mem	con	mod	mod	mod	nt	ms	nh/0179_nh.bmp
282.96	0.72	384	3	6	56	mem	con	mod	mod	low	nt	ht	nh/0939_nh.bmp
283.68	0.72	385	5	7	82	per	lib	low	mod	low	nt	cr	nh/0875_nh.bmp
284.40	0.72	386	1	6	89	mem	con	low	low	mod	tg	ms	wh/0349.bmp
285.12	0.72	387	1	8	24	mem	lib	low	low	mod	tg	ht	wh/0418.bmp
285.84	0.72	388	6	7	82	per	lib	low	mod	low	nt	cr	nh/0875_nh.bmp
286.56	0.72	389	2	5	95	per	lib	mod	mod	mod	nt	cr	nh/0835_nh.bmp
287.28	0.72	390	4	5	104	mem	lib	mod	mod	mod	nt	ht	nh/0968_nh.bmp
288.00	0.72	391	3	6	63	mem	con	mod	mod	low	nt	ht	nh/0848_nh.bmp
288.72	0.72	392	3	6	57	mem	con	mod	mod	low	tg	ht	wh/0450.bmp
289.44	0.72	393	5	5	108	mem	lib	mod	mod	mod	tg	ht	wh/0666.bmp
290.16	0.72	394	3	7	31	mem	lib	mod	mod	mod	tg	ht	wh/0556.bmp
290.88	0.72	395	1	5	107	mem	lib	mod	mod	mod	tg	ht	wh/0638.bmp
291.60	0.72	396	4	5	1	per	con	low	mod	low	nt	cr	nh/0024_nh.bmp
292.32	0.72	397	2	6	49	mem	con	mod	mod	low	tg	ms	wh/0388.bmp
293.04	0.72	398	4	6	77	per	con	mod	mod	mod	nt	cr	nh/0888_nh.bmp
293.76	0.72	399	2	8	88	mem	con	mod	mod	mod	nt	ms	nh/0629_nh.bmp
294.48	0.72	400	5	8	58	mem	lib	mod	mod	low	tg	ht	wh/0986.bmp
295.20	0.72	401	2	6	67	per	con	mod	mod	mod	tg	ms	wh/0420.bmp
295.92	0.72	402	2	8	60	mem	lib	mod	mod	low	nt	ht	nh/0023_nh.bmp
296.64	0.72	403	4	7	31	mem	lib	mod	mod	mod	tg	ht	wh/0556.bmp
297.36	0.72	404	2	5	96	per	lib	mod	mod	mod	tg	ht	wh/0385.bmp
298.08	0.72	405	4	6	54	mem	con	mod	mod	low	tg	ms	wh/0172.bmp
298.80	0.72	406	4	5	67	mem	con	mod	mod	mod	tg	ht	wh/0544.bmp
299.52	0.72	407	3	8	88	mem	con	mod	mod	mod	nt	ms	nh/0629_nh.bmp
300.24	0.72	408	5	7	63	per	con	mod	mod	mod	tg	ht	wh/0602.bmp
300.96	0.72	409	2	7	11	mem	con	mod	mod	low	nt	ht	nh/1014_nh.bmp
301.68	0.72	410	4	5	66	mem	con	mod	mod	mod	nt	ms	nh/0586_nh.bmp
302.40	0.72	411	1	5	92	per	lib	mod	mod	mod	nt	fa	nh/0086_nh.bmp
303.12	0.72	412	3	6	49	mem	con	mod	mod	low	tg	ms	wh/0388.bmp
303.84	0.72	413	1	5	71	mem	con	mod	mod	mod	nt	ht	nh/0832_nh.bmp
304.56	0.72	414	3	6	75	per	con	mod	mod	mod	tg	ms	wh/0958.bmp
305.28	0.72	415	4	7	27	mem	lib	mod	mod	mod	tg	ht	wh/0603.bmp
306.00	0.72	416	1	8	116	per	lib	low	low	low	tg	ht	wh/0767.bmp
306.72	0.72	417	2	5	71	mem	con	mod	mod	mod	nt	ht	nh/0832_nh.bmp
307.44	0.72	418	3	8	87	mem	con	mod	mod	mod	tg	ht	wh/0549.bmp
308.16	0.72	419	3	6	48	mem	lib	mod	mod	low	nt	ht	nh/0647_nh.bmp
308.88	0.72	420	4	7	18	mem	lib	mod	mod	mod	nt	ht	nh/0952_nh.bmp
309.60	0.72	421	3	6	42	mem	lib	mod	mod	low	nt	ms	nh/0734_nh.bmp
310.32	0.72	422	4	7	28	mem	lib	mod	mod	mod	tg	ht	wh/0239.bmp
311.04	0.72	423	4	6	63	mem	con	mod	mod	low	nt	ht	nh/0848_nh.bmp
311.76	0.72	424	4	6	35	mem	lib	mod	mod	low	tg	ms	wh/0143.bmp
312.48	0.72	425	3	7	13	mem	con	mod	mod	low	tg	ht	wh/0780.bmp
313.20	0.72	426	4	5	35	per	lib	low	mod	low	nt	fa	nh/0814_nh.bmp
313.92	0.72	427	1	7	100	mem	lib	low	low	low	tg	ht	wh/0240.bmp
314.64	0.72	428	3	8	60	mem	lib	mod	mod	low	nt	ht	nh/0023_nh.bmp
315.36	0.72	429	2	8	80	per	lib	mod	mod	mod	nt	cr	nh/0337_nh.bmp
316.08	0.72	430	3	5	13	per	con	low	mod	low	tg	ms	wh/0883.bmp
316.80	0.72	431	3	5	75	mem	con	mod	mod	mod	tg	ms	wh/0978.bmp
317.52	0.72	432	3	5	47	per	lib	low	mod	low	nt	fa	nh/0114_nh.bmp
318.24	0.72	433	4	8	72	per	lib	mod	mod	mod	nt	n/a	nh/0623_nh.bmp
318.96	0.72	434	1	7	62	per	con	mod	mod	mod	nt	cr	nh/0764_nh.bmp
319.68	0.72	435	4	7	17	mem	lib	mod	mod	mod	nt	ht	nh/0717_nh.bmp
320.40	0.72	436	4	8	75	per	lib	mod	mod	mod	tg	ht	wh/0599.bmp
321.12	0.72	437	3	5	84	per	lib	mod	mod	mod	nt	fa	nh/0564_nh.bmp
321.84	0.72	438	2	6	34	mem	lib	mod	mod	low	nt	ht	nh/0164_nh.bmp
322.56	0.72	439	4	8	95	mem	con	mod	mod	mod	nt	ht	nh/0366_nh.bmp
323.28	0.72	440	3	8	64	mem	lib	mod	mod	low	nt	ht	nh/0678_nh.bmp
324.00	0.72	441	5	5	66	mem	con	mod	mod	mod	nt	ms	nh/0586_nh.bmp
324.72	0.72	442	3	7	3	mem	con	mod	mod	low	nt	ht	nh/0640_nh.bmp
325.44	0.72	443	3	5	96	per	lib	mod	mod	mod	tg	ht	wh/0385.bmp
326.16	0.72	444	2	8	100	per	con	low	mod	low	tg	ht	wh/0793.bmp
326.88	0.72	445	4	5	105	mem	lib	mod	mod	mod	tg	ht	wh/0821.bmp
327.60	0.72	446	1	8	37	mem	con	low	low	low	nt	ms	nh/0677_nh.bmp
328.32	0.72	447	3	6	64	mem	con	mod	mod	low	tg	ms	wh/0521.bmp
329.04	0.72	448	3	7	56	per	con	mod	mod	mod	tg	ms	wh/0609.bmp
329.76	0.72	449	1	7	75	mem	con	low	low	mod	tg	ms	wh/0475.bmp
330.48	0.72	450	3	6	44	mem	lib	mod	mod	low	nt	ht	nh/0247_nh.bmp
331.20	0.72	451	3	6	66	per	con	mod	mod	mod	tg	ht	wh/0686.bmp
331.92	0.72	452	2	7	62	per	con	mod	mod	mod	nt	cr	nh/0764_nh.bmp
332.64	0.72	453	3	8	80	per	lib	mod	mod	mod	nt	cr	nh/0337_nh.bmp
333.36	0.72	454	5	8	75	per	lib	mod	mod	mod	tg	ht	wh/0599.bmp
334.08	0.72	455	1	5	116	mem	con	low	low	low	tg	ms	wh/0202.bmp
334.80	0.72	456	4	8	105	per	con	low	mod	low	nt	cr	nh/0165_nh.bmp
335.52	0.72	457	3	7	94	per	lib	low	mod	low	nt	fa	nh/0241_nh.bmp
336.24	0.72	458	4	6	46	mem	lib	mod	mod	low	tg	ht	wh/0108.bmp
336.96	0.72	459	1	6	24	per	lib	mod	low	mod	nt	cr	nh/0381_nh.bmp
337.68	0.72	460	4	5	75	mem	con	mod	mod	mod	tg	ms	wh/0978.bmp
338.40	0.72	461	5	7	64	per	con	mod	mod	mod	tg	ht	wh/0871.bmp
339.12	0.72	462	4	6	55	mem	con	mod	mod	low	nt	ms	nh/0042_nh.bmp
339.84	0.72	463	1	6	121	mem	lib	low	low	low	nt	ms	nh/0830_nh.bmp
340.56	0.72	464	5	7	61	per	con	mod	mod	mod	tg	ms	wh/0269.bmp
341.28	0.72	465	3	5	71	mem	con	mod	mod	mod	nt	ht	nh/0832_nh.bmp
342.00	0.72	466	4	8	80	per	lib	mod	mod	mod	nt	cr	nh/0337_nh.bmp
342.72	0.72	467	4	6	44	mem	lib	mod	mod	low	nt	ht	nh/0247_nh.bmp
343.44	0.72	468	1	8	6	per	con	mod	low	mod	nt	cr	nh/0840_nh.bmp
344.16	0.72	469	4	6	71	per	con	mod	mod	mod	nt	cr	nh/0441_nh.bmp
344.88	0.72	470	3	7	62	per	con	mod	mod	mod	nt	cr	nh/0764_nh.bmp
345.60	0.72	471	6	7	63	per	con	mod	mod	mod	tg	ht	wh/0602.bmp
346.32	0.72	472	4	5	86	per	lib	mod	mod	mod	tg	ht	wh/0735.bmp
347.04	0.72	473	4	8	87	mem	con	mod	mod	mod	tg	ht	wh/0549.bmp
347.76	0.72	474	6	7	1	mem	con	mod	mod	low	nt	ms	nh/0111_nh.bmp
348.48	0.72	475	3	6	34	mem	lib	mod	mod	low	nt	ht	nh/0164_nh.bmp
349.20	0.72	476	5	8	69	per	lib	mod	mod	mod	tg	ht	wh/0797.bmp
349.92	0.72	477	4	8	83	mem	con	mod	mod	mod	nt	ms	nh/0179_nh.bmp
350.64	0.72	478	1	8	35	mem	con	low	low	low	tg	ms	wh/0859.bmp
351.36	0.72	479	3	7	32	mem	lib	mod	mod	mod	nt	ms	nh/0020_nh.bmp
352.08	0.72	480	1	5	27	mem	lib	low	low	mod	nt	ht	nh/0373_nh.bmp
352.80	0.72	481	4	6	49	mem	con	mod	mod	low	tg	ms	wh/0388.bmp
353.52	0.72	482	1	6	87	mem	con	low	low	mod	nt	ms	nh/0921_nh.bmp
354.24	0.72	483	3	8	57	mem	lib	mod	mod	low	nt	ht	nh/0018_nh.bmp
354.96	0.72	484	3	5	5	per	con	low	mod	low	nt	cr	nh/0863_nh.bmp
355.68	0.72	485	1	6	29	per	lib	mod	low	mod	nt	cr	nh/0395_nh.bmp
356.40	0.72	486	4	5	5	per	con	low	mod	low	nt	cr	nh/0863_nh.bmp
357.12	0.72	487	5	8	83	mem	con	mod	mod	mod	nt	ms	nh/0179_nh.bmp
357.84	0.72	488	4	5	93	per	lib	mod	mod	mod	tg	ms	wh/0399.bmp
358.56	0.72	489	1	5	125	mem	con	low	low	low	tg	ms	wh/0058.bmp
359.28	0.72	490	6	8	106	per	con	low	mod	low	tg	ms	wh/0746.bmp
360.00	0.72	491	4	5	8	per	con	low	mod	low	tg	ms	wh/0297.bmp
360.72	0.72	492	2	5	107	mem	lib	mod	mod	mod	tg	ht	wh/0638.bmp
361.44	0.72	493	2	8	51	mem	lib	mod	mod	low	nt	ht	nh/0618_nh.bmp
362.16	0.72	494	4	6	56	mem	con	mod	mod	low	nt	ht	nh/0939_nh.bmp
362.88	0.72	495	4	8	78	per	lib	mod	mod	mod	tg	ht	wh/0408.bmp
363.60	0.72	496	4	6	42	mem	lib	mod	mod	low	nt	ms	nh/0734_nh.bmp
364.32	0.72	497	3	5	15	per	con	low	mod	low	tg	ms	wh/0157.bmp
365.04	0.72	498	4	5	97	mem	lib	mod	mod	mod	nt	ht	nh/0827_nh.bmp
365.76	0.72	499	2	8	108	per	con	low	mod	low	nt	cr	nh/0578_nh.bmp
366.48	0.72	500	4	5	48	per	lib	low	mod	low	tg	ht	wh/0453.bmp
367.20	0.72	501	4	5	96	per	lib	mod	mod	mod	tg	ht	wh/0385.bmp
367.92	0.72	502	5	5	67	mem	con	mod	mod	mod	tg	ht	wh/0544.bmp
368.64	0.72	503	1	8	122	per	lib	low	low	low	tg	ht	wh/0352.bmp
369.36	0.72	504	5	7	27	mem	lib	mod	mod	mod	tg	ht	wh/0603.bmp
370.08	0.72	505	5	5	48	per	lib	low	mod	low	tg	ht	wh/0453.bmp
370.80	0.72	506	4	5	40	per	lib	low	mod	low	tg	ms	wh/0401.bmp
371.52	0.72	507	3	8	100	per	con	low	mod	low	tg	ht	wh/0793.bmp
372.24	0.72	508	1	5	58	per	con	mod	low	mod	tg	ms	wh/0342.bmp
372.96	0.72	509	3	6	67	per	con	mod	mod	mod	tg	ms	wh/0420.bmp
373.68	0.72	510	4	5	47	per	lib	low	mod	low	nt	fa	nh/0114_nh.bmp
374.40	0.72	511	4	5	109	mem	lib	mod	mod	mod	tg	ht	wh/0275.bmp
375.12	0.72	512	4	8	62	mem	lib	mod	mod	low	tg	ht	wh/0892.bmp
375.84	0.72	513	1	7	47	per	lib	mod	low	mod	nt	fa	nh/0180_nh.bmp
376.56	0.72	514	1	7	102	mem	lib	low	low	low	nt	ht	nh/0144_nh.bmp
377.28	0.72	515	2	8	90	mem	con	mod	mod	mod	nt	ms	nh/0056_nh.bmp
378.00	0.72	516	4	6	66	per	con	mod	mod	mod	tg	ht	wh/0686.bmp
378.72	0.72	517	5	5	97	mem	lib	mod	mod	mod	nt	ht	nh/0827_nh.bmp
379.44	0.72	518	5	5	70	mem	con	mod	mod	mod	tg	ht	wh/0763.bmp
380.16	0.72	519	1	6	11	per	con	low	low	low	tg	ms	wh/0106.bmp
380.88	0.72	520	5	6	71	per	con	mod	mod	mod	nt	cr	nh/0441_nh.bmp
381.60	0.72	521	1	6	25	per	lib	mod	low	mod	tg	ht	wh/0221.bmp
382.32	0.72	522	4	6	75	per	con	mod	mod	mod	tg	ms	wh/0958.bmp
383.04	0.72	523	4	8	93	mem	con	mod	mod	mod	tg	ht	wh/0971.bmp
383.76	0.72	524	1	6	105	per	lib	low	low	low	nt	cr	nh/0468_nh.bmp
384.48	0.72	525	5	6	75	per	con	mod	mod	mod	tg	ms	wh/0958.bmp
385.20	0.72	526	2	5	92	per	lib	mod	mod	mod	nt	fa	nh/0086_nh.bmp
385.92	0.72	527	4	8	57	mem	lib	mod	mod	low	nt	ht	nh/0018_nh.bmp
386.64	0.72	528	4	6	64	mem	con	mod	mod	low	tg	ms	wh/0521.bmp
387.36	0.72	529	4	8	60	mem	lib	mod	mod	low	nt	ht	nh/0023_nh.bmp
388.08	0.72	530	5	6	54	mem	con	mod	mod	low	tg	ms	wh/0172.bmp
388.80	0.72	531	4	5	42	per	lib	low	mod	low	tg	ht	wh/0394.bmp
389.52	0.72	532	5	8	62	mem	lib	mod	mod	low	tg	ht	wh/0892.bmp
390.24	0.72	533	6	7	60	per	con	mod	mod	mod	nt	cr	nh/0715_nh.bmp
390.96	0.72	534	1	6	4	per	con	low	low	low	nt	cr	nh/0043_nh.bmp
391.68	0.72	535	3	7	11	mem	con	mod	mod	low	nt	ht	nh/1014_nh.bmp
392.40	0.72	536	4	7	14	mem	con	mod	mod	low	tg	ht	wh/0012.bmp
393.12	0.72	537	4	7	94	per	lib	low	mod	low	nt	fa	nh/0241_nh.bmp
393.84	0.72	538	3	8	108	per	con	low	mod	low	nt	cr	nh/0578_nh.bmp
394.56	0.72	539	2	5	4	per	con	low	mod	low	nt	cr	nh/0519_nh.bmp
395.28	0.72	540	4	5	13	per	con	low	mod	low	tg	ms	wh/0883.bmp
396.00	0.72	541	2	8	67	per	lib	mod	mod	mod	nt	cr	nh/0995_nh.bmp
396.72	0.72	542	4	7	11	mem	con	mod	mod	low	nt	ht	nh/1014_nh.bmp
397.44	0.72	543	4	5	71	mem	con	mod	mod	mod	nt	ht	nh/0832_nh.bmp
398.16	0.72	544	4	8	54	mem	lib	mod	mod	low	tg	ht	wh/1019.bmp
398.88	0.72	545	5	5	42	per	lib	low	mod	low	tg	ht	wh/0394.bmp
399.60	0.72	546	6	5	108	mem	lib	mod	mod	mod	tg	ht	wh/0666.bmp
400.32	0.72	547	3	5	95	per	lib	mod	mod	mod	nt	cr	nh/0835_nh.bmp
401.04	0.72	548	2	5	106	mem	lib	mod	mod	mod	nt	ht	nh/0590_nh.bmp
401.76	0.72	549	1	6	127	mem	lib	low	low	low	tg	ht	wh/0737.bmp
402.48	0.72	550	3	8	66	per	lib	mod	mod	mod	nt	fa	nh/0560_nh.bmp
403.20	0.72	551	4	5	95	per	lib	mod	mod	mod	nt	cr	nh/0835_nh.bmp
403.92	0.72	552	1	7	70	mem	con	low	low	mod	tg	ht	wh/0037.bmp
404.64	0.72	553	3	5	106	mem	lib	mod	mod	mod	nt	ht	nh/0590_nh.bmp
405.36	0.72	554	3	8	51	mem	lib	mod	mod	low	nt	ht	nh/0618_nh.bmp
406.08	0.72	555	5	6	46	mem	lib	mod	mod	low	tg	ht	wh/0108.bmp
406.80	0.72	556	4	7	56	per	con	mod	mod	mod	tg	ms	wh/0609.bmp
407.52	0.72	557	1	6	10	per	con	low	low	low	nt	cr	nh/0994_nh.bmp
408.24	0.72	558	4	8	66	per	lib	mod	mod	mod	nt	fa	nh/0560_nh.bmp
408.96	0.72	559	5	8	105	per	con	low	mod	low	nt	cr	nh/0165_nh.bmp
409.68	0.72	560	3	5	92	per	lib	mod	mod	mod	nt	fa	nh/0086_nh.bmp
410.40	0.72	561	1	7	115	per	con	low	low	low	nt	cr	nh/0570_nh.bmp
411.12	0.72	562	5	7	55	per	con	mod	mod	mod	nt	cr	nh/0495_nh.bmp
411.84	0.72	563	4	8	88	mem	con	mod	mod	mod	nt	ms	nh/0629_nh.bmp
412.56	0.72	564	5	6	62	mem	con	mod	mod	low	nt	ht	nh/0255_nh.bmp
413.28	0.72	565	5	7	4	mem	con	mod	mod	low	tg	ht	wh/0254.bmp
414.00	0.72	566	4	5	106	mem	lib	mod	mod	mod	nt	ht	nh/0590_nh.bmp
414.72	0.72	567	5	5	47	per	lib	low	mod	low	nt	fa	nh/0114_nh.bmp
415.44	0.72	568	5	5	93	per	lib	mod	mod	mod	tg	ms	wh/0399.bmp
416.16	0.72	569	5	7	11	mem	con	mod	mod	low	nt	ht	nh/1014_nh.bmp
416.88	0.72	570	5	5	5	per	con	low	mod	low	nt	cr	nh/0863_nh.bmp
417.60	0.72	571	3	5	112	mem	lib	mod	mod	mod	nt	ht	nh/0915_nh.bmp
418.32	0.72	572	2	6	45	mem	lib	mod	mod	low	tg	ht	wh/0262.bmp
419.04	0.72	573	5	5	105	mem	lib	mod	mod	mod	tg	ht	wh/0821.bmp
419.76	0.72	574	6	5	42	per	lib	low	mod	low	tg	ht	wh/0394.bmp
420.48	0.72	575	4	7	93	per	lib	low	mod	low	tg	ms	wh/0073.bmp
421.20	0.72	576	4	5	112	mem	lib	mod	mod	mod	nt	ht	nh/0915_nh.bmp
421.92	0.72	577	3	7	95	per	lib	low	mod	low	tg	ht	wh/0491.bmp
422.64	0.72	578	2	6	80	per	con	mod	mod	mod	nt	cr	nh/0060_nh.bmp
423.36	0.72	579	5	8	87	mem	con	mod	mod	mod	tg	ht	wh/0549.bmp
424.08	0.72	580	5	6	35	mem	lib	mod	mod	low	tg	ms	wh/0143.bmp
424.80	0.72	581	5	5	71	mem	con	mod	mod	mod	nt	ht	nh/0832_nh.bmp
425.52	0.72	582	6	5	47	per	lib	low	mod	low	nt	fa	nh/0114_nh.bmp
426.24	0.72	583	6	8	69	per	lib	mod	mod	mod	tg	ht	wh/0797.bmp
426.96	0.72	584	4	7	13	mem	con	mod	mod	low	tg	ht	wh/0780.bmp
427.68	0.72	585	1	8	23	mem	lib	low	low	mod	nt	ms	nh/0779_nh.bmp
428.40	0.72	586	3	5	74	mem	con	mod	mod	mod	nt	ht	nh/0300_nh.bmp
429.12	0.72	587	4	7	15	mem	con	mod	mod	low	tg	ms	wh/0139.bmp
429.84	0.72	588	3	8	99	per	con	low	mod	low	nt	cr	nh/0193_nh.bmp
430.56	0.72	589	4	7	3	mem	con	mod	mod	low	nt	ht	nh/0640_nh.bmp
431.28	0.72	590	4	6	67	per	con	mod	mod	mod	tg	ms	wh/0420.bmp
432.00	0.72	591	5	5	68	mem	con	mod	mod	mod	tg	ht	wh/0552.bmp
432.72	0.72	592	3	7	9	mem	con	mod	mod	low	nt	ht	nh/0064_nh.bmp
433.44	0.72	593	4	6	48	mem	lib	mod	mod	low	nt	ht	nh/0647_nh.bmp
434.16	0.72	594	5	7	3	mem	con	mod	mod	low	nt	ht	nh/0640_nh.bmp
434.88	0.72	595	2	7	84	per	lib	low	mod	low	tg	ht	wh/0820.bmp
435.60	0.72	596	6	7	27	mem	lib	mod	mod	mod	tg	ht	wh/0603.bmp
436.32	0.72	597	3	5	69	mem	con	mod	mod	mod	nt	ht	nh/0852_nh.bmp
437.04	0.72	598	1	6	122	mem	lib	low	low	low	nt	ht	nh/0022_nh.bmp
437.76	0.72	599	3	6	72	per	con	mod	mod	mod	nt	cr	nh/0294_nh.bmp
438.48	0.72	600	5	6	55	mem	con	mod	mod	low	nt	ms	nh/0042_nh.bmp
439.20	0.72	601	5	7	18	mem	lib	mod	mod	mod	nt	ht	nh/0952_nh.bmp
439.92	0.72	602	6	8	105	per	con	low	mod	low	nt	cr	nh/0165_nh.bmp
440.64	0.72	603	5	5	86	per	lib	mod	mod	mod	tg	ht	wh/0735.bmp
441.36	0.72	604	5	5	106	mem	lib	mod	mod	mod	nt	ht	nh/0590_nh.bmp
442.08	0.72	605	6	6	35	mem	lib	mod	mod	low	tg	ms	wh/0143.bmp
442.80	0.72	606	4	6	72	per	con	mod	mod	mod	nt	cr	nh/0294_nh.bmp
443.52	0.72	607	1	5	30	mem	lib	low	low	mod	tg	ht	wh/0622.bmp
444.24	0.72	608	6	5	66	mem	con	mod	mod	mod	nt	ms	nh/0586_nh.bmp
444.96	0.72	609	5	6	73	per	con	mod	mod	mod	tg	ht	wh/0546.bmp
445.68	0.72	610	3	6	45	mem	lib	mod	mod	low	tg	ht	wh/0262.bmp
446.40	0.72	611	6	6	71	per	con	mod	mod	mod	nt	cr	nh/0441_nh.bmp
447.12	0.72	612	5	5	35	per	lib	low	mod	low	nt	fa	nh/0814_nh.bmp
447.84	0.72	613	6	8	62	mem	lib	mod	mod	low	tg	ht	wh/0892.bmp
448.56	0.72	614	6	7	58	per	con	mod	mod	mod	nt	cr	nh/0851_nh.bmp
449.28	0.72	615	3	8	67	per	lib	mod	mod	mod	nt	cr	nh/0995_nh.bmp
450.00	0.72	616	5	8	80	per	lib	mod	mod	mod	nt	cr	nh/0337_nh.bmp
450.72	0.72	617	3	7	81	per	lib	low	mod	low	nt	cr	nh/0574_nh.bmp
451.44	0.72	618	3	5	4	per	con	low	mod	low	nt	cr	nh/0519_nh.bmp
452.16	0.72	619	3	8	90	mem	con	mod	mod	mod	nt	ms	nh/0056_nh.bmp
452.88	0.72	620	3	5	83	per	lib	mod	mod	mod	nt	cr	nh/0318_nh.bmp
453.60	0.72	621	6	6	55	mem	con	mod	mod	low	nt	ms	nh/0042_nh.bmp
454.32	0.72	622	1	7	79	mem	con	low	low	mod	tg	ht	wh/0334.bmp
455.04	0.72	623	5	8	66	per	lib	mod	mod	mod	nt	fa	nh/0560_nh.bmp
455.76	0.72	624	1	7	116	per	con	low	low	low	tg	ms	wh/0244.bmp
456.48	0.72	625	1	8	15	per	con	mod	low	mod	nt	cr	nh/0389_nh.bmp
457.20	0.72	626	3	5	107	mem	lib	mod	mod	mod	tg	ht	wh/0638.bmp
457.92	0.72	627	5	7	93	per	lib	low	mod	low	tg	ms	wh/0073.bmp
458.64	0.72	628	4	5	4	per	con	low	mod	low	nt	cr	nh/0519_nh.bmp
459.36	0.72	629	4	8	67	per	lib	mod	mod	mod	nt	cr	nh/0995_nh.bmp
460.08	0.72	630	6	5	68	mem	con	mod	mod	mod	tg	ht	wh/0552.bmp
460.80	0.72	631	1	5	18	mem	lib	low	low	mod	tg	ht	wh/0751.bmp
461.52	0.72	632	4	8	108	per	con	low	mod	low	nt	cr	nh/0578_nh.bmp
462.24	0.72	633	4	7	62	per	con	mod	mod	mod	nt	cr	nh/0764_nh.bmp
462.96	0.72	634	4	5	14	per	con	low	mod	low	nt	cr	nh/0612_nh.bmp
463.68	0.72	635	4	7	32	mem	lib	mod	mod	mod	nt	ms	nh/0020_nh.bmp
464.40	0.72	636	5	5	14	per	con	low	mod	low	nt	cr	nh/0612_nh.bmp
465.12	0.72	637	1	6	97	per	lib	low	low	low	nt	fa	nh/0136_nh.bmp
465.84	0.72	638	4	8	51	mem	lib	mod	mod	low	nt	ht	nh/0618_nh.bmp
466.56	0.72	639	5	7	31	mem	lib	mod	mod	mod	tg	ht	wh/0556.bmp
467.28	0.72	640	3	6	80	per	con	mod	mod	mod	nt	cr	nh/0060_nh.bmp
468.00	0.72	641	4	5	69	mem	con	mod	mod	mod	nt	ht	nh/0852_nh.bmp
468.72	0.72	642	5	7	13	mem	con	mod	mod	low	tg	ht	wh/0780.bmp
469.44	0.72	643	5	5	13	per	con	low	mod	low	tg	ms	wh/0883.bmp
470.16	0.72	644	5	5	1	per	con	low	mod	low	nt	cr	nh/0024_nh.bmp
470.88	0.72	645	6	5	1	per	con	low	mod	low	nt	cr	nh/0024_nh.bmp
471.60	0.72	646	6	5	93	per	lib	mod	mod	mod	tg	ms	wh/0399.bmp
472.32	0.72	647	5	6	64	mem	con	mod	mod	low	tg	ms	wh/0521.bmp
473.04	0.72	648	5	8	78	per	lib	mod	mod	mod	tg	ht	wh/0408.bmp
473.76	0.72	649	4	5	83	per	lib	mod	mod	mod	nt	cr	nh/0318_nh.bmp
474.48	0.72	650	5	5	104	mem	lib	mod	mod	mod	nt	ht	nh/0968_nh.bmp
475.20	0.72	651	5	8	76	per	lib	mod	mod	mod	tg	ht	wh/0833.bmp
475.92	0.72	652	5	6	49	mem	con	mod	mod	low	tg	ms	wh/0388.bmp
476.64	0.72	653	5	5	8	per	con	low	mod	low	tg	ms	wh/0297.bmp
477.36	0.72	654	6	7	13	mem	con	mod	mod	low	tg	ht	wh/0780.bmp
478.08	0.72	655	1	6	92	mem	con	low	low	mod	tg	ms	wh/0186.bmp
478.80	0.72	656	6	6	49	mem	con	mod	mod	low	tg	ms	wh/0388.bmp
479.52	0.72	657	1	6	2	per	con	low	low	low	nt	cr	nh/0657_nh.bmp
480.24	0.72	658	5	6	44	mem	lib	mod	mod	low	nt	ht	nh/0247_nh.bmp
480.96	0.72	659	5	8	59	mem	lib	mod	mod	low	tg	ht	wh/0170.bmp
481.68	0.72	660	1	7	73	mem	con	low	low	mod	nt	ms	nh/0625_nh.bmp
482.40	0.72	661	5	7	56	per	con	mod	mod	mod	tg	ms	wh/0609.bmp
483.12	0.72	662	3	7	84	per	lib	low	mod	low	tg	ht	wh/0820.bmp
483.84	0.72	663	4	8	64	mem	lib	mod	mod	low	nt	ht	nh/0678_nh.bmp
484.56	0.72	664	5	8	54	mem	lib	mod	mod	low	tg	ht	wh/1019.bmp
485.28	0.72	665	1	7	119	per	con	low	low	low	tg	ms	wh/0617.bmp
486.00	0.72	666	4	8	99	per	con	low	mod	low	nt	cr	nh/0193_nh.bmp
486.72	0.72	667	5	5	96	per	lib	mod	mod	mod	tg	ht	wh/0385.bmp
487.44	0.72	668	4	6	45	mem	lib	mod	mod	low	tg	ht	wh/0262.bmp
488.16	0.72	669	6	7	88	per	lib	low	mod	low	nt	fa	nh/1004_nh.bmp
488.88	0.72	670	5	8	93	mem	con	mod	mod	mod	tg	ht	wh/0971.bmp
489.60	0.72	671	3	5	2	per	con	low	mod	low	tg	ms	wh/0253.bmp
490.32	0.72	672	4	8	97	per	con	low	mod	low	tg	ms	wh/0403.bmp
491.04	0.72	673	4	5	84	per	lib	mod	mod	mod	nt	fa	nh/0564_nh.bmp
491.76	0.72	674	4	6	34	mem	lib	mod	mod	low	nt	ht	nh/0164_nh.bmp
492.48	0.72	675	5	8	84	mem	con	mod	mod	mod	tg	ms	wh/0436.bmp
493.20	0.72	676	6	8	87	mem	con	mod	mod	mod	tg	ht	wh/0549.bmp
493.92	0.72	677	5	8	103	per	con	low	mod	low	nt	fa	nh/0374_nh.bmp
494.64	0.72	678	6	8	59	mem	lib	mod	mod	low	tg	ht	wh/0170.bmp
495.36	0.72	679	3	7	20	mem	lib	mod	mod	mod	tg	ht	wh/0694.bmp
496.08	0.72	680	5	5	95	per	lib	mod	mod	mod	nt	cr	nh/0835_nh.bmp
496.80	0.72	681	6	5	104	mem	lib	mod	mod	mod	nt	ht	nh/0968_nh.bmp
497.52	0.72	682	2	5	46	per	lib	low	mod	low	nt	fa	nh/0248_nh.bmp
498.24	0.72	683	1	6	107	per	lib	low	low	low	tg	ht	wh/0154.bmp
498.96	0.72	684	4	7	81	per	lib	low	mod	low	nt	cr	nh/0574_nh.bmp
499.68	0.72	685	6	6	75	per	con	mod	mod	mod	tg	ms	wh/0958.bmp
500.40	0.72	686	4	5	107	mem	lib	mod	mod	mod	tg	ht	wh/0638.bmp
501.12	0.72	687	5	8	57	mem	lib	mod	mod	low	nt	ht	nh/0018_nh.bmp
501.84	0.72	688	5	7	32	mem	lib	mod	mod	mod	nt	ms	nh/0020_nh.bmp
502.56	0.72	689	4	5	2	per	con	low	mod	low	tg	ms	wh/0253.bmp
503.28	0.72	690	4	7	20	mem	lib	mod	mod	mod	tg	ht	wh/0694.bmp
504.00	0.72	691	5	6	72	per	con	mod	mod	mod	nt	cr	nh/0294_nh.bmp
504.72	0.72	692	4	6	40	mem	lib	mod	mod	low	tg	ht	wh/0249.bmp
505.44	0.72	693	4	5	15	per	con	low	mod	low	tg	ms	wh/0157.bmp
506.16	0.72	694	5	5	112	mem	lib	mod	mod	mod	nt	ht	nh/0915_nh.bmp
506.88	0.72	695	5	8	97	per	con	low	mod	low	tg	ms	wh/0403.bmp
507.60	0.72	696	5	6	77	per	con	mod	mod	mod	nt	cr	nh/0888_nh.bmp
508.32	0.72	697	4	5	74	mem	con	mod	mod	mod	nt	ht	nh/0300_nh.bmp
509.04	0.72	698	6	8	80	per	lib	mod	mod	mod	nt	cr	nh/0337_nh.bmp
509.76	0.72	699	5	5	15	per	con	low	mod	low	tg	ms	wh/0157.bmp
510.48	0.72	700	5	8	99	per	con	low	mod	low	nt	cr	nh/0193_nh.bmp
511.20	0.72	701	6	7	11	mem	con	mod	mod	low	nt	ht	nh/1014_nh.bmp
511.92	0.72	702	6	5	96	per	lib	mod	mod	mod	tg	ht	wh/0385.bmp
512.64	0.72	703	4	8	100	per	con	low	mod	low	tg	ht	wh/0793.bmp
513.36	0.72	704	6	7	56	per	con	mod	mod	mod	tg	ms	wh/0609.bmp
514.08	0.72	705	1	6	120	mem	lib	low	low	low	tg	ht	wh/0610.bmp
514.80	0.72	706	6	7	4	mem	con	mod	mod	low	tg	ht	wh/0254.bmp
515.52	0.72	707	1	8	21	mem	lib	low	low	mod	nt	ms	nh/0953_nh.bmp
516.24	0.72	708	5	6	66	per	con	mod	mod	mod	tg	ht	wh/0686.bmp
516.96	0.72	709	5	7	17	mem	lib	mod	mod	mod	nt	ht	nh/0717_nh.bmp
517.68	0.72	710	5	8	95	mem	con	mod	mod	mod	nt	ht	nh/0366_nh.bmp
518.40	0.72	711	6	7	64	per	con	mod	mod	mod	tg	ht	wh/0871.bmp
519.12	0.72	712	5	5	69	mem	con	mod	mod	mod	nt	ht	nh/0852_nh.bmp
519.84	0.72	713	1	8	9	per	con	mod	low	mod	tg	ms	wh/0631.bmp
520.56	0.72	714	4	8	90	mem	con	mod	mod	mod	nt	ms	nh/0056_nh.bmp
521.28	0.72	715	5	7	81	per	lib	low	mod	low	nt	cr	nh/0574_nh.bmp
522.00	0.72	716	4	7	9	mem	con	mod	mod	low	nt	ht	nh/0064_nh.bmp
522.72	0.72	717	5	8	108	per	con	low	mod	low	nt	cr	nh/0578_nh.bmp
523.44	0.72	718	6	5	35	per	lib	low	mod	low	nt	fa	nh/0814_nh.bmp
524.16	0.72	719	4	5	92	per	lib	mod	mod	mod	nt	fa	nh/0086_nh.bmp
524.88	0.72	720	6	7	31	mem	lib	mod	mod	mod	tg	ht	wh/0556.bmp
525.60	0.72	721	1	7	127	per	con	low	low	low	nt	cr	nh/0929_nh.bmp
526.32	0.72	722	3	5	46	per	lib	low	mod	low	nt	fa	nh/0248_nh.bmp
527.04	0.72	723	4	7	84	per	lib	low	mod	low	tg	ht	wh/0820.bmp
527.76	0.72	724	6	5	67	mem	con	mod	mod	mod	tg	ht	wh/0544.bmp
528.48	0.72	725	5	7	9	mem	con	mod	mod	low	nt	ht	nh/0064_nh.bmp
529.20	0.72	726	5	5	83	per	lib	mod	mod	mod	nt	cr	nh/0318_nh.bmp
529.92	0.72	727	6	8	108	per	con	low	mod	low	nt	cr	nh/0578_nh.bmp
530.64	0.72	728	5	7	20	mem	lib	mod	mod	mod	tg	ht	wh/0694.bmp
531.36	0.72	729	4	5	46	per	lib	low	mod	low	nt	fa	nh/0248_nh.bmp
532.08	0.72	730	5	6	48	mem	lib	mod	mod	low	nt	ht	nh/0647_nh.bmp
532.80	0.72	731	4	5	94	per	lib	mod	mod	mod	tg	ht	wh/0778.bmp
533.52	0.72	732	1	5	51	per	con	mod	low	mod	nt	cr	nh/0673_nh.bmp
534.24	0.72	733	6	7	26	mem	lib	mod	mod	mod	nt	ht	nh/0378_nh.bmp
534.96	0.72	734	5	8	100	per	con	low	mod	low	tg	ht	wh/0793.bmp
535.68	0.72	735	1	8	30	mem	lib	low	low	mod	tg	ht	wh/0951.bmp
536.40	0.72	736	5	5	107	mem	lib	mod	mod	mod	tg	ht	wh/0638.bmp
537.12	0.72	737	5	8	67	per	lib	mod	mod	mod	nt	cr	nh/0995_nh.bmp
537.84	0.72	738	6	6	72	per	con	mod	mod	mod	nt	cr	nh/0294_nh.bmp
538.56	0.72	739	1	5	124	mem	con	low	low	low	nt	ms	nh/0147_nh.bmp
539.28	0.72	740	1	5	22	mem	lib	low	low	mod	tg	ht	wh/0402.bmp
540.00	0.72	741	6	7	55	per	con	mod	mod	mod	nt	cr	nh/0495_nh.bmp
540.72	0.72	742	6	5	86	per	lib	mod	mod	mod	tg	ht	wh/0735.bmp
541.44	0.72	743	1	7	67	mem	con	low	low	mod	nt	ht	nh/0051_nh.bmp
542.16	0.72	744	5	6	34	mem	lib	mod	mod	low	nt	ht	nh/0164_nh.bmp
542.88	0.72	745	6	6	34	mem	lib	mod	mod	low	nt	ht	nh/0164_nh.bmp
543.60	0.72	746	5	5	94	per	lib	mod	mod	mod	tg	ht	wh/0778.bmp
544.32	0.72	747	1	6	81	mem	con	low	low	mod	nt	ms	nh/0227_nh.bmp
545.04	0.72	748	4	6	57	mem	con	mod	mod	low	tg	ht	wh/0450.bmp
545.76	0.72	749	4	6	80	per	con	mod	mod	mod	nt	cr	nh/0060_nh.bmp
546.48	0.72	750	3	8	112	per	con	low	mod	low	tg	ms	wh/0118.bmp
547.20	0.72	751	6	8	57	mem	lib	mod	mod	low	nt	ht	nh/0018_nh.bmp
547.92	0.72	752	1	7	45	per	lib	mod	low	mod	nt	fa	nh/0749_nh.bmp
548.64	0.72	753	5	5	92	per	lib	mod	mod	mod	nt	fa	nh/0086_nh.bmp
549.36	0.72	754	5	7	15	mem	con	mod	mod	low	tg	ms	wh/0139.bmp
550.08	0.72	755	6	8	58	mem	lib	mod	mod	low	tg	ht	wh/0986.bmp
550.80	0.72	756	6	7	9	mem	con	mod	mod	low	nt	ht	nh/0064_nh.bmp
551.52	0.72	757	5	7	28	mem	lib	mod	mod	mod	tg	ht	wh/0239.bmp
552.24	0.72	758	6	7	3	mem	con	mod	mod	low	nt	ht	nh/0640_nh.bmp
552.96	0.72	759	6	8	76	per	lib	mod	mod	mod	tg	ht	wh/0833.bmp
553.68	0.72	760	5	7	62	per	con	mod	mod	mod	nt	cr	nh/0764_nh.bmp
554.40	0.72	761	6	8	103	per	con	low	mod	low	nt	fa	nh/0374_nh.bmp
555.12	0.72	762	6	6	77	per	con	mod	mod	mod	nt	cr	nh/0888_nh.bmp
555.84	0.72	763	5	6	40	mem	lib	mod	mod	low	tg	ht	wh/0249.bmp
556.56	0.72	764	6	5	94	per	lib	mod	mod	mod	tg	ht	wh/0778.bmp
557.28	0.72	765	5	6	42	mem	lib	mod	mod	low	nt	ms	nh/0734_nh.bmp
558.00	0.72	766	5	5	46	per	lib	low	mod	low	nt	fa	nh/0248_nh.bmp
558.72	0.72	767	5	8	51	mem	lib	mod	mod	low	nt	ht	nh/0618_nh.bmp
559.44	0.72	768	5	5	4	per	con	low	mod	low	nt	cr	nh/0519_nh.bmp
560.16	0.72	769	1	5	31	mem	lib	low	low	mod	tg	ht	wh/1016.bmp
560.88	0.72	770	3	5	36	per	lib	low	mod	low	tg	ht	wh/0756.bmp
561.60	0.72	771	5	7	94	per	lib	low	mod	low	nt	fa	nh/0241_nh.bmp
562.32	0.72	772	5	8	88	mem	con	mod	mod	mod	nt	ms	nh/0629_nh.bmp
563.04	0.72	773	6	6	46	mem	lib	mod	mod	low	tg	ht	wh/0108.bmp
563.76	0.72	774	6	5	107	mem	lib	mod	mod	mod	tg	ht	wh/0638.bmp
564.48	0.72	775	6	5	5	per	con	low	mod	low	nt	cr	nh/0863_nh.bmp
565.20	0.72	776	6	8	54	mem	lib	mod	mod	low	tg	ht	wh/1019.bmp
565.92	0.72	777	5	6	57	mem	con	mod	mod	low	tg	ht	wh/0450.bmp
566.64	0.72	778	6	6	40	mem	lib	mod	mod	low	tg	ht	wh/0249.bmp
567.36	0.72	779	1	5	55	per	con	mod	low	mod	tg	ht	wh/0416.bmp
568.08	0.72	780	6	6	73	per	con	mod	mod	mod	tg	ht	wh/0546.bmp
568.80	0.72	781	1	7	128	per	con	low	low	low	nt	cr	nh/0280_nh.bmp
569.52	0.72	782	5	5	75	mem	con	mod	mod	mod	tg	ms	wh/0978.bmp
570.24	0.72	783	1	8	19	mem	lib	low	low	mod	nt	ht	nh/0869_nh.bmp
570.96	0.72	784	1	8	3	per	con	mod	low	mod	tg	ht	wh/0101.bmp
571.68	0.72	785	6	8	88	mem	con	mod	mod	mod	nt	ms	nh/0629_nh.bmp
572.40	0.72	786	5	5	74	mem	con	mod	mod	mod	nt	ht	nh/0300_nh.bmp
573.12	0.72	787	6	5	106	mem	lib	mod	mod	mod	nt	ht	nh/0590_nh.bmp
573.84	0.72	788	6	8	83	mem	con	mod	mod	mod	nt	ms	nh/0179_nh.bmp
574.56	0.72	789	6	6	44	mem	lib	mod	mod	low	nt	ht	nh/0247_nh.bmp
575.28	0.72	790	6	5	46	per	lib	low	mod	low	nt	fa	nh/0248_nh.bmp
576.00	0.72	791	4	8	112	per	con	low	mod	low	tg	ms	wh/0118.bmp
576.72	0.72	792	1	8	39	mem	con	low	low	low	nt	ht	nh/0138_nh.bmp
577.44	0.72	793	4	5	36	per	lib	low	mod	low	tg	ht	wh/0756.bmp
578.16	0.72	794	4	7	95	per	lib	low	mod	low	tg	ht	wh/0491.bmp
578.88	0.72	795	5	5	109	mem	lib	mod	mod	mod	tg	ht	wh/0275.bmp
579.60	0.72	796	6	5	75	mem	con	mod	mod	mod	tg	ms	wh/0978.bmp
580.32	0.72	797	6	8	100	per	con	low	mod	low	tg	ht	wh/0793.bmp
581.04	0.72	798	6	6	66	per	con	mod	mod	mod	tg	ht	wh/0686.bmp
581.76	0.72	799	5	8	90	mem	con	mod	mod	mod	nt	ms	nh/0056_nh.bmp
582.48	0.72	800	5	6	45	mem	lib	mod	mod	low	tg	ht	wh/0262.bmp
583.20	0.72	801	6	8	95	mem	con	mod	mod	mod	nt	ht	nh/0366_nh.bmp
583.92	0.72	802	5	8	60	mem	lib	mod	mod	low	nt	ht	nh/0023_nh.bmp
584.64	0.72	803	1	6	88	mem	con	low	low	mod	nt	ht	nh/0046_nh.bmp
585.36	0.72	804	5	5	40	per	lib	low	mod	low	tg	ms	wh/0401.bmp
586.08	0.72	805	6	5	71	mem	con	mod	mod	mod	nt	ht	nh/0832_nh.bmp
586.80	0.72	806	6	6	54	mem	con	mod	mod	low	tg	ms	wh/0172.bmp
587.52	0.72	807	6	8	99	per	con	low	mod	low	nt	cr	nh/0193_nh.bmp
588.24	0.72	808	1	8	33	mem	con	low	low	low	nt	ms	nh/0825_nh.bmp
588.96	0.72	809	5	7	14	mem	con	mod	mod	low	tg	ht	wh/0012.bmp
589.68	0.72	810	1	8	128	per	lib	low	low	low	nt	fa	nh/0135_nh.bmp
590.40	0.72	811	5	8	72	per	lib	mod	mod	mod	nt	n/a	nh/0623_nh.bmp
591.12	0.72	812	6	7	32	mem	lib	mod	mod	mod	nt	ms	nh/0020_nh.bmp
591.84	0.72	813	6	7	81	per	lib	low	mod	low	nt	cr	nh/0574_nh.bmp
592.56	0.72	814	6	5	105	mem	lib	mod	mod	mod	tg	ht	wh/0821.bmp
593.28	0.72	815	6	7	15	mem	con	mod	mod	low	tg	ms	wh/0139.bmp
594.00	0.72	816	6	5	95	per	lib	mod	mod	mod	nt	cr	nh/0835_nh.bmp
594.72	0.72	817	6	7	94	per	lib	low	mod	low	nt	fa	nh/0241_nh.bmp
595.44	0.72	818	6	6	64	mem	con	mod	mod	low	tg	ms	wh/0521.bmp
596.16	0.72	819	1	7	107	mem	lib	low	low	low	tg	ms	wh/0770.bmp
596.88	0.72	820	5	5	2	per	con	low	mod	low	tg	ms	wh/0253.bmp
597.60	0.72	821	5	8	64	mem	lib	mod	mod	low	nt	ht	nh/0678_nh.bmp
598.32	0.72	822	6	5	4	per	con	low	mod	low	nt	cr	nh/0519_nh.bmp
599.04	0.72	823	6	8	60	mem	lib	mod	mod	low	nt	ht	nh/0023_nh.bmp
599.76	0.72	824	6	5	97	mem	lib	mod	mod	mod	nt	ht	nh/0827_nh.bmp
600.48	0.72	825	5	6	63	mem	con	mod	mod	low	nt	ht	nh/0848_nh.bmp
601.20	0.72	826	5	8	112	per	con	low	mod	low	tg	ms	wh/0118.bmp
601.92	0.72	827	1	6	85	mem	con	low	low	mod	tg	ms	wh/0611.bmp
602.64	0.72	828	5	6	80	per	con	mod	mod	mod	nt	cr	nh/0060_nh.bmp
603.36	0.72	829	1	6	102	per	lib	low	low	low	nt	cr	nh/0865_nh.bmp
604.08	0.72	830	6	8	72	per	lib	mod	mod	mod	nt	n/a	nh/0623_nh.bmp
604.80	0.72	831	6	8	67	per	lib	mod	mod	mod	nt	cr	nh/0995_nh.bmp
605.52	0.72	832	6	8	97	per	con	low	mod	low	tg	ms	wh/0403.bmp
606.24	0.72	833	5	5	84	per	lib	mod	mod	mod	nt	fa	nh/0564_nh.bmp
606.96	0.72	834	6	6	63	mem	con	mod	mod	low	nt	ht	nh/0848_nh.bmp
607.68	0.72	835	6	7	93	per	lib	low	mod	low	tg	ms	wh/0073.bmp
608.40	0.72	836	1	8	14	per	con	mod	low	mod	nt	fa	nh/1008_nh.bmp
609.12	0.72	837	6	8	64	mem	lib	mod	mod	low	nt	ht	nh/0678_nh.bmp
609.84	0.72	838	5	7	84	per	lib	low	mod	low	tg	ht	wh/0820.bmp
610.56	0.72	839	6	7	17	mem	lib	mod	mod	mod	nt	ht	nh/0717_nh.bmp
611.28	0.72	840	5	7	95	per	lib	low	mod	low	tg	ht	wh/0491.bmp
612.00	0.72	841	5	5	36	per	lib	low	mod	low	tg	ht	wh/0756.bmp
612.72	0.72	842	6	7	28	mem	lib	mod	mod	mod	tg	ht	wh/0239.bmp
613.44	0.72	843	6	8	93	mem	con	mod	mod	mod	tg	ht	wh/0971.bmp
614.16	0.72	844	6	8	66	per	lib	mod	mod	mod	nt	fa	nh/0560_nh.bmp
614.88	0.72	845	1	8	10	per	con	mod	low	mod	nt	cr	nh/0668_nh.bmp
615.60	0.72	846	6	5	112	mem	lib	mod	mod	mod	nt	ht	nh/0915_nh.bmp
616.32	0.72	847	6	5	84	per	lib	mod	mod	mod	nt	fa	nh/0564_nh.bmp
617.04	0.72	848	6	8	85	mem	con	mod	mod	mod	tg	ht	wh/0822.bmp
617.76	0.72	849	6	6	57	mem	con	mod	mod	low	tg	ht	wh/0450.bmp
618.48	0.72	850	5	7	92	per	lib	low	mod	low	tg	ms	wh/0582.bmp
619.20	0.72	851	1	5	53	per	con	mod	low	mod	nt	cr	nh/0663_nh.bmp
619.92	0.72	852	6	5	33	per	lib	low	mod	low	nt	cr	nh/0176_nh.bmp
620.64	0.72	853	1	8	38	mem	con	low	low	low	tg	ms	wh/0842.bmp
621.36	0.72	854	6	5	40	per	lib	low	mod	low	tg	ms	wh/0401.bmp
622.08	0.72	855	6	5	83	per	lib	mod	mod	mod	nt	cr	nh/0318_nh.bmp
622.80	0.72	856	1	7	68	mem	con	low	low	mod	tg	ms	wh/1005.bmp
623.52	0.72	857	5	6	56	mem	con	mod	mod	low	nt	ht	nh/0939_nh.bmp
624.24	0.72	858	6	8	112	per	con	low	mod	low	tg	ms	wh/0118.bmp
624.96	0.72	859	5	6	67	per	con	mod	mod	mod	tg	ms	wh/0420.bmp
625.68	0.72	860	6	6	56	mem	con	mod	mod	low	nt	ht	nh/0939_nh.bmp
626.40	0.72	861	1	7	46	per	lib	mod	low	mod	tg	ht	wh/0837.bmp
627.12	0.72	862	6	5	15	per	con	low	mod	low	tg	ms	wh/0157.bmp
627.84	0.72	863	1	6	20	per	lib	mod	low	mod	tg	ms	wh/0867.bmp
628.56	0.72	864	6	6	62	mem	con	mod	mod	low	nt	ht	nh/0255_nh.bmp
629.28	0.72	865	6	7	14	mem	con	mod	mod	low	tg	ht	wh/0012.bmp
630.00	0.72	866	6	5	13	per	con	low	mod	low	tg	ms	wh/0883.bmp
630.72	0.72	867	6	6	80	per	con	mod	mod	mod	nt	cr	nh/0060_nh.bmp
631.44	0.72	868	6	7	95	per	lib	low	mod	low	tg	ht	wh/0491.bmp
632.16	0.72	869	6	5	70	mem	con	mod	mod	mod	tg	ht	wh/0763.bmp
632.88	0.72	870	6	7	92	per	lib	low	mod	low	tg	ms	wh/0582.bmp
633.60	0.72	871	6	5	69	mem	con	mod	mod	mod	nt	ht	nh/0852_nh.bmp
634.32	0.72	872	6	8	75	per	lib	mod	mod	mod	tg	ht	wh/0599.bmp
635.04	0.72	873	6	8	51	mem	lib	mod	mod	low	nt	ht	nh/0618_nh.bmp
635.76	0.72	874	6	6	45	mem	lib	mod	mod	low	tg	ht	wh/0262.bmp
636.48	0.72	875	6	5	92	per	lib	mod	mod	mod	nt	fa	nh/0086_nh.bmp
637.20	0.72	876	6	8	90	mem	con	mod	mod	mod	nt	ms	nh/0056_nh.bmp
637.92	0.72	877	1	6	7	per	con	low	low	low	tg	ht	wh/0636.bmp
638.64	0.72	878	6	7	84	per	lib	low	mod	low	tg	ht	wh/0820.bmp
639.36	0.72	879	6	5	74	mem	con	mod	mod	mod	nt	ht	nh/0300_nh.bmp
640.08	0.72	880	6	8	78	per	lib	mod	mod	mod	tg	ht	wh/0408.bmp
640.80	0.72	881	6	5	48	per	lib	low	mod	low	tg	ht	wh/0453.bmp
641.52	0.72	882	6	5	8	per	con	low	mod	low	tg	ms	wh/0297.bmp
642.24	0.72	883	6	6	67	per	con	mod	mod	mod	tg	ms	wh/0420.bmp
642.96	0.72	884	6	7	61	per	con	mod	mod	mod	tg	ms	wh/0269.bmp
643.68	0.72	885	6	7	20	mem	lib	mod	mod	mod	tg	ht	wh/0694.bmp
644.40	0.72	886	6	6	42	mem	lib	mod	mod	low	nt	ms	nh/0734_nh.bmp
645.12	0.72	887	6	7	62	per	con	mod	mod	mod	nt	cr	nh/0764_nh.bmp
645.84	0.72	888	6	5	2	per	con	low	mod	low	tg	ms	wh/0253.bmp
646.56	0.72	889	6	6	48	mem	lib	mod	mod	low	nt	ht	nh/0647_nh.bmp
647.28	0.72	890	6	5	36	per	lib	low	mod	low	tg	ht	wh/0756.bmp
648.00	0.72	891	6	5	14	per	con	low	mod	low	nt	cr	nh/0612_nh.bmp
648.72	0.72	892	1	6	83	mem	con	low	low	mod	nt	ms	nh/0347_nh.bmp
649.44	0.72	893	6	8	84	mem	con	mod	mod	mod	tg	ms	wh/0436.bmp
650.16	0.72	894	1	8	123	per	lib	low	low	low	nt	cr	nh/0566_nh.bmp
650.88	0.72	895	6	7	18	mem	lib	mod	mod	mod	nt	ht	nh/0952_nh.bmp
651.60	0.72	896	6	5	109	mem	lib	mod	mod	mod	tg	ht	wh/0275.bmp
