onset	duration	trial	pres	ts_blk	ts_trl	task	crit	disc	mem_disc	per_disc	per_type	accuracy	stim_file
7.20	0.72	1	1	4	63	mem	lib	mod	mod	low	tg	ht	wh/0386.bmp
7.92	0.72	2	1	3	95	mem	con	low	low	low	nt	ms	nh/0363_nh.bmp
8.64	0.72	3	1	3	31	per	con	mod	mod	mod	tg	ht	wh/0925.bmp
9.36	0.72	4	1	2	59	mem	con	mod	mod	low	nt	ms	nh/0390_nh.bmp
10.08	0.72	5	1	2	45	per	con	low	mod	low	tg	ms	wh/0315.bmp
10.80	0.72	6	1	4	105	per	con	low	mod	low	tg	ms	wh/0554.bmp
11.52	0.72	7	1	2	2	per	lib	mod	mod	mod	nt	cr	nh/0365_nh.bmp
12.24	0.72	8	1	2	15	per	lib	mod	mod	mod	tg	ms	wh/0072.bmp
12.96	0.72	9	1	3	16	mem	lib	mod	mod	mod	nt	ht	nh/0983_nh.bmp
13.68	0.72	10	1	2	13	per	lib	mod	mod	mod	tg	ht	wh/0427.bmp
14.40	0.72	11	1	3	47	mem	con	mod	mod	low	tg	ms	wh/0494.bmp
15.12	0.72	12	1	2	104	per	lib	low	mod	low	nt	fa	nh/0132_nh.bmp
15.84	0.72	13	1	2	99	per	lib	low	mod	low	tg	ms	wh/0283.bmp
16.56	0.72	14	1	1	119	mem	lib	mod	mod	low	nt	ht	nh/0792_nh.bmp
17.28	0.72	15	1	2	103	per	lib	low	mod	low	tg	ms	wh/1000.bmp
18.00	0.72	16	1	2	48	per	con	low	mod	low	nt	cr	nh/0166_nh.bmp
18.72	0.72	17	1	4	83	per	con	mod	low	mod	nt	cr	nh/0062_nh.bmp
19.44	0.72	18	1	4	50	mem	lib	mod	mod	low	tg	ht	wh/0203.bmp
20.16	0.72	19	1	4	51	mem	lib	mod	mod	low	nt	ht	nh/0124_nh.bmp
20.88	0.72	20	1	2	124	mem	lib	mod	mod	mod	nt	ht	nh/0861_nh.bmp
21.60	0.72	21	2	2	59	mem	con	mod	mod	low	nt	ms	nh/0390_nh.bmp
22.32	0.72	22	1	3	64	per	lib	low	mod	low	tg	ht	wh/0672.bmp
23.04	0.72	23	1	3	11	mem	lib	mod	mod	mod	tg	ht	wh/0970.bmp
23.76	0.72	24	1	2	34	per	con	low	mod	low	tg	ms	wh/0575.bmp
24.48	0.72	25	1	4	33	mem	con	mod	mod	mod	nt	ht	nh/0901_nh.bmp
25.20	0.72	26	1	4	72	per	lib	mod	mod	mod	tg	ht	wh/0331.bmp
25.92	0.72	27	1	1	127	mem	lib	mod	mod	low	nt	ht	nh/0512_nh.bmp
26.64	0.72	28	1	2	14	per	lib	mod	mod	mod	tg	ht	wh/0061.bmp
27.36	0.72	29	2	2	2	per	lib	mod	mod	mod	nt	cr	nh/0365_nh.bmp
28.08	0.72	30	1	3	9	mem	lib	mod	mod	mod	tg	ht	wh/0674.bmp
28.80	0.72	31	1	4	60	mem	lib	mod	mod	low	nt	ht	nh/0988_nh.bmp
29.52	0.72	32	1	2	73	mem	lib	low	low	low	nt	ht	nh/0264_nh.bmp
30.24	0.72	33	2	3	9	mem	lib	mod	mod	mod	tg	ht	wh/0674.bmp
30.96	0.72	34	1	3	51	per	lib	low	mod	low	tg	ht	wh/0671.bmp
31.68	0.72	35	1	1	21	mem	lib	low	low	mod	tg	ht	wh/0872.bmp
32.40	0.72	36	1	3	49	per	lib	low	mod	low	nt	cr	nh/0302_nh.bmp
33.12	0.72	37	1	1	12	per	con	mod	mod	mod	nt	n/a	nh/0664_nh.bmp
33.84	0.72	38	1	2	58	mem	con	mod	mod	low	nt	ht	nh/0131_nh.bmp
34.56	0.72	39	1	2	52	mem	con	mod	mod	low	tg	ms	wh/0424.bmp
35.28	0.72	40	1	4	47	mem	con	mod	mod	mod	nt	ht	nh/0742_nh.bmp
36.00	0.72	41	1	4	45	mem	con	mod	mod	mod	tg	ht	wh/0487.bmp
36.72	0.72	42	1	4	55	mem	lib	mod	mod	low	tg	ht	wh/0368.bmp
37.44	0.72	43	2	4	60	mem	lib	mod	mod	low	nt	ht	nh/0988_nh.bmp
38.16	0.72	44	1	1	1	per	con	mod	mod	mod	nt	cr	nh/0229_nh.bmp
38.88	0.72	45	1	4	39	mem	con	mod	mod	mod	tg	ht	wh/1006.bmp
39.60	0.72	46	1	1	93	mem	con	mod	mod	mod	nt	ht	nh/0705_nh.bmp
40.32	0.72	47	1	4	65	per	lib	mod	mod	mod	nt	fa	nh/0628_nh.bmp
41.04	0.72	48	1	2	54	mem	con	mod	mod	low	tg	ms	wh/0798.bmp
41.76	0.72	49	1	3	2	mem	lib	mod	mod	mod	nt	ht	nh/0761_nh.bmp
42.48	0.72	50	1	1	98	per	lib	low	low	low	nt	cr	nh/0808_nh.bmp
43.20	0.72	51	1	2	112	per	lib	low	mod	low	nt	fa	nh/0703_nh.bmp
43.92	0.72	52	3	4	60	mem	lib	mod	mod	low	nt	ht	nh/0988_nh.bmp
44.64	0.72	53	2	2	52	mem	con	mod	mod	low	tg	ms	wh/0424.bmp
45.36	0.72	54	2	2	48	per	con	low	mod	low	nt	cr	nh/0166_nh.bmp
46.08	0.72	55	2	4	105	per	con	low	mod	low	tg	ms	wh/0554.bmp
46.80	0.72	56	1	2	4	per	lib	mod	mod	mod	nt	cr	nh/0049_nh.bmp
47.52	0.72	57	2	4	33	mem	con	mod	mod	mod	nt	ht	nh/0901_nh.bmp
48.24	0.72	58	1	4	42	mem	con	mod	mod	mod	tg	ht	wh/0576.bmp
48.96	0.72	59	1	2	69	mem	lib	low	low	low	nt	ht	nh/0632_nh.bmp
49.68	0.72	60	1	3	70	per	lib	mod	low	mod	nt	cr	nh/0102_nh.bmp
50.40	0.72	61	1	3	1	mem	lib	mod	mod	mod	tg	ht	wh/0348.bmp
51.12	0.72	62	2	4	42	mem	con	mod	mod	mod	tg	ht	wh/0576.bmp
51.84	0.72	63	1	3	18	per	con	mod	mod	mod	nt	fa	nh/0961_nh.bmp
52.56	0.72	64	2	4	45	mem	con	mod	mod	mod	tg	ht	wh/0487.bmp
53.28	0.72	65	1	1	118	mem	lib	mod	mod	low	tg	ht	wh/0757.bmp
54.00	0.72	66	1	2	56	mem	con	mod	mod	low	nt	ms	nh/0291_nh.bmp
54.72	0.72	67	1	4	80	per	lib	mod	mod	mod	tg	ht	wh/0313.bmp
55.44	0.72	68	1	2	126	mem	lib	mod	mod	mod	nt	ht	nh/0039_nh.bmp
56.16	0.72	69	2	2	45	per	con	low	mod	low	tg	ms	wh/0315.bmp
56.88	0.72	70	2	4	55	mem	lib	mod	mod	low	tg	ht	wh/0368.bmp
57.60	0.72	71	1	3	123	mem	lib	low	low	low	tg	ht	wh/0369.bmp
58.32	0.72	72	1	4	40	mem	con	mod	mod	mod	nt	ms	nh/0320_nh.bmp
59.04	0.72	73	1	4	100	per	con	low	mod	low	tg	ms	wh/0765.bmp
59.76	0.72	74	1	2	120	mem	lib	mod	mod	mod	tg	ht	wh/0834.bmp
60.48	0.72	75	1	1	31	mem	lib	low	low	mod	nt	ht	nh/0707_nh.bmp
61.20	0.72	76	1	3	17	per	con	mod	mod	mod	tg	ms	wh/0645.bmp
61.92	0.72	77	2	3	31	per	con	mod	mod	mod	tg	ht	wh/0925.bmp
62.64	0.72	78	1	4	115	mem	con	low	low	mod	nt	ms	nh/0991_nh.bmp
63.36	0.72	79	1	2	113	mem	lib	mod	mod	mod	tg	ms	wh/0759.bmp
64.08	0.72	80	1	3	39	mem	con	mod	mod	low	tg	ht	wh/1013.bmp
64.80	0.72	81	1	3	22	per	con	mod	mod	mod	tg	ht	wh/0279.bmp
65.52	0.72	82	2	1	127	mem	lib	mod	mod	low	nt	ht	nh/0512_nh.bmp
66.24	0.72	83	2	1	12	per	con	mod	mod	mod	nt	n/a	nh/0664_nh.bmp
66.96	0.72	84	2	4	39	mem	con	mod	mod	mod	tg	ht	wh/1006.bmp
67.68	0.72	85	2	2	34	per	con	low	mod	low	tg	ms	wh/0575.bmp
68.40	0.72	86	1	2	102	per	lib	low	mod	low	nt	cr	nh/0641_nh.bmp
69.12	0.72	87	1	1	122	mem	lib	mod	mod	low	tg	ht	wh/0067.bmp
69.84	0.72	88	2	3	47	mem	con	mod	mod	low	tg	ms	wh/0494.bmp
70.56	0.72	89	2	3	49	per	lib	low	mod	low	nt	cr	nh/0302_nh.bmp
71.28	0.72	90	1	2	6	per	lib	mod	mod	mod	nt	fa	nh/0604_nh.bmp
72.00	0.72	91	1	1	95	mem	con	mod	mod	mod	tg	ht	wh/0445.bmp
72.72	0.72	92	2	2	126	mem	lib	mod	mod	mod	nt	ht	nh/0039_nh.bmp
73.44	0.72	93	2	2	99	per	lib	low	mod	low	tg	ms	wh/0283.bmp
74.16	0.72	94	1	3	33	mem	con	mod	mod	low	tg	ht	wh/0791.bmp
74.88	0.72	95	1	1	47	per	lib	mod	low	mod	nt	fa	nh/0346_nh.bmp
75.60	0.72	96	1	4	74	per	lib	mod	mod	mod	nt	cr	nh/0799_nh.bmp
76.32	0.72	97	1	3	23	per	con	mod	mod	mod	nt	cr	nh/0738_nh.bmp
77.04	0.72	98	1	3	24	per	con	mod	mod	mod	nt	cr	nh/0137_nh.bmp
77.76	0.72	99	2	3	1	mem	lib	mod	mod	mod	tg	ht	wh/0348.bmp
78.48	0.72	100	1	2	98	per	lib	low	mod	low	tg	ms	wh/0400.bmp
79.20	0.72	101	1	1	11	per	con	mod	mod	mod	tg	ms	wh/0806.bmp
79.92	0.72	102	1	4	114	mem	con	low	low	mod	tg	ms	wh/0858.bmp
80.64	0.72	103	1	1	124	mem	lib	mod	mod	low	tg	ht	wh/0174.bmp
81.36	0.72	104	1	4	108	per	con	low	mod	low	nt	fa	nh/0263_nh.bmp
82.08	0.72	105	3	2	48	per	con	low	mod	low	nt	cr	nh/0166_nh.bmp
82.80	0.72	106	1	3	69	per	lib	mod	low	mod	tg	ht	wh/0917.bmp
83.52	0.72	107	3	3	9	mem	lib	mod	mod	mod	tg	ht	wh/0674.bmp
84.24	0.72	108	1	4	77	per	lib	mod	mod	mod	nt	cr	nh/0562_nh.bmp
84.96	0.72	109	2	2	6	per	lib	mod	mod	mod	nt	fa	nh/0604_nh.bmp
85.68	0.72	110	1	2	42	per	con	low	mod	low	tg	ms	wh/0081.bmp
86.40	0.72	111	3	4	45	mem	con	mod	mod	mod	tg	ht	wh/0487.bmp
87.12	0.72	112	1	1	81	mem	con	mod	mod	mod	tg	ht	wh/0282.bmp
87.84	0.72	113	1	2	65	mem	lib	low	low	low	tg	ht	wh/0310.bmp
88.56	0.72	114	2	4	74	per	lib	mod	mod	mod	nt	cr	nh/0799_nh.bmp
89.28	0.72	115	2	3	11	mem	lib	mod	mod	mod	tg	ht	wh/0970.bmp
90.00	0.72	116	1	4	11	per	lib	low	low	low	nt	fa	nh/0471_nh.bmp
90.72	0.72	117	2	3	64	per	lib	low	mod	low	tg	ht	wh/0672.bmp
91.44	0.72	118	3	3	49	per	lib	low	mod	low	nt	cr	nh/0302_nh.bmp
92.16	0.72	119	1	3	54	per	lib	low	mod	low	nt	fa	nh/0882_nh.bmp
92.88	0.72	120	3	3	64	per	lib	low	mod	low	tg	ht	wh/0672.bmp
93.60	0.72	121	1	1	94	mem	con	mod	mod	mod	nt	ms	nh/0538_nh.bmp
94.32	0.72	122	1	3	10	mem	lib	mod	mod	mod	nt	ht	nh/0413_nh.bmp
95.04	0.72	123	2	1	94	mem	con	mod	mod	mod	nt	ms	nh/0538_nh.bmp
95.76	0.72	124	2	3	23	per	con	mod	mod	mod	nt	cr	nh/0738_nh.bmp
96.48	0.72	125	3	3	11	mem	lib	mod	mod	mod	tg	ht	wh/0970.bmp
97.20	0.72	126	1	1	58	per	con	low	low	low	tg	ms	wh/0276.bmp
97.92	0.72	127	1	3	12	mem	lib	mod	mod	mod	nt	ht	nh/0104_nh.bmp
98.64	0.72	128	1	3	100	per	con	low	low	low	tg	ht	wh/0078.bmp
99.36	0.72	129	3	4	74	per	lib	mod	mod	mod	nt	cr	nh/0799_nh.bmp
100.08	0.72	130	2	1	11	per	con	mod	mod	mod	tg	ms	wh/0806.bmp
100.80	0.72	131	2	4	65	per	lib	mod	mod	mod	nt	fa	nh/0628_nh.bmp
101.52	0.72	132	2	4	100	per	con	low	mod	low	tg	ms	wh/0765.bmp
102.24	0.72	133	1	3	6	mem	lib	mod	mod	mod	tg	ht	wh/0583.bmp
102.96	0.72	134	1	3	44	mem	con	mod	mod	low	nt	ms	nh/0415_nh.bmp
103.68	0.72	135	1	3	32	per	con	mod	mod	mod	tg	ms	wh/0665.bmp
104.40	0.72	136	1	1	42	per	lib	mod	low	mod	tg	ht	wh/0667.bmp
105.12	0.72	137	3	4	100	per	con	low	mod	low	tg	ms	wh/0765.bmp
105.84	0.72	138	2	2	102	per	lib	low	mod	low	nt	cr	nh/0641_nh.bmp
106.56	0.72	139	2	4	77	per	lib	mod	mod	mod	nt	cr	nh/0562_nh.bmp
107.28	0.72	140	1	2	43	per	con	low	mod	low	nt	cr	nh/0030_nh.bmp
108.00	0.72	141	2	3	54	per	lib	low	mod	low	nt	fa	nh/0882_nh.bmp
108.72	0.72	142	2	2	56	mem	con	mod	mod	low	nt	ms	nh/0291_nh.bmp
109.44	0.72	143	1	3	98	per	con	low	low	low	nt	cr	nh/0989_nh.bmp
110.16	0.72	144	2	3	17	per	con	mod	mod	mod	tg	ms	wh/0645.bmp
110.88	0.72	145	1	4	109	per	con	low	mod	low	tg	ms	wh/0914.bmp
111.60	0.72	146	1	2	3	per	lib	mod	mod	mod	tg	ht	wh/0943.bmp
112.32	0.72	147	2	2	42	per	con	low	mod	low	tg	ms	wh/0081.bmp
113.04	0.72	148	1	1	54	per	con	low	low	low	tg	ms	wh/0743.bmp
113.76	0.72	149	1	2	97	per	lib	low	mod	low	tg	ht	wh/0195.bmp
114.48	0.72	150	1	4	56	mem	lib	mod	mod	low	nt	ms	nh/0511_nh.bmp
115.20	0.72	151	2	1	93	mem	con	mod	mod	mod	nt	ht	nh/0705_nh.bmp
115.92	0.72	152	1	1	23	mem	lib	low	low	mod	tg	ht	wh/0894.bmp
116.64	0.72	153	2	2	54	mem	con	mod	mod	low	tg	ms	wh/0798.bmp
117.36	0.72	154	1	1	113	mem	lib	mod	mod	low	tg	ht	wh/0643.bmp
118.08	0.72	155	1	2	9	per	lib	mod	mod	mod	nt	fa	nh/0931_nh.bmp
118.80	0.72	156	2	3	22	per	con	mod	mod	mod	tg	ht	wh/0279.bmp
119.52	0.72	157	2	3	24	per	con	mod	mod	mod	nt	cr	nh/0137_nh.bmp
120.24	0.72	158	3	2	52	mem	con	mod	mod	low	tg	ms	wh/0424.bmp
120.96	0.72	159	1	2	118	mem	lib	mod	mod	mod	tg	ht	wh/0358.bmp
121.68	0.72	160	1	3	84	mem	con	low	low	low	tg	ms	wh/0107.bmp
122.40	0.72	161	1	2	122	mem	lib	mod	mod	mod	nt	ht	nh/0809_nh.bmp
123.12	0.72	162	2	2	9	per	lib	mod	mod	mod	nt	fa	nh/0931_nh.bmp
123.84	0.72	163	2	3	51	per	lib	low	mod	low	tg	ht	wh/0671.bmp
124.56	0.72	164	4	2	52	mem	con	mod	mod	low	tg	ms	wh/0424.bmp
125.28	0.72	165	1	3	114	mem	lib	low	low	low	nt	ht	nh/0110_nh.bmp
126.00	0.72	166	3	2	42	per	con	low	mod	low	tg	ms	wh/0081.bmp
126.72	0.72	167	2	2	13	per	lib	mod	mod	mod	tg	ht	wh/0427.bmp
127.44	0.72	168	2	2	4	per	lib	mod	mod	mod	nt	cr	nh/0049_nh.bmp
128.16	0.72	169	1	4	46	mem	con	mod	mod	mod	nt	ht	nh/0071_nh.bmp
128.88	0.72	170	1	4	76	per	lib	mod	mod	mod	tg	ht	wh/0097.bmp
129.60	0.72	171	1	4	104	per	con	low	mod	low	nt	cr	nh/0293_nh.bmp
130.32	0.72	172	1	3	34	mem	con	mod	mod	low	nt	ms	nh/0444_nh.bmp
131.04	0.72	173	3	3	54	per	lib	low	mod	low	nt	fa	nh/0882_nh.bmp
131.76	0.72	174	2	3	32	per	con	mod	mod	mod	tg	ms	wh/0665.bmp
132.48	0.72	175	2	2	14	per	lib	mod	mod	mod	tg	ht	wh/0061.bmp
133.20	0.72	176	2	3	10	mem	lib	mod	mod	mod	nt	ht	nh/0413_nh.bmp
133.92	0.72	177	1	3	80	per	lib	mod	low	mod	nt	cr	nh/0723_nh.bmp
134.64	0.72	178	1	2	105	per	lib	low	mod	low	nt	cr	nh/0454_nh.bmp
135.36	0.72	179	2	2	122	mem	lib	mod	mod	mod	nt	ht	nh/0809_nh.bmp
136.08	0.72	180	3	4	33	mem	con	mod	mod	mod	nt	ht	nh/0901_nh.bmp
136.80	0.72	181	1	4	67	per	lib	mod	mod	mod	nt	fa	nh/0333_nh.bmp
137.52	0.72	182	1	1	120	mem	lib	mod	mod	low	nt	ht	nh/0976_nh.bmp
138.24	0.72	183	3	4	42	mem	con	mod	mod	mod	tg	ht	wh/0576.bmp
138.96	0.72	184	2	1	122	mem	lib	mod	mod	low	tg	ht	wh/0067.bmp
139.68	0.72	185	2	2	104	per	lib	low	mod	low	nt	fa	nh/0132_nh.bmp
140.40	0.72	186	1	4	103	per	con	low	mod	low	nt	cr	nh/0412_nh.bmp
141.12	0.72	187	3	1	11	per	con	mod	mod	mod	tg	ms	wh/0806.bmp
141.84	0.72	188	3	2	56	mem	con	mod	mod	low	nt	ms	nh/0291_nh.bmp
142.56	0.72	189	1	2	60	mem	con	mod	mod	low	nt	ms	nh/0523_nh.bmp
143.28	0.72	190	2	2	120	mem	lib	mod	mod	mod	tg	ht	wh/0834.bmp
144.00	0.72	191	4	2	48	per	con	low	mod	low	nt	cr	nh/0166_nh.bmp
144.72	0.72	192	1	2	123	mem	lib	mod	mod	mod	tg	ht	wh/0344.bmp
145.44	0.72	193	1	2	24	per	con	mod	low	mod	nt	cr	nh/0985_nh.bmp
146.16	0.72	194	1	2	47	per	con	low	mod	low	nt	cr	nh/0410_nh.bmp
146.88	0.72	195	1	3	107	per	con	low	low	low	nt	cr	nh/0916_nh.bmp
147.60	0.72	196	4	3	11	mem	lib	mod	mod	mod	tg	ht	wh/0970.bmp
148.32	0.72	197	1	4	68	per	lib	mod	mod	mod	tg	ht	wh/0359.bmp
149.04	0.72	198	3	1	122	mem	lib	mod	mod	low	tg	ht	wh/0067.bmp
149.76	0.72	199	2	2	47	per	con	low	mod	low	nt	cr	nh/0410_nh.bmp
150.48	0.72	200	1	3	77	per	lib	mod	low	mod	nt	fa	nh/0069_nh.bmp
151.20	0.72	201	2	1	120	mem	lib	mod	mod	low	nt	ht	nh/0976_nh.bmp
151.92	0.72	202	2	2	97	per	lib	low	mod	low	tg	ht	wh/0195.bmp
152.64	0.72	203	1	1	86	mem	con	mod	mod	mod	tg	ht	wh/0490.bmp
153.36	0.72	204	1	2	117	mem	lib	mod	mod	mod	nt	ht	nh/0477_nh.bmp
154.08	0.72	205	2	3	34	mem	con	mod	mod	low	nt	ms	nh/0444_nh.bmp
154.80	0.72	206	2	4	40	mem	con	mod	mod	mod	nt	ms	nh/0320_nh.bmp
155.52	0.72	207	3	3	17	per	con	mod	mod	mod	tg	ms	wh/0645.bmp
156.24	0.72	208	1	4	36	mem	con	mod	mod	mod	tg	ms	wh/1010.bmp
156.96	0.72	209	4	4	33	mem	con	mod	mod	mod	nt	ht	nh/0901_nh.bmp
157.68	0.72	210	1	3	62	per	lib	low	mod	low	tg	ht	wh/0422.bmp
158.40	0.72	211	3	1	94	mem	con	mod	mod	mod	nt	ms	nh/0538_nh.bmp
159.12	0.72	212	1	4	2	per	lib	low	low	low	nt	fa	nh/0987_nh.bmp
159.84	0.72	213	2	4	67	per	lib	mod	mod	mod	nt	fa	nh/0333_nh.bmp
160.56	0.72	214	1	3	58	per	lib	low	mod	low	nt	fa	nh/0496_nh.bmp
161.28	0.72	215	1	1	8	per	con	mod	mod	mod	tg	ht	wh/0689.bmp
162.00	0.72	216	4	3	64	per	lib	low	mod	low	tg	ht	wh/0672.bmp
162.72	0.72	217	2	4	104	per	con	low	mod	low	nt	cr	nh/0293_nh.bmp
163.44	0.72	218	2	1	118	mem	lib	mod	mod	low	tg	ht	wh/0757.bmp
164.16	0.72	219	1	2	18	per	con	mod	low	mod	nt	cr	nh/0317_nh.bmp
164.88	0.72	220	2	4	76	per	lib	mod	mod	mod	tg	ht	wh/0097.bmp
165.60	0.72	221	1	3	45	mem	con	mod	mod	low	nt	ms	nh/0312_nh.bmp
166.32	0.72	222	2	2	3	per	lib	mod	mod	mod	tg	ht	wh/0943.bmp
167.04	0.72	223	3	2	99	per	lib	low	mod	low	tg	ms	wh/0283.bmp
167.76	0.72	224	1	4	101	per	con	low	mod	low	tg	ms	wh/0438.bmp
168.48	0.72	225	3	4	65	per	lib	mod	mod	mod	nt	fa	nh/0628_nh.bmp
169.20	0.72	226	3	2	59	mem	con	mod	mod	low	nt	ms	nh/0390_nh.bmp
169.92	0.72	227	2	2	60	mem	con	mod	mod	low	nt	ms	nh/0523_nh.bmp
170.64	0.72	228	2	1	119	mem	lib	mod	mod	low	nt	ht	nh/0792_nh.bmp
171.36	0.72	229	2	2	105	per	lib	low	mod	low	nt	cr	nh/0454_nh.bmp
172.08	0.72	230	3	2	126	mem	lib	mod	mod	mod	nt	ht	nh/0039_nh.bmp
172.80	0.72	231	1	3	30	per	con	mod	mod	mod	nt	cr	nh/0796_nh.bmp
173.52	0.72	232	2	4	56	mem	lib	mod	mod	low	nt	ms	nh/0511_nh.bmp
174.24	0.72	233	1	4	64	mem	lib	mod	mod	low	tg	ht	wh/0323.bmp
174.96	0.72	234	3	2	54	mem	con	mod	mod	low	tg	ms	wh/0798.bmp
175.68	0.72	235	1	1	82	mem	con	mod	mod	mod	nt	ms	nh/0151_nh.bmp
176.40	0.72	236	1	1	88	mem	con	mod	mod	mod	nt	ms	nh/0343_nh.bmp
177.12	0.72	237	3	2	6	per	lib	mod	mod	mod	nt	fa	nh/0604_nh.bmp
177.84	0.72	238	2	3	12	mem	lib	mod	mod	mod	nt	ht	nh/0104_nh.bmp
178.56	0.72	239	1	1	10	per	con	mod	mod	mod	nt	cr	nh/0895_nh.bmp
179.28	0.72	240	1	3	50	per	lib	low	mod	low	tg	ht	wh/0259.bmp
180.00	0.72	241	2	4	36	mem	con	mod	mod	mod	tg	ms	wh/1010.bmp
180.72	0.72	242	2	1	10	per	con	mod	mod	mod	nt	cr	nh/0895_nh.bmp
181.44	0.72	243	5	2	48	per	con	low	mod	low	nt	cr	nh/0166_nh.bmp
182.16	0.72	244	3	2	13	per	lib	mod	mod	mod	tg	ht	wh/0427.bmp
182.88	0.72	245	2	4	46	mem	con	mod	mod	mod	nt	ht	nh/0071_nh.bmp
183.60	0.72	246	3	3	32	per	con	mod	mod	mod	tg	ms	wh/0665.bmp
184.32	0.72	247	1	1	34	per	lib	mod	low	mod	tg	ht	wh/0670.bmp
185.04	0.72	248	1	4	117	mem	con	low	low	mod	tg	ms	wh/0440.bmp
185.76	0.72	249	1	4	119	mem	con	low	low	mod	nt	ms	nh/0547_nh.bmp
186.48	0.72	250	3	2	104	per	lib	low	mod	low	nt	fa	nh/0132_nh.bmp
187.20	0.72	251	2	4	63	mem	lib	mod	mod	low	tg	ht	wh/0386.bmp
187.92	0.72	252	2	1	8	per	con	mod	mod	mod	tg	ht	wh/0689.bmp
188.64	0.72	253	2	4	103	per	con	low	mod	low	nt	cr	nh/0412_nh.bmp
189.36	0.72	254	3	3	47	mem	con	mod	mod	low	tg	ms	wh/0494.bmp
190.08	0.72	255	2	3	33	mem	con	mod	mod	low	tg	ht	wh/0791.bmp
190.80	0.72	256	2	4	50	mem	lib	mod	mod	low	tg	ht	wh/0203.bmp
191.52	0.72	257	2	2	118	mem	lib	mod	mod	mod	tg	ht	wh/0358.bmp
192.24	0.72	258	2	2	117	mem	lib	mod	mod	mod	nt	ht	nh/0477_nh.bmp
192.96	0.72	259	3	4	76	per	lib	mod	mod	mod	tg	ht	wh/0097.bmp
193.68	0.72	260	1	2	57	mem	con	mod	mod	low	tg	ms	wh/0615.bmp
194.40	0.72	261	3	2	3	per	lib	mod	mod	mod	tg	ht	wh/0943.bmp
195.12	0.72	262	3	2	4	per	lib	mod	mod	mod	nt	cr	nh/0049_nh.bmp
195.84	0.72	263	1	2	36	per	con	low	mod	low	nt	cr	nh/0246_nh.bmp
196.56	0.72	264	2	3	6	mem	lib	mod	mod	mod	tg	ht	wh/0583.bmp
197.28	0.72	265	3	3	6	mem	lib	mod	mod	mod	tg	ht	wh/0583.bmp
198.00	0.72	266	2	2	58	mem	con	mod	mod	low	nt	ht	nh/0131_nh.bmp
198.72	0.72	267	4	2	99	per	lib	low	mod	low	tg	ms	wh/0283.bmp
199.44	0.72	268	1	2	71	mem	lib	low	low	low	tg	ht	wh/0271.bmp
200.16	0.72	269	2	2	103	per	lib	low	mod	low	tg	ms	wh/1000.bmp
200.88	0.72	270	1	1	107	per	lib	low	low	low	tg	ht	wh/0720.bmp
201.60	0.72	271	3	4	104	per	con	low	mod	low	nt	cr	nh/0293_nh.bmp
202.32	0.72	272	1	4	58	mem	lib	mod	mod	low	nt	ht	nh/0661_nh.bmp
203.04	0.72	273	1	3	40	mem	con	mod	mod	low	tg	ht	wh/0007.bmp
203.76	0.72	274	2	3	18	per	con	mod	mod	mod	nt	fa	nh/0961_nh.bmp
204.48	0.72	275	2	2	15	per	lib	mod	mod	mod	tg	ms	wh/0072.bmp
205.20	0.72	276	3	2	14	per	lib	mod	mod	mod	tg	ht	wh/0061.bmp
205.92	0.72	277	1	1	109	per	lib	low	low	low	tg	ht	wh/0430.bmp
206.64	0.72	278	2	4	58	mem	lib	mod	mod	low	nt	ht	nh/0661_nh.bmp
207.36	0.72	279	2	3	39	mem	con	mod	mod	low	tg	ht	wh/1013.bmp
208.08	0.72	280	2	1	95	mem	con	mod	mod	mod	tg	ht	wh/0445.bmp
208.80	0.72	281	1	3	63	per	lib	low	mod	low	nt	fa	nh/0212_nh.bmp
209.52	0.72	282	2	3	63	per	lib	low	mod	low	nt	fa	nh/0212_nh.bmp
210.24	0.72	283	3	2	97	per	lib	low	mod	low	tg	ht	wh/0195.bmp
210.96	0.72	284	1	1	126	mem	lib	mod	mod	low	nt	ht	nh/0683_nh.bmp
211.68	0.72	285	4	3	9	mem	lib	mod	mod	mod	tg	ht	wh/0674.bmp
212.40	0.72	286	2	4	72	per	lib	mod	mod	mod	tg	ht	wh/0331.bmp
213.12	0.72	287	2	1	81	mem	con	mod	mod	mod	tg	ht	wh/0282.bmp
213.84	0.72	288	4	2	4	per	lib	mod	mod	mod	nt	cr	nh/0049_nh.bmp
214.56	0.72	289	1	2	88	mem	con	low	low	mod	nt	ht	nh/0457_nh.bmp
215.28	0.72	290	3	4	46	mem	con	mod	mod	mod	nt	ht	nh/0071_nh.bmp
216.00	0.72	291	2	2	124	mem	lib	mod	mod	mod	nt	ht	nh/0861_nh.bmp
216.72	0.72	292	4	2	13	per	lib	mod	mod	mod	tg	ht	wh/0427.bmp
217.44	0.72	293	4	4	76	per	lib	mod	mod	mod	tg	ht	wh/0097.bmp
218.16	0.72	294	1	3	81	mem	con	low	low	low	tg	ms	wh/0828.bmp
218.88	0.72	295	3	3	10	mem	lib	mod	mod	mod	nt	ht	nh/0413_nh.bmp
219.60	0.72	296	3	2	58	mem	con	mod	mod	low	nt	ht	nh/0131_nh.bmp
220.32	0.72	297	3	1	95	mem	con	mod	mod	mod	tg	ht	wh/0445.bmp
221.04	0.72	298	3	4	77	per	lib	mod	mod	mod	nt	cr	nh/0562_nh.bmp
221.76	0.72	299	2	2	113	mem	lib	mod	mod	mod	tg	ms	wh/0759.bmp
222.48	0.72	300	3	2	60	mem	con	mod	mod	low	nt	ms	nh/0523_nh.bmp
223.20	0.72	301	5	2	4	per	lib	mod	mod	mod	nt	cr	nh/0049_nh.bmp
223.92	0.72	302	1	3	76	per	lib	mod	low	mod	tg	ht	wh/0811.bmp
224.64	0.72	303	3	3	51	per	lib	low	mod	low	tg	ht	wh/0671.bmp
225.36	0.72	304	1	1	73	mem	con	low	low	low	tg	ms	wh/0500.bmp
226.08	0.72	305	2	4	68	per	lib	mod	mod	mod	tg	ht	wh/0359.bmp
226.80	0.72	306	2	3	16	mem	lib	mod	mod	mod	nt	ht	nh/0983_nh.bmp
227.52	0.72	307	4	3	54	per	lib	low	mod	low	nt	fa	nh/0882_nh.bmp
228.24	0.72	308	3	3	16	mem	lib	mod	mod	mod	nt	ht	nh/0983_nh.bmp
228.96	0.72	309	1	1	83	mem	con	mod	mod	mod	tg	ht	wh/0753.bmp
229.68	0.72	310	5	3	9	mem	lib	mod	mod	mod	tg	ht	wh/0674.bmp
230.40	0.72	311	2	3	44	mem	con	mod	mod	low	nt	ms	nh/0415_nh.bmp
231.12	0.72	312	3	4	58	mem	lib	mod	mod	low	nt	ht	nh/0661_nh.bmp
231.84	0.72	313	3	3	44	mem	con	mod	mod	low	nt	ms	nh/0415_nh.bmp
232.56	0.72	314	3	3	24	per	con	mod	mod	mod	nt	cr	nh/0137_nh.bmp
233.28	0.72	315	3	1	93	mem	con	mod	mod	mod	nt	ht	nh/0705_nh.bmp
234.00	0.72	316	5	3	11	mem	lib	mod	mod	mod	tg	ht	wh/0970.bmp
234.72	0.72	317	1	2	51	mem	con	mod	mod	low	tg	ht	wh/0236.bmp
235.44	0.72	318	3	1	119	mem	lib	mod	mod	low	nt	ht	nh/0792_nh.bmp
236.16	0.72	319	3	2	15	per	lib	mod	mod	mod	tg	ms	wh/0072.bmp
236.88	0.72	320	1	1	62	per	con	low	low	low	tg	ms	wh/0819.bmp
237.60	0.72	321	4	2	97	per	lib	low	mod	low	tg	ht	wh/0195.bmp
238.32	0.72	322	3	3	18	per	con	mod	mod	mod	nt	fa	nh/0961_nh.bmp
239.04	0.72	323	3	4	55	mem	lib	mod	mod	low	tg	ht	wh/0368.bmp
239.76	0.72	324	6	2	4	per	lib	mod	mod	mod	nt	cr	nh/0049_nh.bmp
240.48	0.72	325	2	3	62	per	lib	low	mod	low	tg	ht	wh/0422.bmp
241.20	0.72	326	3	4	63	mem	lib	mod	mod	low	tg	ht	wh/0386.bmp
241.92	0.72	327	1	3	89	mem	con	low	low	low	tg	ht	wh/0504.bmp
242.64	0.72	328	2	3	40	mem	con	mod	mod	low	tg	ht	wh/0007.bmp
243.36	0.72	329	1	1	2	per	con	mod	mod	mod	nt	cr	nh/0448_nh.bmp
244.08	0.72	330	5	2	99	per	lib	low	mod	low	tg	ms	wh/0283.bmp
244.80	0.72	331	4	2	104	per	lib	low	mod	low	nt	fa	nh/0132_nh.bmp
245.52	0.72	332	2	1	1	per	con	mod	mod	mod	nt	cr	nh/0229_nh.bmp
246.24	0.72	333	4	3	44	mem	con	mod	mod	low	nt	ms	nh/0415_nh.bmp
246.96	0.72	334	3	4	67	per	lib	mod	mod	mod	nt	fa	nh/0333_nh.bmp
247.68	0.72	335	2	1	2	per	con	mod	mod	mod	nt	cr	nh/0448_nh.bmp
248.40	0.72	336	4	2	42	per	con	low	mod	low	tg	ms	wh/0081.bmp
249.12	0.72	337	5	4	33	mem	con	mod	mod	mod	nt	ht	nh/0901_nh.bmp
249.84	0.72	338	3	3	39	mem	con	mod	mod	low	tg	ht	wh/1013.bmp
250.56	0.72	339	4	4	63	mem	lib	mod	mod	low	tg	ht	wh/0386.bmp
251.28	0.72	340	5	3	64	per	lib	low	mod	low	tg	ht	wh/0672.bmp
252.00	0.72	341	2	2	43	per	con	low	mod	low	nt	cr	nh/0030_nh.bmp
252.72	0.72	342	2	3	30	per	con	mod	mod	mod	nt	cr	nh/0796_nh.bmp
253.44	0.72	343	2	3	2	mem	lib	mod	mod	mod	nt	ht	nh/0761_nh.bmp
254.16	0.72	344	2	2	112	per	lib	low	mod	low	nt	fa	nh/0703_nh.bmp
254.88	0.72	345	1	2	37	per	con	low	mod	low	tg	ms	wh/0509.bmp
255.60	0.72	346	1	2	27	per	con	mod	low	mod	tg	ht	wh/0498.bmp
256.32	0.72	347	3	3	23	per	con	mod	mod	mod	nt	cr	nh/0738_nh.bmp
257.04	0.72	348	3	1	8	per	con	mod	mod	mod	tg	ht	wh/0689.bmp
257.76	0.72	349	4	3	16	mem	lib	mod	mod	mod	nt	ht	nh/0983_nh.bmp
258.48	0.72	350	2	2	37	per	con	low	mod	low	tg	ms	wh/0509.bmp
259.20	0.72	351	1	1	5	per	con	mod	mod	mod	tg	ht	wh/0479.bmp
259.92	0.72	352	4	2	126	mem	lib	mod	mod	mod	nt	ht	nh/0039_nh.bmp
260.64	0.72	353	4	1	93	mem	con	mod	mod	mod	nt	ht	nh/0705_nh.bmp
261.36	0.72	354	1	3	36	mem	con	mod	mod	low	nt	ht	nh/0295_nh.bmp
262.08	0.72	355	5	4	63	mem	lib	mod	mod	low	tg	ht	wh/0386.bmp
262.80	0.72	356	1	3	118	mem	lib	low	low	low	nt	ht	nh/0327_nh.bmp
263.52	0.72	357	2	4	64	mem	lib	mod	mod	low	tg	ht	wh/0323.bmp
264.24	0.72	358	3	2	117	mem	lib	mod	mod	mod	nt	ht	nh/0477_nh.bmp
264.96	0.72	359	5	4	76	per	lib	mod	mod	mod	tg	ht	wh/0097.bmp
265.68	0.72	360	3	4	56	mem	lib	mod	mod	low	nt	ms	nh/0511_nh.bmp
266.40	0.72	361	2	4	80	per	lib	mod	mod	mod	tg	ht	wh/0313.bmp
267.12	0.72	362	3	4	103	per	con	low	mod	low	nt	cr	nh/0412_nh.bmp
267.84	0.72	363	3	4	50	mem	lib	mod	mod	low	tg	ht	wh/0203.bmp
268.56	0.72	364	2	3	58	per	lib	low	mod	low	nt	fa	nh/0496_nh.bmp
269.28	0.72	365	5	2	13	per	lib	mod	mod	mod	tg	ht	wh/0427.bmp
270.00	0.72	366	3	3	30	per	con	mod	mod	mod	nt	cr	nh/0796_nh.bmp
270.72	0.72	367	2	2	57	mem	con	mod	mod	low	tg	ms	wh/0615.bmp
271.44	0.72	368	4	2	6	per	lib	mod	mod	mod	nt	fa	nh/0604_nh.bmp
272.16	0.72	369	1	4	12	per	lib	low	low	low	tg	ht	wh/0375.bmp
272.88	0.72	370	1	4	99	per	con	low	mod	low	nt	cr	nh/0459_nh.bmp
273.60	0.72	371	3	1	1	per	con	mod	mod	mod	nt	cr	nh/0229_nh.bmp
274.32	0.72	372	4	2	56	mem	con	mod	mod	low	nt	ms	nh/0291_nh.bmp
275.04	0.72	373	4	4	56	mem	lib	mod	mod	low	nt	ms	nh/0511_nh.bmp
275.76	0.72	374	3	2	102	per	lib	low	mod	low	nt	cr	nh/0641_nh.bmp
276.48	0.72	375	4	3	17	per	con	mod	mod	mod	tg	ms	wh/0645.bmp
277.20	0.72	376	2	4	109	per	con	low	mod	low	tg	ms	wh/0914.bmp
277.92	0.72	377	2	1	5	per	con	mod	mod	mod	tg	ht	wh/0479.bmp
278.64	0.72	378	4	3	51	per	lib	low	mod	low	tg	ht	wh/0671.bmp
279.36	0.72	379	1	1	78	mem	con	low	low	low	tg	ht	wh/0713.bmp
280.08	0.72	380	3	2	118	mem	lib	mod	mod	mod	tg	ht	wh/0358.bmp
280.80	0.72	381	4	4	42	mem	con	mod	mod	mod	tg	ht	wh/0576.bmp
281.52	0.72	382	1	2	94	mem	con	low	low	mod	tg	ms	wh/0409.bmp
282.24	0.72	383	6	4	63	mem	lib	mod	mod	low	tg	ht	wh/0386.bmp
282.96	0.72	384	3	1	118	mem	lib	mod	mod	low	tg	ht	wh/0757.bmp
283.68	0.72	385	4	2	58	mem	con	mod	mod	low	nt	ht	nh/0131_nh.bmp
284.40	0.72	386	1	1	48	per	lib	mod	low	mod	nt	cr	nh/0557_nh.bmp
285.12	0.72	387	4	4	100	per	con	low	mod	low	tg	ms	wh/0765.bmp
285.84	0.72	388	2	2	98	per	lib	low	mod	low	tg	ms	wh/0400.bmp
286.56	0.72	389	2	4	51	mem	lib	mod	mod	low	nt	ht	nh/0124_nh.bmp
287.28	0.72	390	4	1	122	mem	lib	mod	mod	low	tg	ht	wh/0067.bmp
288.00	0.72	391	4	2	102	per	lib	low	mod	low	nt	cr	nh/0641_nh.bmp
288.72	0.72	392	3	1	5	per	con	mod	mod	mod	tg	ht	wh/0479.bmp
289.44	0.72	393	6	3	64	per	lib	low	mod	low	tg	ht	wh/0672.bmp
290.16	0.72	394	3	2	37	per	con	low	mod	low	tg	ms	wh/0509.bmp
290.88	0.72	395	3	1	2	per	con	mod	mod	mod	nt	cr	nh/0448_nh.bmp
291.60	0.72	396	3	4	68	per	lib	mod	mod	mod	tg	ht	wh/0359.bmp
292.32	0.72	397	3	2	103	per	lib	low	mod	low	tg	ms	wh/1000.bmp
293.04	0.72	398	3	2	112	per	lib	low	mod	low	nt	fa	nh/0703_nh.bmp
293.76	0.72	399	2	2	36	per	con	low	mod	low	nt	cr	nh/0246_nh.bmp
294.48	0.72	400	3	2	57	mem	con	mod	mod	low	tg	ms	wh/0615.bmp
295.20	0.72	401	4	2	57	mem	con	mod	mod	low	tg	ms	wh/0615.bmp
295.92	0.72	402	3	4	80	per	lib	mod	mod	mod	tg	ht	wh/0313.bmp
296.64	0.72	403	3	4	51	mem	lib	mod	mod	low	nt	ht	nh/0124_nh.bmp
297.36	0.72	404	5	2	6	per	lib	mod	mod	mod	nt	fa	nh/0604_nh.bmp
298.08	0.72	405	1	4	21	mem	lib	low	low	mod	tg	ht	wh/0555.bmp
298.80	0.72	406	4	4	77	per	lib	mod	mod	mod	nt	cr	nh/0562_nh.bmp
299.52	0.72	407	3	4	40	mem	con	mod	mod	mod	nt	ms	nh/0320_nh.bmp
300.24	0.72	408	4	4	103	per	con	low	mod	low	nt	cr	nh/0412_nh.bmp
300.96	0.72	409	3	3	12	mem	lib	mod	mod	mod	nt	ht	nh/0104_nh.bmp
301.68	0.72	410	1	3	124	mem	lib	low	low	low	tg	ht	wh/0161.bmp
302.40	0.72	411	1	1	36	per	lib	mod	low	mod	nt	cr	nh/0606_nh.bmp
303.12	0.72	412	3	2	124	mem	lib	mod	mod	mod	nt	ht	nh/0861_nh.bmp
303.84	0.72	413	4	3	32	per	con	mod	mod	mod	tg	ms	wh/0665.bmp
304.56	0.72	414	3	2	34	per	con	low	mod	low	tg	ms	wh/0575.bmp
305.28	0.72	415	4	2	14	per	lib	mod	mod	mod	tg	ht	wh/0061.bmp
306.00	0.72	416	2	4	101	per	con	low	mod	low	tg	ms	wh/0438.bmp
306.72	0.72	417	1	2	92	mem	con	low	low	mod	tg	ms	wh/0474.bmp
307.44	0.72	418	4	3	47	mem	con	mod	mod	low	tg	ms	wh/0494.bmp
308.16	0.72	419	3	1	12	per	con	mod	mod	mod	nt	n/a	nh/0664_nh.bmp
308.88	0.72	420	2	2	123	mem	lib	mod	mod	mod	tg	ht	wh/0344.bmp
309.60	0.72	421	3	4	64	mem	lib	mod	mod	low	tg	ht	wh/0323.bmp
310.32	0.72	422	5	1	93	mem	con	mod	mod	mod	nt	ht	nh/0705_nh.bmp
311.04	0.72	423	1	3	85	mem	con	low	low	low	nt	ms	nh/0211_nh.bmp
311.76	0.72	424	1	1	13	per	con	mod	mod	mod	tg	ht	wh/0592.bmp
312.48	0.72	425	1	1	32	mem	lib	low	low	mod	nt	ht	nh/0004_nh.bmp
313.20	0.72	426	4	1	118	mem	lib	mod	mod	low	tg	ht	wh/0757.bmp
313.92	0.72	427	3	4	101	per	con	low	mod	low	tg	ms	wh/0438.bmp
314.64	0.72	428	4	2	54	mem	con	mod	mod	low	tg	ms	wh/0798.bmp
315.36	0.72	429	2	1	126	mem	lib	mod	mod	low	nt	ht	nh/0683_nh.bmp
316.08	0.72	430	2	1	82	mem	con	mod	mod	mod	nt	ms	nh/0151_nh.bmp
316.80	0.72	431	1	2	84	mem	con	low	low	mod	tg	ms	wh/0201.bmp
317.52	0.72	432	5	2	56	mem	con	mod	mod	low	nt	ms	nh/0291_nh.bmp
318.24	0.72	433	3	3	33	mem	con	mod	mod	low	tg	ht	wh/0791.bmp
318.96	0.72	434	3	1	127	mem	lib	mod	mod	low	nt	ht	nh/0512_nh.bmp
319.68	0.72	435	2	3	36	mem	con	mod	mod	low	nt	ht	nh/0295_nh.bmp
320.40	0.72	436	4	2	60	mem	con	mod	mod	low	nt	ms	nh/0523_nh.bmp
321.12	0.72	437	3	2	120	mem	lib	mod	mod	mod	tg	ht	wh/0834.bmp
321.84	0.72	438	2	3	45	mem	con	mod	mod	low	nt	ms	nh/0312_nh.bmp
322.56	0.72	439	3	3	1	mem	lib	mod	mod	mod	tg	ht	wh/0348.bmp
323.28	0.72	440	5	3	47	mem	con	mod	mod	low	tg	ms	wh/0494.bmp
324.00	0.72	441	3	2	113	mem	lib	mod	mod	mod	tg	ms	wh/0759.bmp
324.72	0.72	442	3	1	126	mem	lib	mod	mod	low	nt	ht	nh/0683_nh.bmp
325.44	0.72	443	3	3	31	per	con	mod	mod	mod	tg	ht	wh/0925.bmp
326.16	0.72	444	5	2	54	mem	con	mod	mod	low	tg	ms	wh/0798.bmp
326.88	0.72	445	1	2	21	per	con	mod	low	mod	tg	ms	wh/0826.bmp
327.60	0.72	446	3	2	105	per	lib	low	mod	low	nt	cr	nh/0454_nh.bmp
328.32	0.72	447	1	4	27	mem	lib	low	low	mod	nt	ht	nh/0470_nh.bmp
329.04	0.72	448	4	4	40	mem	con	mod	mod	mod	nt	ms	nh/0320_nh.bmp
329.76	0.72	449	1	1	112	per	lib	low	low	low	nt	fa	nh/0127_nh.bmp
330.48	0.72	450	4	2	15	per	lib	mod	mod	mod	tg	ms	wh/0072.bmp
331.20	0.72	451	5	1	118	mem	lib	mod	mod	low	tg	ht	wh/0757.bmp
331.92	0.72	452	5	4	56	mem	lib	mod	mod	low	nt	ms	nh/0511_nh.bmp
332.64	0.72	453	4	2	3	per	lib	mod	mod	mod	tg	ht	wh/0943.bmp
333.36	0.72	454	1	4	128	mem	con	low	low	mod	tg	ms	wh/0886.bmp
334.08	0.72	455	6	2	48	per	con	low	mod	low	nt	cr	nh/0166_nh.bmp
334.80	0.72	456	4	2	34	per	con	low	mod	low	tg	ms	wh/0575.bmp
335.52	0.72	457	1	2	72	mem	lib	low	low	low	tg	ht	wh/0021.bmp
336.24	0.72	458	3	3	22	per	con	mod	mod	mod	tg	ht	wh/0279.bmp
336.96	0.72	459	5	2	3	per	lib	mod	mod	mod	tg	ht	wh/0943.bmp
337.68	0.72	460	4	4	60	mem	lib	mod	mod	low	nt	ht	nh/0988_nh.bmp
338.40	0.72	461	1	3	127	mem	lib	low	low	low	tg	ht	wh/0167.bmp
339.12	0.72	462	3	2	45	per	con	low	mod	low	tg	ms	wh/0315.bmp
339.84	0.72	463	4	1	119	mem	lib	mod	mod	low	nt	ht	nh/0792_nh.bmp
340.56	0.72	464	3	1	120	mem	lib	mod	mod	low	nt	ht	nh/0976_nh.bmp
341.28	0.72	465	5	3	51	per	lib	low	mod	low	tg	ht	wh/0671.bmp
342.00	0.72	466	4	3	23	per	con	mod	mod	mod	nt	cr	nh/0738_nh.bmp
342.72	0.72	467	5	3	32	per	con	mod	mod	mod	tg	ms	wh/0665.bmp
343.44	0.72	468	4	1	2	per	con	mod	mod	mod	nt	cr	nh/0448_nh.bmp
344.16	0.72	469	3	3	58	per	lib	low	mod	low	nt	fa	nh/0496_nh.bmp
344.88	0.72	470	3	4	72	per	lib	mod	mod	mod	tg	ht	wh/0331.bmp
345.60	0.72	471	3	3	40	mem	con	mod	mod	low	tg	ht	wh/0007.bmp
346.32	0.72	472	3	4	39	mem	con	mod	mod	mod	tg	ht	wh/1006.bmp
347.04	0.72	473	6	1	93	mem	con	mod	mod	mod	nt	ht	nh/0705_nh.bmp
347.76	0.72	474	1	1	52	per	con	low	low	low	nt	cr	nh/0824_nh.bmp
348.48	0.72	475	5	4	77	per	lib	mod	mod	mod	nt	cr	nh/0562_nh.bmp
349.20	0.72	476	4	2	103	per	lib	low	mod	low	tg	ms	wh/1000.bmp
349.92	0.72	477	1	4	30	mem	lib	low	low	mod	tg	ht	wh/0502.bmp
350.64	0.72	478	5	4	40	mem	con	mod	mod	mod	nt	ms	nh/0320_nh.bmp
351.36	0.72	479	4	3	22	per	con	mod	mod	mod	tg	ht	wh/0279.bmp
352.08	0.72	480	3	2	47	per	con	low	mod	low	nt	cr	nh/0410_nh.bmp
352.80	0.72	481	3	1	82	mem	con	mod	mod	mod	nt	ms	nh/0151_nh.bmp
353.52	0.72	482	4	4	67	per	lib	mod	mod	mod	nt	fa	nh/0333_nh.bmp
354.24	0.72	483	4	4	74	per	lib	mod	mod	mod	nt	cr	nh/0799_nh.bmp
354.96	0.72	484	2	1	13	per	con	mod	mod	mod	tg	ht	wh/0592.bmp
355.68	0.72	485	4	1	126	mem	lib	mod	mod	low	nt	ht	nh/0683_nh.bmp
356.40	0.72	486	4	3	39	mem	con	mod	mod	low	tg	ht	wh/1013.bmp
357.12	0.72	487	4	2	37	per	con	low	mod	low	tg	ms	wh/0509.bmp
357.84	0.72	488	1	1	75	mem	con	low	low	low	tg	ms	wh/0171.bmp
358.56	0.72	489	3	2	98	per	lib	low	mod	low	tg	ms	wh/0400.bmp
359.28	0.72	490	1	1	66	mem	con	low	low	low	nt	ht	nh/0026_nh.bmp
360.00	0.72	491	4	4	46	mem	con	mod	mod	mod	nt	ht	nh/0071_nh.bmp
360.72	0.72	492	6	4	33	mem	con	mod	mod	mod	nt	ht	nh/0901_nh.bmp
361.44	0.72	493	4	3	31	per	con	mod	mod	mod	tg	ht	wh/0925.bmp
362.16	0.72	494	2	1	124	mem	lib	mod	mod	low	tg	ht	wh/0174.bmp
362.88	0.72	495	4	1	8	per	con	mod	mod	mod	tg	ht	wh/0689.bmp
363.60	0.72	496	3	2	9	per	lib	mod	mod	mod	nt	fa	nh/0931_nh.bmp
364.32	0.72	497	5	2	104	per	lib	low	mod	low	nt	fa	nh/0132_nh.bmp
365.04	0.72	498	4	4	80	per	lib	mod	mod	mod	tg	ht	wh/0313.bmp
365.76	0.72	499	5	2	102	per	lib	low	mod	low	nt	cr	nh/0641_nh.bmp
366.48	0.72	500	4	2	120	mem	lib	mod	mod	mod	tg	ht	wh/0834.bmp
367.20	0.72	501	5	3	17	per	con	mod	mod	mod	tg	ms	wh/0645.bmp
367.92	0.72	502	5	2	57	mem	con	mod	mod	low	tg	ms	wh/0615.bmp
368.64	0.72	503	4	2	98	per	lib	low	mod	low	tg	ms	wh/0400.bmp
369.36	0.72	504	4	3	49	per	lib	low	mod	low	nt	cr	nh/0302_nh.bmp
370.08	0.72	505	1	4	20	mem	lib	low	low	mod	nt	ht	nh/0913_nh.bmp
370.80	0.72	506	3	3	62	per	lib	low	mod	low	tg	ht	wh/0422.bmp
371.52	0.72	507	2	1	83	mem	con	mod	mod	mod	tg	ht	wh/0753.bmp
372.24	0.72	508	2	2	51	mem	con	mod	mod	low	tg	ht	wh/0236.bmp
372.96	0.72	509	4	4	64	mem	lib	mod	mod	low	tg	ht	wh/0323.bmp
373.68	0.72	510	4	2	45	per	con	low	mod	low	tg	ms	wh/0315.bmp
374.40	0.72	511	1	4	31	mem	lib	low	low	mod	nt	ht	nh/0208_nh.bmp
375.12	0.72	512	4	2	9	per	lib	mod	mod	mod	nt	fa	nh/0931_nh.bmp
375.84	0.72	513	3	1	10	per	con	mod	mod	mod	nt	cr	nh/0895_nh.bmp
376.56	0.72	514	4	2	59	mem	con	mod	mod	low	nt	ms	nh/0390_nh.bmp
377.28	0.72	515	4	3	6	mem	lib	mod	mod	mod	tg	ht	wh/0583.bmp
378.00	0.72	516	4	3	24	per	con	mod	mod	mod	nt	cr	nh/0137_nh.bmp
378.72	0.72	517	3	2	123	mem	lib	mod	mod	mod	tg	ht	wh/0344.bmp
379.44	0.72	518	4	2	113	mem	lib	mod	mod	mod	tg	ms	wh/0759.bmp
380.16	0.72	519	3	3	45	mem	con	mod	mod	low	nt	ms	nh/0312_nh.bmp
380.88	0.72	520	4	4	55	mem	lib	mod	mod	low	tg	ht	wh/0368.bmp
381.60	0.72	521	3	3	34	mem	con	mod	mod	low	nt	ms	nh/0444_nh.bmp
382.32	0.72	522	5	4	64	mem	lib	mod	mod	low	tg	ht	wh/0323.bmp
383.04	0.72	523	5	1	119	mem	lib	mod	mod	low	nt	ht	nh/0792_nh.bmp
383.76	0.72	524	6	2	102	per	lib	low	mod	low	nt	cr	nh/0641_nh.bmp
384.48	0.72	525	3	4	105	per	con	low	mod	low	tg	ms	wh/0554.bmp
385.20	0.72	526	6	3	51	per	lib	low	mod	low	tg	ht	wh/0671.bmp
385.92	0.72	527	4	1	5	per	con	mod	mod	mod	tg	ht	wh/0479.bmp
386.64	0.72	528	3	1	124	mem	lib	mod	mod	low	tg	ht	wh/0174.bmp
387.36	0.72	529	5	4	55	mem	lib	mod	mod	low	tg	ht	wh/0368.bmp
388.08	0.72	530	4	1	11	per	con	mod	mod	mod	tg	ms	wh/0806.bmp
388.80	0.72	531	2	3	50	per	lib	low	mod	low	tg	ht	wh/0259.bmp
389.52	0.72	532	5	4	46	mem	con	mod	mod	mod	nt	ht	nh/0071_nh.bmp
390.24	0.72	533	5	4	67	per	lib	mod	mod	mod	nt	fa	nh/0333_nh.bmp
390.96	0.72	534	4	1	10	per	con	mod	mod	mod	nt	cr	nh/0895_nh.bmp
391.68	0.72	535	2	4	47	mem	con	mod	mod	mod	nt	ht	nh/0742_nh.bmp
392.40	0.72	536	5	2	59	mem	con	mod	mod	low	nt	ms	nh/0390_nh.bmp
393.12	0.72	537	5	4	100	per	con	low	mod	low	tg	ms	wh/0765.bmp
393.84	0.72	538	4	1	12	per	con	mod	mod	mod	nt	n/a	nh/0664_nh.bmp
394.56	0.72	539	4	3	58	per	lib	low	mod	low	nt	fa	nh/0496_nh.bmp
395.28	0.72	540	3	2	2	per	lib	mod	mod	mod	nt	cr	nh/0365_nh.bmp
396.00	0.72	541	5	2	14	per	lib	mod	mod	mod	tg	ht	wh/0061.bmp
396.72	0.72	542	6	4	100	per	con	low	mod	low	tg	ms	wh/0765.bmp
397.44	0.72	543	5	4	103	per	con	low	mod	low	nt	cr	nh/0412_nh.bmp
398.16	0.72	544	4	1	95	mem	con	mod	mod	mod	tg	ht	wh/0445.bmp
398.88	0.72	545	4	4	72	per	lib	mod	mod	mod	tg	ht	wh/0331.bmp
399.60	0.72	546	4	3	30	per	con	mod	mod	mod	nt	cr	nh/0796_nh.bmp
400.32	0.72	547	5	2	15	per	lib	mod	mod	mod	tg	ms	wh/0072.bmp
401.04	0.72	548	2	1	86	mem	con	mod	mod	mod	tg	ht	wh/0490.bmp
401.76	0.72	549	1	3	97	per	con	low	low	low	tg	ht	wh/0535.bmp
402.48	0.72	550	4	1	82	mem	con	mod	mod	mod	nt	ms	nh/0151_nh.bmp
403.20	0.72	551	1	2	70	mem	lib	low	low	low	nt	ht	nh/0484_nh.bmp
403.92	0.72	552	2	1	88	mem	con	mod	mod	mod	nt	ms	nh/0343_nh.bmp
404.64	0.72	553	2	1	113	mem	lib	mod	mod	low	tg	ht	wh/0643.bmp
405.36	0.72	554	3	1	13	per	con	mod	mod	mod	tg	ht	wh/0592.bmp
406.08	0.72	555	4	3	18	per	con	mod	mod	mod	nt	fa	nh/0961_nh.bmp
406.80	0.72	556	4	1	120	mem	lib	mod	mod	low	nt	ht	nh/0976_nh.bmp
407.52	0.72	557	3	2	43	per	con	low	mod	low	nt	cr	nh/0030_nh.bmp
408.24	0.72	558	5	2	120	mem	lib	mod	mod	mod	tg	ht	wh/0834.bmp
408.96	0.72	559	4	4	51	mem	lib	mod	mod	low	nt	ht	nh/0124_nh.bmp
409.68	0.72	560	4	4	39	mem	con	mod	mod	mod	tg	ht	wh/1006.bmp
410.40	0.72	561	3	2	51	mem	con	mod	mod	low	tg	ht	wh/0236.bmp
411.12	0.72	562	5	3	44	mem	con	mod	mod	low	nt	ms	nh/0415_nh.bmp
411.84	0.72	563	5	4	72	per	lib	mod	mod	mod	tg	ht	wh/0331.bmp
412.56	0.72	564	3	3	63	per	lib	low	mod	low	nt	fa	nh/0212_nh.bmp
413.28	0.72	565	5	2	52	mem	con	mod	mod	low	tg	ms	wh/0424.bmp
414.00	0.72	566	4	4	68	per	lib	mod	mod	mod	tg	ht	wh/0359.bmp
414.72	0.72	567	4	3	40	mem	con	mod	mod	low	tg	ht	wh/0007.bmp
415.44	0.72	568	5	1	2	per	con	mod	mod	mod	nt	cr	nh/0448_nh.bmp
416.16	0.72	569	2	4	108	per	con	low	mod	low	nt	fa	nh/0263_nh.bmp
416.88	0.72	570	1	1	37	per	lib	mod	low	mod	nt	cr	nh/0993_nh.bmp
417.60	0.72	571	5	3	16	mem	lib	mod	mod	mod	nt	ht	nh/0983_nh.bmp
418.32	0.72	572	3	4	108	per	con	low	mod	low	nt	fa	nh/0263_nh.bmp
419.04	0.72	573	5	2	42	per	con	low	mod	low	tg	ms	wh/0081.bmp
419.76	0.72	574	6	2	99	per	lib	low	mod	low	tg	ms	wh/0283.bmp
420.48	0.72	575	3	2	36	per	con	low	mod	low	nt	cr	nh/0246_nh.bmp
421.20	0.72	576	5	1	82	mem	con	mod	mod	mod	nt	ms	nh/0151_nh.bmp
421.92	0.72	577	6	4	56	mem	lib	mod	mod	low	nt	ms	nh/0511_nh.bmp
422.64	0.72	578	5	4	51	mem	lib	mod	mod	low	nt	ht	nh/0124_nh.bmp
423.36	0.72	579	4	1	94	mem	con	mod	mod	mod	nt	ms	nh/0538_nh.bmp
424.08	0.72	580	5	1	5	per	con	mod	mod	mod	tg	ht	wh/0479.bmp
424.80	0.72	581	4	4	105	per	con	low	mod	low	tg	ms	wh/0554.bmp
425.52	0.72	582	4	4	104	per	con	low	mod	low	nt	cr	nh/0293_nh.bmp
426.24	0.72	583	5	1	12	per	con	mod	mod	mod	nt	n/a	nh/0664_nh.bmp
426.96	0.72	584	5	4	39	mem	con	mod	mod	mod	tg	ht	wh/1006.bmp
427.68	0.72	585	6	4	39	mem	con	mod	mod	mod	tg	ht	wh/1006.bmp
428.40	0.72	586	5	1	94	mem	con	mod	mod	mod	nt	ms	nh/0538_nh.bmp
429.12	0.72	587	5	3	23	per	con	mod	mod	mod	nt	cr	nh/0738_nh.bmp
429.84	0.72	588	1	1	33	per	lib	mod	low	mod	tg	ht	wh/0539.bmp
430.56	0.72	589	4	4	108	per	con	low	mod	low	nt	fa	nh/0263_nh.bmp
431.28	0.72	590	5	3	22	per	con	mod	mod	mod	tg	ht	wh/0279.bmp
432.00	0.72	591	3	4	36	mem	con	mod	mod	mod	tg	ms	wh/1010.bmp
432.72	0.72	592	3	1	81	mem	con	mod	mod	mod	tg	ht	wh/0282.bmp
433.44	0.72	593	6	4	77	per	lib	mod	mod	mod	nt	cr	nh/0562_nh.bmp
434.16	0.72	594	5	2	103	per	lib	low	mod	low	tg	ms	wh/1000.bmp
434.88	0.72	595	4	3	62	per	lib	low	mod	low	tg	ht	wh/0422.bmp
435.60	0.72	596	5	4	105	per	con	low	mod	low	tg	ms	wh/0554.bmp
436.32	0.72	597	1	3	113	mem	lib	low	low	low	tg	ht	wh/0010.bmp
437.04	0.72	598	5	3	58	per	lib	low	mod	low	nt	fa	nh/0496_nh.bmp
437.76	0.72	599	2	4	99	per	con	low	mod	low	nt	cr	nh/0459_nh.bmp
438.48	0.72	600	1	4	118	mem	con	low	low	mod	nt	ht	nh/0950_nh.bmp
439.20	0.72	601	5	1	10	per	con	mod	mod	mod	nt	cr	nh/0895_nh.bmp
439.92	0.72	602	5	1	8	per	con	mod	mod	mod	tg	ht	wh/0689.bmp
440.64	0.72	603	1	1	50	per	con	low	low	low	nt	cr	nh/1003_nh.bmp
441.36	0.72	604	3	1	88	mem	con	mod	mod	mod	nt	ms	nh/0343_nh.bmp
442.08	0.72	605	3	2	122	mem	lib	mod	mod	mod	nt	ht	nh/0809_nh.bmp
442.80	0.72	606	5	3	39	mem	con	mod	mod	low	tg	ht	wh/1013.bmp
443.52	0.72	607	5	3	30	per	con	mod	mod	mod	nt	cr	nh/0796_nh.bmp
444.24	0.72	608	6	3	17	per	con	mod	mod	mod	tg	ms	wh/0645.bmp
444.96	0.72	609	5	2	113	mem	lib	mod	mod	mod	tg	ms	wh/0759.bmp
445.68	0.72	610	3	3	2	mem	lib	mod	mod	mod	nt	ht	nh/0761_nh.bmp
446.40	0.72	611	4	2	51	mem	con	mod	mod	low	tg	ht	wh/0236.bmp
447.12	0.72	612	5	4	108	per	con	low	mod	low	nt	fa	nh/0263_nh.bmp
447.84	0.72	613	1	4	24	mem	lib	low	low	mod	tg	ht	wh/0813.bmp
448.56	0.72	614	4	2	112	per	lib	low	mod	low	nt	fa	nh/0703_nh.bmp
449.28	0.72	615	6	4	67	per	lib	mod	mod	mod	nt	fa	nh/0333_nh.bmp
450.00	0.72	616	1	2	89	mem	con	low	low	mod	nt	ht	nh/0969_nh.bmp
450.72	0.72	617	5	3	40	mem	con	mod	mod	low	tg	ht	wh/0007.bmp
451.44	0.72	618	3	4	47	mem	con	mod	mod	mod	nt	ht	nh/0742_nh.bmp
452.16	0.72	619	6	3	44	mem	con	mod	mod	low	nt	ms	nh/0415_nh.bmp
452.88	0.72	620	1	3	119	mem	lib	low	low	low	nt	ht	nh/0783_nh.bmp
453.60	0.72	621	4	2	47	per	con	low	mod	low	nt	cr	nh/0410_nh.bmp
454.32	0.72	622	3	4	109	per	con	low	mod	low	tg	ms	wh/0914.bmp
455.04	0.72	623	4	4	50	mem	lib	mod	mod	low	tg	ht	wh/0203.bmp
455.76	0.72	624	4	3	12	mem	lib	mod	mod	mod	nt	ht	nh/0104_nh.bmp
456.48	0.72	625	6	4	103	per	con	low	mod	low	nt	cr	nh/0412_nh.bmp
457.20	0.72	626	4	2	105	per	lib	low	mod	low	nt	cr	nh/0454_nh.bmp
457.92	0.72	627	6	3	16	mem	lib	mod	mod	mod	nt	ht	nh/0983_nh.bmp
458.64	0.72	628	4	1	127	mem	lib	mod	mod	low	nt	ht	nh/0512_nh.bmp
459.36	0.72	629	4	3	10	mem	lib	mod	mod	mod	nt	ht	nh/0413_nh.bmp
460.08	0.72	630	3	1	83	mem	con	mod	mod	mod	tg	ht	wh/0753.bmp
460.80	0.72	631	4	4	45	mem	con	mod	mod	mod	tg	ht	wh/0487.bmp
461.52	0.72	632	4	1	13	per	con	mod	mod	mod	tg	ht	wh/0592.bmp
462.24	0.72	633	3	3	36	mem	con	mod	mod	low	nt	ht	nh/0295_nh.bmp
462.96	0.72	634	1	4	25	mem	lib	low	low	mod	tg	ht	wh/0050.bmp
463.68	0.72	635	1	4	87	per	con	mod	low	mod	tg	ms	wh/0616.bmp
464.40	0.72	636	1	3	112	per	con	low	low	low	nt	cr	nh/0169_nh.bmp
465.12	0.72	637	5	3	10	mem	lib	mod	mod	mod	nt	ht	nh/0413_nh.bmp
465.84	0.72	638	5	3	31	per	con	mod	mod	mod	tg	ht	wh/0925.bmp
466.56	0.72	639	1	4	124	mem	con	low	low	mod	nt	ms	nh/0944_nh.bmp
467.28	0.72	640	4	2	124	mem	lib	mod	mod	mod	nt	ht	nh/0861_nh.bmp
468.00	0.72	641	5	2	124	mem	lib	mod	mod	mod	nt	ht	nh/0861_nh.bmp
468.72	0.72	642	4	4	47	mem	con	mod	mod	mod	nt	ht	nh/0742_nh.bmp
469.44	0.72	643	5	4	60	mem	lib	mod	mod	low	nt	ht	nh/0988_nh.bmp
470.16	0.72	644	1	1	67	mem	con	low	low	low	nt	ms	nh/0117_nh.bmp
470.88	0.72	645	4	2	123	mem	lib	mod	mod	mod	tg	ht	wh/0344.bmp
471.60	0.72	646	5	1	95	mem	con	mod	mod	mod	tg	ht	wh/0445.bmp
472.32	0.72	647	1	1	56	per	con	low	low	low	nt	cr	nh/0314_nh.bmp
473.04	0.72	648	5	3	54	per	lib	low	mod	low	nt	fa	nh/0882_nh.bmp
473.76	0.72	649	1	3	68	per	lib	mod	low	mod	nt	cr	nh/0854_nh.bmp
474.48	0.72	650	1	3	102	per	con	low	low	low	tg	ms	wh/0160.bmp
475.20	0.72	651	4	3	33	mem	con	mod	mod	low	tg	ht	wh/0791.bmp
475.92	0.72	652	1	4	91	per	con	mod	low	mod	tg	ht	wh/0567.bmp
476.64	0.72	653	4	3	1	mem	lib	mod	mod	mod	tg	ht	wh/0348.bmp
477.36	0.72	654	6	1	10	per	con	mod	mod	mod	nt	cr	nh/0895_nh.bmp
478.08	0.72	655	5	1	13	per	con	mod	mod	mod	tg	ht	wh/0592.bmp
478.80	0.72	656	6	3	23	per	con	mod	mod	mod	nt	cr	nh/0738_nh.bmp
479.52	0.72	657	4	4	36	mem	con	mod	mod	mod	tg	ms	wh/1010.bmp
480.24	0.72	658	5	4	36	mem	con	mod	mod	mod	tg	ms	wh/1010.bmp
480.96	0.72	659	3	1	86	mem	con	mod	mod	mod	tg	ht	wh/0490.bmp
481.68	0.72	660	1	2	22	per	con	mod	low	mod	tg	ms	wh/0644.bmp
482.40	0.72	661	6	2	6	per	lib	mod	mod	mod	nt	fa	nh/0604_nh.bmp
483.12	0.72	662	4	1	83	mem	con	mod	mod	mod	tg	ht	wh/0753.bmp
483.84	0.72	663	3	1	113	mem	lib	mod	mod	low	tg	ht	wh/0643.bmp
484.56	0.72	664	5	2	37	per	con	low	mod	low	tg	ms	wh/0509.bmp
485.28	0.72	665	5	2	105	per	lib	low	mod	low	nt	cr	nh/0454_nh.bmp
486.00	0.72	666	1	1	97	per	lib	low	low	low	tg	ms	wh/0130.bmp
486.72	0.72	667	6	2	103	per	lib	low	mod	low	tg	ms	wh/1000.bmp
487.44	0.72	668	4	2	118	mem	lib	mod	mod	mod	tg	ht	wh/0358.bmp
488.16	0.72	669	4	1	81	mem	con	mod	mod	mod	tg	ht	wh/0282.bmp
488.88	0.72	670	5	4	74	per	lib	mod	mod	mod	nt	cr	nh/0799_nh.bmp
489.60	0.72	671	4	1	1	per	con	mod	mod	mod	nt	cr	nh/0229_nh.bmp
490.32	0.72	672	4	1	124	mem	lib	mod	mod	low	tg	ht	wh/0174.bmp
491.04	0.72	673	6	3	39	mem	con	mod	mod	low	tg	ht	wh/1013.bmp
491.76	0.72	674	1	4	7	per	lib	low	low	low	nt	cr	nh/0184_nh.bmp
492.48	0.72	675	6	2	3	per	lib	mod	mod	mod	tg	ht	wh/0943.bmp
493.20	0.72	676	5	2	51	mem	con	mod	mod	low	tg	ht	wh/0236.bmp
493.92	0.72	677	1	4	5	per	lib	low	low	low	tg	ht	wh/0911.bmp
494.64	0.72	678	5	1	126	mem	lib	mod	mod	low	nt	ht	nh/0683_nh.bmp
495.36	0.72	679	6	3	10	mem	lib	mod	mod	mod	nt	ht	nh/0413_nh.bmp
496.08	0.72	680	1	4	96	per	con	mod	low	mod	nt	cr	nh/0033_nh.bmp
496.80	0.72	681	1	1	65	mem	con	low	low	low	tg	ms	wh/0653.bmp
497.52	0.72	682	5	1	11	per	con	mod	mod	mod	tg	ms	wh/0806.bmp
498.24	0.72	683	6	4	46	mem	con	mod	mod	mod	nt	ht	nh/0071_nh.bmp
498.96	0.72	684	6	1	126	mem	lib	mod	mod	low	nt	ht	nh/0683_nh.bmp
499.68	0.72	685	5	2	112	per	lib	low	mod	low	nt	fa	nh/0703_nh.bmp
500.40	0.72	686	5	3	12	mem	lib	mod	mod	mod	nt	ht	nh/0104_nh.bmp
501.12	0.72	687	5	1	124	mem	lib	mod	mod	low	tg	ht	wh/0174.bmp
501.84	0.72	688	5	4	80	per	lib	mod	mod	mod	tg	ht	wh/0313.bmp
502.56	0.72	689	5	2	34	per	con	low	mod	low	tg	ms	wh/0575.bmp
503.28	0.72	690	5	1	1	per	con	mod	mod	mod	nt	cr	nh/0229_nh.bmp
504.00	0.72	691	4	1	113	mem	lib	mod	mod	low	tg	ht	wh/0643.bmp
504.72	0.72	692	6	2	14	per	lib	mod	mod	mod	tg	ht	wh/0061.bmp
505.44	0.72	693	5	1	83	mem	con	mod	mod	mod	tg	ht	wh/0753.bmp
506.16	0.72	694	5	1	120	mem	lib	mod	mod	low	nt	ht	nh/0976_nh.bmp
506.88	0.72	695	4	3	36	mem	con	mod	mod	low	nt	ht	nh/0295_nh.bmp
507.60	0.72	696	1	1	30	mem	lib	low	low	mod	tg	ht	wh/0304.bmp
508.32	0.72	697	1	3	67	per	lib	mod	low	mod	tg	ht	wh/0517.bmp
509.04	0.72	698	4	4	65	per	lib	mod	mod	mod	nt	fa	nh/0628_nh.bmp
509.76	0.72	699	5	4	104	per	con	low	mod	low	nt	cr	nh/0293_nh.bmp
510.48	0.72	700	5	2	126	mem	lib	mod	mod	mod	nt	ht	nh/0039_nh.bmp
511.20	0.72	701	1	2	86	mem	con	low	low	mod	nt	ms	nh/0726_nh.bmp
511.92	0.72	702	5	1	81	mem	con	mod	mod	mod	tg	ht	wh/0282.bmp
512.64	0.72	703	6	1	1	per	con	mod	mod	mod	nt	cr	nh/0229_nh.bmp
513.36	0.72	704	4	3	45	mem	con	mod	mod	low	nt	ms	nh/0312_nh.bmp
514.08	0.72	705	6	4	108	per	con	low	mod	low	nt	fa	nh/0263_nh.bmp
514.80	0.72	706	4	2	122	mem	lib	mod	mod	mod	nt	ht	nh/0809_nh.bmp
515.52	0.72	707	4	2	2	per	lib	mod	mod	mod	nt	cr	nh/0365_nh.bmp
516.24	0.72	708	5	3	49	per	lib	low	mod	low	nt	cr	nh/0302_nh.bmp
516.96	0.72	709	5	2	98	per	lib	low	mod	low	tg	ms	wh/0400.bmp
517.68	0.72	710	6	3	58	per	lib	low	mod	low	nt	fa	nh/0496_nh.bmp
518.40	0.72	711	5	3	45	mem	con	mod	mod	low	nt	ms	nh/0312_nh.bmp
519.12	0.72	712	6	1	95	mem	con	mod	mod	mod	tg	ht	wh/0445.bmp
519.84	0.72	713	1	4	84	per	con	mod	low	mod	nt	cr	nh/0003_nh.bmp
520.56	0.72	714	3	4	99	per	con	low	mod	low	nt	cr	nh/0459_nh.bmp
521.28	0.72	715	6	3	47	mem	con	mod	mod	low	tg	ms	wh/0494.bmp
522.00	0.72	716	4	2	43	per	con	low	mod	low	nt	cr	nh/0030_nh.bmp
522.72	0.72	717	5	4	42	mem	con	mod	mod	mod	tg	ht	wh/0576.bmp
523.44	0.72	718	5	3	33	mem	con	mod	mod	low	tg	ht	wh/0791.bmp
524.16	0.72	719	5	4	47	mem	con	mod	mod	mod	nt	ht	nh/0742_nh.bmp
524.88	0.72	720	5	1	113	mem	lib	mod	mod	low	tg	ht	wh/0643.bmp
525.60	0.72	721	5	4	65	per	lib	mod	mod	mod	nt	fa	nh/0628_nh.bmp
526.32	0.72	722	4	1	86	mem	con	mod	mod	mod	tg	ht	wh/0490.bmp
527.04	0.72	723	6	2	113	mem	lib	mod	mod	mod	tg	ms	wh/0759.bmp
527.76	0.72	724	6	2	59	mem	con	mod	mod	low	nt	ms	nh/0390_nh.bmp
528.48	0.72	725	6	4	51	mem	lib	mod	mod	low	nt	ht	nh/0124_nh.bmp
529.20	0.72	726	5	2	97	per	lib	low	mod	low	tg	ht	wh/0195.bmp
529.92	0.72	727	5	2	43	per	con	low	mod	low	nt	cr	nh/0030_nh.bmp
530.64	0.72	728	6	3	9	mem	lib	mod	mod	mod	tg	ht	wh/0674.bmp
531.36	0.72	729	5	2	9	per	lib	mod	mod	mod	nt	fa	nh/0931_nh.bmp
532.08	0.72	730	6	1	8	per	con	mod	mod	mod	tg	ht	wh/0689.bmp
532.80	0.72	731	6	2	98	per	lib	low	mod	low	tg	ms	wh/0400.bmp
533.52	0.72	732	1	4	9	per	lib	low	low	low	tg	ht	wh/0309.bmp
534.24	0.72	733	4	4	99	per	con	low	mod	low	nt	cr	nh/0459_nh.bmp
534.96	0.72	734	5	3	18	per	con	mod	mod	mod	nt	fa	nh/0961_nh.bmp
535.68	0.72	735	6	1	2	per	con	mod	mod	mod	nt	cr	nh/0448_nh.bmp
536.40	0.72	736	5	3	62	per	lib	low	mod	low	tg	ht	wh/0422.bmp
537.12	0.72	737	5	2	47	per	con	low	mod	low	nt	cr	nh/0410_nh.bmp
537.84	0.72	738	4	4	101	per	con	low	mod	low	tg	ms	wh/0438.bmp
538.56	0.72	739	4	1	88	mem	con	mod	mod	mod	nt	ms	nh/0343_nh.bmp
539.28	0.72	740	1	4	82	per	con	mod	low	mod	tg	ms	wh/0891.bmp
540.00	0.72	741	5	1	122	mem	lib	mod	mod	low	tg	ht	wh/0067.bmp
540.72	0.72	742	5	4	68	per	lib	mod	mod	mod	tg	ht	wh/0359.bmp
541.44	0.72	743	6	2	37	per	con	low	mod	low	tg	ms	wh/0509.bmp
542.16	0.72	744	1	1	68	mem	con	low	low	low	nt	ms	nh/0242_nh.bmp
542.88	0.72	745	4	2	117	mem	lib	mod	mod	mod	nt	ht	nh/0477_nh.bmp
543.60	0.72	746	4	3	34	mem	con	mod	mod	low	nt	ms	nh/0444_nh.bmp
544.32	0.72	747	6	1	11	per	con	mod	mod	mod	tg	ms	wh/0806.bmp
545.04	0.72	748	1	1	19	mem	lib	low	low	mod	nt	ht	nh/0192_nh.bmp
545.76	0.72	749	5	2	117	mem	lib	mod	mod	mod	nt	ht	nh/0477_nh.bmp
546.48	0.72	750	5	1	86	mem	con	mod	mod	mod	tg	ht	wh/0490.bmp
547.20	0.72	751	6	2	112	per	lib	low	mod	low	nt	fa	nh/0703_nh.bmp
547.92	0.72	752	6	2	124	mem	lib	mod	mod	mod	nt	ht	nh/0861_nh.bmp
548.64	0.72	753	6	1	94	mem	con	mod	mod	mod	nt	ms	nh/0538_nh.bmp
549.36	0.72	754	6	4	76	per	lib	mod	mod	mod	tg	ht	wh/0097.bmp
550.08	0.72	755	1	2	74	mem	lib	low	low	low	nt	ht	nh/0565_nh.bmp
550.80	0.72	756	1	1	61	per	con	low	low	low	tg	ms	wh/0243.bmp
551.52	0.72	757	6	3	40	mem	con	mod	mod	low	tg	ht	wh/0007.bmp
552.24	0.72	758	4	3	2	mem	lib	mod	mod	mod	nt	ht	nh/0761_nh.bmp
552.96	0.72	759	6	3	62	per	lib	low	mod	low	tg	ht	wh/0422.bmp
553.68	0.72	760	4	4	109	per	con	low	mod	low	tg	ms	wh/0914.bmp
554.40	0.72	761	3	3	50	per	lib	low	mod	low	tg	ht	wh/0259.bmp
555.12	0.72	762	4	3	50	per	lib	low	mod	low	tg	ht	wh/0259.bmp
555.84	0.72	763	5	2	2	per	lib	mod	mod	mod	nt	cr	nh/0365_nh.bmp
556.56	0.72	764	5	4	101	per	con	low	mod	low	tg	ms	wh/0438.bmp
557.28	0.72	765	6	1	81	mem	con	mod	mod	mod	tg	ht	wh/0282.bmp
558.00	0.72	766	1	2	23	per	con	mod	low	mod	tg	ht	wh/0595.bmp
558.72	0.72	767	6	2	54	mem	con	mod	mod	low	tg	ms	wh/0798.bmp
559.44	0.72	768	1	1	106	per	lib	low	low	low	nt	fa	nh/0492_nh.bmp
560.16	0.72	769	5	4	99	per	con	low	mod	low	nt	cr	nh/0459_nh.bmp
560.88	0.72	770	6	4	80	per	lib	mod	mod	mod	tg	ht	wh/0313.bmp
561.60	0.72	771	5	1	127	mem	lib	mod	mod	low	nt	ht	nh/0512_nh.bmp
562.32	0.72	772	5	3	1	mem	lib	mod	mod	mod	tg	ht	wh/0348.bmp
563.04	0.72	773	6	2	15	per	lib	mod	mod	mod	tg	ms	wh/0072.bmp
563.76	0.72	774	1	2	82	mem	con	low	low	mod	nt	ms	nh/0620_nh.bmp
564.48	0.72	775	6	1	120	mem	lib	mod	mod	low	nt	ht	nh/0976_nh.bmp
565.20	0.72	776	1	4	116	mem	con	low	low	mod	tg	ms	wh/0719.bmp
565.92	0.72	777	1	2	66	mem	lib	low	low	low	tg	ms	wh/0252.bmp
566.64	0.72	778	6	1	119	mem	lib	mod	mod	low	nt	ht	nh/0792_nh.bmp
567.36	0.72	779	6	4	47	mem	con	mod	mod	mod	nt	ht	nh/0742_nh.bmp
568.08	0.72	780	5	3	34	mem	con	mod	mod	low	nt	ms	nh/0444_nh.bmp
568.80	0.72	781	6	3	32	per	con	mod	mod	mod	tg	ms	wh/0665.bmp
569.52	0.72	782	6	1	82	mem	con	mod	mod	mod	nt	ms	nh/0151_nh.bmp
570.24	0.72	783	5	3	50	per	lib	low	mod	low	tg	ht	wh/0259.bmp
570.96	0.72	784	4	4	58	mem	lib	mod	mod	low	nt	ht	nh/0661_nh.bmp
571.68	0.72	785	4	2	36	per	con	low	mod	low	nt	cr	nh/0246_nh.bmp
572.40	0.72	786	5	3	36	mem	con	mod	mod	low	nt	ht	nh/0295_nh.bmp
573.12	0.72	787	1	3	126	mem	lib	low	low	low	nt	ht	nh/0335_nh.bmp
573.84	0.72	788	1	4	89	per	con	mod	low	mod	tg	ht	wh/0754.bmp
574.56	0.72	789	1	2	20	per	con	mod	low	mod	nt	cr	nh/0937_nh.bmp
575.28	0.72	790	6	1	127	mem	lib	mod	mod	low	nt	ht	nh/0512_nh.bmp
576.00	0.72	791	6	1	86	mem	con	mod	mod	mod	tg	ht	wh/0490.bmp
576.72	0.72	792	5	2	122	mem	lib	mod	mod	mod	nt	ht	nh/0809_nh.bmp
577.44	0.72	793	6	2	122	mem	lib	mod	mod	mod	nt	ht	nh/0809_nh.bmp
578.16	0.72	794	5	2	118	mem	lib	mod	mod	mod	tg	ht	wh/0358.bmp
578.88	0.72	795	5	1	88	mem	con	mod	mod	mod	nt	ms	nh/0343_nh.bmp
579.60	0.72	796	6	2	51	mem	con	mod	mod	low	tg	ht	wh/0236.bmp
580.32	0.72	797	5	4	109	per	con	low	mod	low	tg	ms	wh/0914.bmp
581.04	0.72	798	1	1	102	per	lib	low	low	low	tg	ht	wh/0120.bmp
581.76	0.72	799	6	2	13	per	lib	mod	mod	mod	tg	ht	wh/0427.bmp
582.48	0.72	800	1	4	88	per	con	mod	low	mod	nt	cr	nh/0630_nh.bmp
583.20	0.72	801	6	1	83	mem	con	mod	mod	mod	tg	ht	wh/0753.bmp
583.92	0.72	802	6	3	36	mem	con	mod	mod	low	nt	ht	nh/0295_nh.bmp
584.64	0.72	803	6	1	13	per	con	mod	mod	mod	tg	ht	wh/0592.bmp
585.36	0.72	804	1	1	22	mem	lib	low	low	mod	tg	ht	wh/0214.bmp
586.08	0.72	805	6	4	60	mem	lib	mod	mod	low	nt	ht	nh/0988_nh.bmp
586.80	0.72	806	5	4	58	mem	lib	mod	mod	low	nt	ht	nh/0661_nh.bmp
587.52	0.72	807	1	2	83	mem	con	low	low	mod	tg	ms	wh/0085.bmp
588.24	0.72	808	6	2	117	mem	lib	mod	mod	mod	nt	ht	nh/0477_nh.bmp
588.96	0.72	809	1	3	96	mem	con	low	low	low	nt	ms	nh/0524_nh.bmp
589.68	0.72	810	6	2	47	per	con	low	mod	low	nt	cr	nh/0410_nh.bmp
590.40	0.72	811	6	3	31	per	con	mod	mod	mod	tg	ht	wh/0925.bmp
591.12	0.72	812	1	1	111	per	lib	low	low	low	nt	fa	nh/0607_nh.bmp
591.84	0.72	813	6	4	104	per	con	low	mod	low	nt	cr	nh/0293_nh.bmp
592.56	0.72	814	5	3	6	mem	lib	mod	mod	mod	tg	ht	wh/0583.bmp
593.28	0.72	815	5	2	60	mem	con	mod	mod	low	nt	ms	nh/0523_nh.bmp
594.00	0.72	816	6	2	42	per	con	low	mod	low	tg	ms	wh/0081.bmp
594.72	0.72	817	6	1	88	mem	con	mod	mod	mod	nt	ms	nh/0343_nh.bmp
595.44	0.72	818	5	4	50	mem	lib	mod	mod	low	tg	ht	wh/0203.bmp
596.16	0.72	819	6	4	64	mem	lib	mod	mod	low	tg	ht	wh/0323.bmp
596.88	0.72	820	6	4	72	per	lib	mod	mod	mod	tg	ht	wh/0331.bmp
597.60	0.72	821	5	2	58	mem	con	mod	mod	low	nt	ht	nh/0131_nh.bmp
598.32	0.72	822	6	2	97	per	lib	low	mod	low	tg	ht	wh/0195.bmp
599.04	0.72	823	6	1	118	mem	lib	mod	mod	low	tg	ht	wh/0757.bmp
599.76	0.72	824	6	2	57	mem	con	mod	mod	low	tg	ms	wh/0615.bmp
600.48	0.72	825	6	1	124	mem	lib	mod	mod	low	tg	ht	wh/0174.bmp
601.20	0.72	826	1	2	26	per	con	mod	low	mod	nt	cr	nh/0052_nh.bmp
601.92	0.72	827	1	3	106	per	con	low	low	low	nt	cr	nh/0357_nh.bmp
602.64	0.72	828	4	3	63	per	lib	low	mod	low	nt	fa	nh/0212_nh.bmp
603.36	0.72	829	5	2	45	per	con	low	mod	low	tg	ms	wh/0315.bmp
604.08	0.72	830	6	3	54	per	lib	low	mod	low	nt	fa	nh/0882_nh.bmp
604.80	0.72	831	6	4	42	mem	con	mod	mod	mod	tg	ht	wh/0576.bmp
605.52	0.72	832	1	3	99	per	con	low	low	low	tg	ms	wh/0250.bmp
606.24	0.72	833	6	3	18	per	con	mod	mod	mod	nt	fa	nh/0961_nh.bmp
606.96	0.72	834	6	4	99	per	con	low	mod	low	nt	cr	nh/0459_nh.bmp
607.68	0.72	835	5	2	36	per	con	low	mod	low	nt	cr	nh/0246_nh.bmp
608.40	0.72	836	6	3	6	mem	lib	mod	mod	mod	tg	ht	wh/0583.bmp
609.12	0.72	837	1	1	71	mem	con	low	low	low	nt	ms	nh/0877_nh.bmp
609.84	0.72	838	6	4	105	per	con	low	mod	low	tg	ms	wh/0554.bmp
610.56	0.72	839	6	1	113	mem	lib	mod	mod	low	tg	ht	wh/0643.bmp
611.28	0.72	840	6	1	12	per	con	mod	mod	mod	nt	n/a	nh/0664_nh.bmp
612.00	0.72	841	6	2	105	per	lib	low	mod	low	nt	cr	nh/0454_nh.bmp
612.72	0.72	842	6	2	2	per	lib	mod	mod	mod	nt	cr	nh/0365_nh.bmp
613.44	0.72	843	6	4	40	mem	con	mod	mod	mod	nt	ms	nh/0320_nh.bmp
614.16	0.72	844	5	3	2	mem	lib	mod	mod	mod	nt	ht	nh/0761_nh.bmp
614.88	0.72	845	6	4	109	per	con	low	mod	low	tg	ms	wh/0914.bmp
615.60	0.72	846	1	3	71	per	lib	mod	low	mod	tg	ht	wh/0773.bmp
616.32	0.72	847	6	3	1	mem	lib	mod	mod	mod	tg	ht	wh/0348.bmp
617.04	0.72	848	5	3	24	per	con	mod	mod	mod	nt	cr	nh/0137_nh.bmp
617.76	0.72	849	6	2	126	mem	lib	mod	mod	mod	nt	ht	nh/0039_nh.bmp
618.48	0.72	850	5	2	123	mem	lib	mod	mod	mod	tg	ht	wh/0344.bmp
619.20	0.72	851	6	2	56	mem	con	mod	mod	low	nt	ms	nh/0291_nh.bmp
619.92	0.72	852	6	2	36	per	con	low	mod	low	nt	cr	nh/0246_nh.bmp
620.64	0.72	853	6	2	9	per	lib	mod	mod	mod	nt	fa	nh/0931_nh.bmp
621.36	0.72	854	6	2	120	mem	lib	mod	mod	mod	tg	ht	wh/0834.bmp
622.08	0.72	855	6	4	68	per	lib	mod	mod	mod	tg	ht	wh/0359.bmp
622.80	0.72	856	6	3	50	per	lib	low	mod	low	tg	ht	wh/0259.bmp
623.52	0.72	857	6	3	45	mem	con	mod	mod	low	nt	ms	nh/0312_nh.bmp
624.24	0.72	858	6	2	45	per	con	low	mod	low	tg	ms	wh/0315.bmp
624.96	0.72	859	6	1	122	mem	lib	mod	mod	low	tg	ht	wh/0067.bmp
625.68	0.72	860	6	2	104	per	lib	low	mod	low	nt	fa	nh/0132_nh.bmp
626.40	0.72	861	1	4	4	per	lib	low	low	low	nt	fa	nh/0011_nh.bmp
627.12	0.72	862	6	4	101	per	con	low	mod	low	tg	ms	wh/0438.bmp
627.84	0.72	863	1	4	28	mem	lib	low	low	mod	nt	ht	nh/0467_nh.bmp
628.56	0.72	864	6	3	22	per	con	mod	mod	mod	tg	ht	wh/0279.bmp
629.28	0.72	865	6	4	36	mem	con	mod	mod	mod	tg	ms	wh/1010.bmp
630.00	0.72	866	5	3	63	per	lib	low	mod	low	nt	fa	nh/0212_nh.bmp
630.72	0.72	867	1	3	83	mem	con	low	low	low	nt	ht	nh/0245_nh.bmp
631.44	0.72	868	6	2	118	mem	lib	mod	mod	mod	tg	ht	wh/0358.bmp
632.16	0.72	869	6	3	12	mem	lib	mod	mod	mod	nt	ht	nh/0104_nh.bmp
632.88	0.72	870	1	1	41	per	lib	mod	low	mod	tg	ht	wh/1020.bmp
633.60	0.72	871	6	2	43	per	con	low	mod	low	nt	cr	nh/0030_nh.bmp
634.32	0.72	872	6	4	58	mem	lib	mod	mod	low	nt	ht	nh/0661_nh.bmp
635.04	0.72	873	5	4	45	mem	con	mod	mod	mod	tg	ht	wh/0487.bmp
635.76	0.72	874	6	4	45	mem	con	mod	mod	mod	tg	ht	wh/0487.bmp
636.48	0.72	875	6	4	65	per	lib	mod	mod	mod	nt	fa	nh/0628_nh.bmp
637.20	0.72	876	6	3	24	per	con	mod	mod	mod	nt	cr	nh/0137_nh.bmp
637.92	0.72	877	6	2	52	mem	con	mod	mod	low	tg	ms	wh/0424.bmp
638.64	0.72	878	6	2	123	mem	lib	mod	mod	mod	tg	ht	wh/0344.bmp
639.36	0.72	879	6	4	55	mem	lib	mod	mod	low	tg	ht	wh/0368.bmp
640.08	0.72	880	6	3	30	per	con	mod	mod	mod	nt	cr	nh/0796_nh.bmp
640.80	0.72	881	6	2	58	mem	con	mod	mod	low	nt	ht	nh/0131_nh.bmp
641.52	0.72	882	6	3	11	mem	lib	mod	mod	mod	tg	ht	wh/0970.bmp
642.24	0.72	883	6	4	50	mem	lib	mod	mod	low	tg	ht	wh/0203.bmp
642.96	0.72	884	6	3	33	mem	con	mod	mod	low	tg	ht	wh/0791.bmp
643.68	0.72	885	6	2	34	per	con	low	mod	low	tg	ms	wh/0575.bmp
644.40	0.72	886	1	1	64	per	con	low	low	low	nt	cr	nh/0356_nh.bmp
645.12	0.72	887	6	2	60	mem	con	mod	mod	low	nt	ms	nh/0523_nh.bmp
645.84	0.72	888	1	1	27	mem	lib	low	low	mod	nt	ht	nh/0230_nh.bmp
646.56	0.72	889	6	3	34	mem	con	mod	mod	low	nt	ms	nh/0444_nh.bmp
647.28	0.72	890	1	3	93	mem	con	low	low	low	tg	ms	wh/0908.bmp
648.00	0.72	891	6	3	63	per	lib	low	mod	low	nt	fa	nh/0212_nh.bmp
648.72	0.72	892	6	3	49	per	lib	low	mod	low	nt	cr	nh/0302_nh.bmp
649.44	0.72	893	6	3	2	mem	lib	mod	mod	mod	nt	ht	nh/0761_nh.bmp
650.16	0.72	894	6	1	5	per	con	mod	mod	mod	tg	ht	wh/0479.bmp
650.88	0.72	895	6	4	74	per	lib	mod	mod	mod	nt	cr	nh/0799_nh.bmp
651.60	0.72	896	1	4	16	per	lib	low	low	low	tg	ht	wh/0505.bmp
