onset	duration	trial	pres	ts_blk	ts_trl	task	crit	disc	mem_disc	per_disc	per_type	accuracy	stim_file
7.20	0.72	1	1	4	114	mem	lib	mod	mod	low	nt	ht	nh/0454_nh.bmp
7.92	0.72	2	1	1	17	mem	con	mod	mod	mod	nt	ms	nh/0137_nh.bmp
8.64	0.72	3	1	4	84	per	con	low	low	low	tg	ht	wh/0500.bmp
9.36	0.72	4	1	2	46	mem	con	mod	mod	low	tg	ms	wh/0438.bmp
10.08	0.72	5	1	3	104	mem	con	mod	mod	mod	nt	ms	nh/0448_nh.bmp
10.80	0.72	6	1	2	47	mem	con	mod	mod	low	nt	ht	nh/0293_nh.bmp
11.52	0.72	7	1	1	31	mem	con	mod	mod	mod	nt	ms	nh/0738_nh.bmp
12.24	0.72	8	1	1	24	mem	con	mod	mod	mod	nt	ht	nh/0796_nh.bmp
12.96	0.72	9	1	4	54	per	con	mod	mod	mod	tg	ms	wh/0753.bmp
13.68	0.72	10	1	2	32	mem	lib	low	low	low	tg	ht	wh/0911.bmp
14.40	0.72	11	1	2	4	per	con	mod	mod	mod	nt	cr	nh/0742_nh.bmp
15.12	0.72	12	1	2	66	per	lib	mod	mod	mod	tg	ht	wh/0674.bmp
15.84	0.72	13	1	2	33	mem	con	mod	mod	low	tg	ms	wh/0554.bmp
16.56	0.72	14	1	2	9	per	con	mod	mod	mod	nt	cr	nh/0071_nh.bmp
17.28	0.72	15	1	4	27	per	lib	low	mod	low	tg	ht	wh/0757.bmp
18.00	0.72	16	1	3	85	per	lib	mod	mod	mod	tg	ht	wh/0759.bmp
18.72	0.72	17	1	4	63	per	con	mod	mod	mod	nt	cr	nh/0538_nh.bmp
19.44	0.72	18	1	1	2	mem	con	low	low	mod	nt	n/a	nh/0062_nh.bmp
20.16	0.72	19	1	1	89	mem	lib	mod	mod	low	tg	ht	wh/0259.bmp
20.88	0.72	20	1	2	42	mem	con	mod	mod	low	tg	ht	wh/0765.bmp
21.60	0.72	21	1	2	125	mem	lib	mod	mod	mod	nt	ht	nh/0333_nh.bmp
22.32	0.72	22	2	4	54	per	con	mod	mod	mod	tg	ms	wh/0753.bmp
23.04	0.72	23	1	2	15	per	con	mod	mod	mod	nt	cr	nh/0901_nh.bmp
23.76	0.72	24	1	3	127	mem	con	low	low	low	nt	ms	nh/0356_nh.bmp
24.48	0.72	25	1	2	81	per	con	low	mod	low	tg	ms	wh/0494.bmp
25.20	0.72	26	1	3	23	mem	lib	low	low	low	nt	ms	nh/0808_nh.bmp
25.92	0.72	27	1	3	101	mem	con	mod	mod	mod	tg	ms	wh/0479.bmp
26.64	0.72	28	1	2	113	mem	lib	mod	mod	mod	nt	ht	nh/0562_nh.bmp
27.36	0.72	29	2	4	63	per	con	mod	mod	mod	nt	cr	nh/0538_nh.bmp
28.08	0.72	30	2	1	24	mem	con	mod	mod	mod	nt	ht	nh/0796_nh.bmp
28.80	0.72	31	2	2	113	mem	lib	mod	mod	mod	nt	ht	nh/0562_nh.bmp
29.52	0.72	32	1	4	69	per	lib	mod	low	mod	tg	ht	wh/0872.bmp
30.24	0.72	33	1	4	94	per	con	low	low	low	tg	ms	wh/0713.bmp
30.96	0.72	34	1	4	78	per	lib	mod	low	mod	nt	fa	nh/0707_nh.bmp
31.68	0.72	35	1	3	46	mem	lib	mod	mod	mod	tg	ht	wh/0943.bmp
32.40	0.72	36	1	4	62	per	con	mod	mod	mod	nt	cr	nh/0343_nh.bmp
33.12	0.72	37	1	2	118	mem	lib	mod	mod	mod	tg	ht	wh/0097.bmp
33.84	0.72	38	1	4	25	per	lib	low	mod	low	nt	fa	nh/0683_nh.bmp
34.56	0.72	39	1	1	44	per	lib	low	mod	low	nt	fa	nh/0511_nh.bmp
35.28	0.72	40	1	1	109	per	con	low	low	low	nt	cr	nh/0524_nh.bmp
36.00	0.72	41	1	4	9	mem	con	mod	mod	low	tg	ms	wh/0509.bmp
36.72	0.72	42	1	2	87	per	con	low	mod	low	tg	ms	wh/1013.bmp
37.44	0.72	43	1	2	21	mem	lib	low	low	low	tg	ms	wh/0505.bmp
38.16	0.72	44	1	3	39	mem	lib	mod	mod	mod	tg	ht	wh/0427.bmp
38.88	0.72	45	2	3	39	mem	lib	mod	mod	mod	tg	ht	wh/0427.bmp
39.60	0.72	46	1	4	126	mem	lib	mod	mod	low	tg	ht	wh/0400.bmp
40.32	0.72	47	2	2	33	mem	con	mod	mod	low	tg	ms	wh/0554.bmp
41.04	0.72	48	2	4	114	mem	lib	mod	mod	low	nt	ht	nh/0454_nh.bmp
41.76	0.72	49	1	4	16	mem	con	mod	mod	low	nt	ht	nh/0410_nh.bmp
42.48	0.72	50	1	3	102	mem	con	mod	mod	mod	nt	ms	nh/0229_nh.bmp
43.20	0.72	51	1	3	67	per	con	low	mod	low	tg	ms	wh/0236.bmp
43.92	0.72	52	1	4	119	mem	lib	mod	mod	low	nt	ht	nh/0132_nh.bmp
44.64	0.72	53	1	2	126	mem	lib	mod	mod	mod	nt	ht	nh/0799_nh.bmp
45.36	0.72	54	2	2	47	mem	con	mod	mod	low	nt	ht	nh/0293_nh.bmp
46.08	0.72	55	2	2	81	per	con	low	mod	low	tg	ms	wh/0494.bmp
46.80	0.72	56	1	2	7	per	con	mod	mod	mod	tg	ht	wh/0487.bmp
47.52	0.72	57	1	1	91	mem	lib	mod	mod	low	nt	ht	nh/0212_nh.bmp
48.24	0.72	58	1	1	25	mem	con	mod	mod	mod	tg	ht	wh/0665.bmp
48.96	0.72	59	1	3	36	mem	lib	mod	mod	mod	nt	ht	nh/0931_nh.bmp
49.68	0.72	60	1	3	89	per	lib	mod	mod	mod	nt	cr	nh/0861_nh.bmp
50.40	0.72	61	1	1	63	per	lib	mod	low	mod	tg	ht	wh/0555.bmp
51.12	0.72	62	1	4	51	per	con	mod	mod	mod	nt	cr	nh/0705_nh.bmp
51.84	0.72	63	1	2	2	per	con	mod	mod	mod	tg	ht	wh/1010.bmp
52.56	0.72	64	1	1	83	mem	lib	mod	mod	low	tg	ht	wh/0671.bmp
53.28	0.72	65	1	3	18	mem	lib	low	low	low	nt	ht	nh/0492_nh.bmp
54.00	0.72	66	1	4	121	mem	lib	mod	mod	low	nt	ht	nh/0641_nh.bmp
54.72	0.72	67	2	1	25	mem	con	mod	mod	mod	tg	ht	wh/0665.bmp
55.44	0.72	68	1	4	8	mem	con	mod	mod	low	tg	ht	wh/0315.bmp
56.16	0.72	69	2	2	66	per	lib	mod	mod	mod	tg	ht	wh/0674.bmp
56.88	0.72	70	2	1	89	mem	lib	mod	mod	low	tg	ht	wh/0259.bmp
57.60	0.72	71	1	1	9	mem	con	low	low	mod	tg	ms	wh/0616.bmp
58.32	0.72	72	2	2	4	per	con	mod	mod	mod	nt	cr	nh/0742_nh.bmp
59.04	0.72	73	1	4	2	mem	con	mod	mod	low	nt	ms	nh/0246_nh.bmp
59.76	0.72	74	1	4	125	mem	lib	mod	mod	low	tg	ht	wh/0283.bmp
60.48	0.72	75	1	1	95	mem	lib	mod	mod	low	nt	ht	nh/0882_nh.bmp
61.20	0.72	76	1	1	36	per	lib	low	mod	low	tg	ht	wh/0386.bmp
61.92	0.72	77	2	4	16	mem	con	mod	mod	low	nt	ht	nh/0410_nh.bmp
62.64	0.72	78	2	4	25	per	lib	low	mod	low	nt	fa	nh/0683_nh.bmp
63.36	0.72	79	2	3	67	per	con	low	mod	low	tg	ms	wh/0236.bmp
64.08	0.72	80	1	2	91	per	con	low	mod	low	nt	cr	nh/0415_nh.bmp
64.80	0.72	81	2	2	7	per	con	mod	mod	mod	tg	ht	wh/0487.bmp
65.52	0.72	82	2	4	2	mem	con	mod	mod	low	nt	ms	nh/0246_nh.bmp
66.24	0.72	83	1	1	96	mem	lib	mod	mod	low	nt	ht	nh/0302_nh.bmp
66.96	0.72	84	1	2	5	per	con	mod	mod	mod	tg	ht	wh/0576.bmp
67.68	0.72	85	1	4	35	mem	con	low	low	mod	tg	ms	wh/0498.bmp
68.40	0.72	86	1	2	65	per	lib	mod	mod	mod	nt	cr	nh/0761_nh.bmp
69.12	0.72	87	1	4	68	per	lib	mod	low	mod	nt	cr	nh/0230_nh.bmp
69.84	0.72	88	2	3	36	mem	lib	mod	mod	mod	nt	ht	nh/0931_nh.bmp
70.56	0.72	89	1	3	42	mem	lib	mod	mod	mod	nt	ht	nh/0365_nh.bmp
71.28	0.72	90	1	2	85	per	con	low	mod	low	nt	cr	nh/0295_nh.bmp
72.00	0.72	91	1	1	62	per	lib	mod	low	mod	nt	cr	nh/0467_nh.bmp
72.72	0.72	92	1	2	17	mem	lib	low	low	low	nt	ht	nh/0011_nh.bmp
73.44	0.72	93	1	3	74	per	con	low	mod	low	nt	cr	nh/0523_nh.bmp
74.16	0.72	94	1	1	119	per	con	mod	low	mod	tg	ms	wh/0440.bmp
74.88	0.72	95	1	2	77	per	lib	mod	mod	mod	nt	fa	nh/0104_nh.bmp
75.60	0.72	96	2	3	74	per	con	low	mod	low	nt	cr	nh/0523_nh.bmp
76.32	0.72	97	1	3	114	mem	con	low	low	low	tg	ms	wh/0743.bmp
77.04	0.72	98	2	1	91	mem	lib	mod	mod	low	nt	ht	nh/0212_nh.bmp
77.76	0.72	99	3	3	39	mem	lib	mod	mod	mod	tg	ht	wh/0427.bmp
78.48	0.72	100	1	3	13	per	lib	low	low	low	tg	ht	wh/0021.bmp
79.20	0.72	101	1	2	49	mem	con	low	low	low	tg	ms	wh/0160.bmp
79.92	0.72	102	2	4	121	mem	lib	mod	mod	low	nt	ht	nh/0641_nh.bmp
80.64	0.72	103	2	2	46	mem	con	mod	mod	low	tg	ms	wh/0438.bmp
81.36	0.72	104	1	1	41	per	lib	low	mod	low	tg	ht	wh/0323.bmp
82.08	0.72	105	1	2	76	per	lib	mod	mod	mod	tg	ms	wh/0348.bmp
82.80	0.72	106	2	3	85	per	lib	mod	mod	mod	tg	ht	wh/0759.bmp
83.52	0.72	107	1	4	4	mem	con	mod	mod	low	nt	ms	nh/0166_nh.bmp
84.24	0.72	108	1	3	21	mem	lib	low	low	low	tg	ht	wh/0130.bmp
84.96	0.72	109	1	1	116	per	con	mod	low	mod	tg	ht	wh/0719.bmp
85.68	0.72	110	1	1	19	mem	con	mod	mod	mod	nt	ms	nh/0961_nh.bmp
86.40	0.72	111	2	1	36	per	lib	low	mod	low	tg	ht	wh/0386.bmp
87.12	0.72	112	1	3	76	per	con	low	mod	low	tg	ms	wh/0615.bmp
87.84	0.72	113	1	2	34	mem	con	mod	mod	low	nt	ms	nh/0412_nh.bmp
88.56	0.72	114	2	2	76	per	lib	mod	mod	mod	tg	ms	wh/0348.bmp
89.28	0.72	115	1	4	112	mem	lib	low	low	mod	nt	ht	nh/0606_nh.bmp
90.00	0.72	116	1	4	60	per	con	mod	mod	mod	tg	ms	wh/0490.bmp
90.72	0.72	117	1	2	54	mem	con	low	low	low	tg	ht	wh/0250.bmp
91.44	0.72	118	2	4	60	per	con	mod	mod	mod	tg	ms	wh/0490.bmp
92.16	0.72	119	1	4	23	per	lib	low	mod	low	nt	cr	nh/0976_nh.bmp
92.88	0.72	120	1	2	117	mem	lib	mod	mod	mod	nt	ht	nh/0628_nh.bmp
93.60	0.72	121	2	3	102	mem	con	mod	mod	mod	nt	ms	nh/0229_nh.bmp
94.32	0.72	122	3	1	24	mem	con	mod	mod	mod	nt	ht	nh/0796_nh.bmp
95.04	0.72	123	2	1	19	mem	con	mod	mod	mod	nt	ms	nh/0961_nh.bmp
95.76	0.72	124	3	1	89	mem	lib	mod	mod	low	tg	ht	wh/0259.bmp
96.48	0.72	125	1	2	56	mem	con	low	low	low	nt	ms	nh/0357_nh.bmp
97.20	0.72	126	1	2	82	per	con	low	mod	low	nt	cr	nh/0444_nh.bmp
97.92	0.72	127	1	2	80	per	lib	mod	mod	mod	tg	ht	wh/0970.bmp
98.64	0.72	128	1	4	11	mem	con	mod	mod	low	tg	ht	wh/0081.bmp
99.36	0.72	129	2	1	83	mem	lib	mod	mod	low	tg	ht	wh/0671.bmp
100.08	0.72	130	3	2	47	mem	con	mod	mod	low	nt	ht	nh/0293_nh.bmp
100.80	0.72	131	1	2	84	per	con	low	mod	low	tg	ms	wh/0791.bmp
101.52	0.72	132	1	2	36	mem	con	mod	mod	low	nt	ht	nh/0263_nh.bmp
102.24	0.72	133	2	4	11	mem	con	mod	mod	low	tg	ht	wh/0081.bmp
102.96	0.72	134	1	1	90	mem	lib	mod	mod	low	tg	ht	wh/0672.bmp
103.68	0.72	135	3	2	113	mem	lib	mod	mod	mod	nt	ht	nh/0562_nh.bmp
104.40	0.72	136	1	3	99	mem	con	mod	mod	mod	tg	ht	wh/0806.bmp
105.12	0.72	137	1	3	40	mem	lib	mod	mod	mod	nt	ht	nh/0049_nh.bmp
105.84	0.72	138	2	2	80	per	lib	mod	mod	mod	tg	ht	wh/0970.bmp
106.56	0.72	139	1	2	14	per	con	mod	mod	mod	nt	cr	nh/0320_nh.bmp
107.28	0.72	140	1	3	45	mem	lib	mod	mod	mod	tg	ht	wh/0061.bmp
108.00	0.72	141	2	2	65	per	lib	mod	mod	mod	nt	cr	nh/0761_nh.bmp
108.72	0.72	142	1	1	26	mem	con	mod	mod	mod	tg	ms	wh/0279.bmp
109.44	0.72	143	1	2	127	mem	lib	mod	mod	mod	tg	ht	wh/0359.bmp
110.16	0.72	144	1	4	10	mem	con	mod	mod	low	tg	ht	wh/0575.bmp
110.88	0.72	145	2	4	51	per	con	mod	mod	mod	nt	cr	nh/0705_nh.bmp
111.60	0.72	146	1	3	94	per	lib	mod	mod	mod	nt	cr	nh/0809_nh.bmp
112.32	0.72	147	2	1	90	mem	lib	mod	mod	low	tg	ht	wh/0672.bmp
113.04	0.72	148	1	1	42	per	lib	low	mod	low	nt	fa	nh/0661_nh.bmp
113.76	0.72	149	1	1	82	mem	lib	mod	mod	low	nt	ht	nh/0496_nh.bmp
114.48	0.72	150	1	1	93	mem	lib	mod	mod	low	tg	ht	wh/0422.bmp
115.20	0.72	151	1	2	18	mem	lib	low	low	low	nt	ht	nh/0471_nh.bmp
115.92	0.72	152	1	1	56	per	lib	mod	low	mod	nt	cr	nh/0208_nh.bmp
116.64	0.72	153	1	3	120	mem	con	low	low	low	nt	ht	nh/0824_nh.bmp
117.36	0.72	154	1	1	23	mem	con	mod	mod	mod	tg	ht	wh/0925.bmp
118.08	0.72	155	2	1	96	mem	lib	mod	mod	low	nt	ht	nh/0302_nh.bmp
118.80	0.72	156	2	1	93	mem	lib	mod	mod	low	tg	ht	wh/0422.bmp
119.52	0.72	157	2	4	125	mem	lib	mod	mod	low	tg	ht	wh/0283.bmp
120.24	0.72	158	2	1	95	mem	lib	mod	mod	low	nt	ht	nh/0882_nh.bmp
120.96	0.72	159	3	4	60	per	con	mod	mod	mod	tg	ms	wh/0490.bmp
121.68	0.72	160	1	4	120	mem	lib	mod	mod	low	tg	ht	wh/1000.bmp
122.40	0.72	161	1	2	69	per	lib	mod	mod	mod	nt	cr	nh/0413_nh.bmp
123.12	0.72	162	2	3	99	mem	con	mod	mod	mod	tg	ht	wh/0806.bmp
123.84	0.72	163	1	3	93	per	lib	mod	mod	mod	nt	cr	nh/0477_nh.bmp
124.56	0.72	164	1	4	91	per	con	low	low	low	tg	ms	wh/0171.bmp
125.28	0.72	165	1	2	120	mem	lib	mod	mod	mod	tg	ht	wh/0313.bmp
126.00	0.72	166	1	1	15	mem	con	low	low	mod	nt	ms	nh/0033_nh.bmp
126.72	0.72	167	1	2	71	per	lib	mod	mod	mod	nt	cr	nh/0983_nh.bmp
127.44	0.72	168	2	4	120	mem	lib	mod	mod	low	tg	ht	wh/1000.bmp
128.16	0.72	169	2	2	71	per	lib	mod	mod	mod	nt	cr	nh/0983_nh.bmp
128.88	0.72	170	1	3	5	per	lib	low	low	low	nt	cr	nh/0264_nh.bmp
129.60	0.72	171	1	3	112	mem	con	mod	mod	mod	tg	ht	wh/0689.bmp
130.32	0.72	172	2	3	42	mem	lib	mod	mod	mod	nt	ht	nh/0365_nh.bmp
131.04	0.72	173	2	1	17	mem	con	mod	mod	mod	nt	ms	nh/0137_nh.bmp
131.76	0.72	174	3	1	90	mem	lib	mod	mod	low	tg	ht	wh/0672.bmp
132.48	0.72	175	3	2	76	per	lib	mod	mod	mod	tg	ms	wh/0348.bmp
133.20	0.72	176	2	3	93	per	lib	mod	mod	mod	nt	cr	nh/0477_nh.bmp
133.92	0.72	177	1	4	24	per	lib	low	mod	low	nt	cr	nh/0792_nh.bmp
134.64	0.72	178	3	2	80	per	lib	mod	mod	mod	tg	ht	wh/0970.bmp
135.36	0.72	179	1	1	113	per	con	mod	low	mod	nt	fa	nh/0547_nh.bmp
136.08	0.72	180	1	1	123	per	con	mod	low	mod	nt	cr	nh/0944_nh.bmp
136.80	0.72	181	4	2	113	mem	lib	mod	mod	mod	nt	ht	nh/0562_nh.bmp
137.52	0.72	182	2	2	42	mem	con	mod	mod	low	tg	ht	wh/0765.bmp
138.24	0.72	183	1	3	107	mem	con	mod	mod	mod	nt	ht	nh/0664_nh.bmp
138.96	0.72	184	2	2	85	per	con	low	mod	low	nt	cr	nh/0295_nh.bmp
139.68	0.72	185	1	3	108	mem	con	mod	mod	mod	tg	ms	wh/0592.bmp
140.40	0.72	186	1	3	92	per	lib	mod	mod	mod	tg	ms	wh/0834.bmp
141.12	0.72	187	3	2	65	per	lib	mod	mod	mod	nt	cr	nh/0761_nh.bmp
141.84	0.72	188	1	3	72	per	con	low	mod	low	tg	ms	wh/0424.bmp
142.56	0.72	189	1	4	18	per	lib	low	mod	low	nt	cr	nh/0512_nh.bmp
143.28	0.72	190	2	4	62	per	con	mod	mod	mod	nt	cr	nh/0343_nh.bmp
144.00	0.72	191	2	4	4	mem	con	mod	mod	low	nt	ms	nh/0166_nh.bmp
144.72	0.72	192	1	4	102	mem	lib	low	low	mod	nt	ht	nh/0557_nh.bmp
145.44	0.72	193	2	1	44	per	lib	low	mod	low	nt	fa	nh/0511_nh.bmp
146.16	0.72	194	1	1	38	per	lib	low	mod	low	nt	fa	nh/0124_nh.bmp
146.88	0.72	195	1	3	73	per	con	low	mod	low	nt	cr	nh/0291_nh.bmp
147.60	0.72	196	1	2	35	mem	con	mod	mod	low	nt	ht	nh/0459_nh.bmp
148.32	0.72	197	2	2	35	mem	con	mod	mod	low	nt	ht	nh/0459_nh.bmp
149.04	0.72	198	1	1	127	per	con	mod	low	mod	nt	cr	nh/0991_nh.bmp
149.76	0.72	199	2	2	2	per	con	mod	mod	mod	tg	ht	wh/1010.bmp
150.48	0.72	200	2	2	118	mem	lib	mod	mod	mod	tg	ht	wh/0097.bmp
151.20	0.72	201	1	2	96	per	con	low	mod	low	tg	ms	wh/0007.bmp
151.92	0.72	202	3	4	4	mem	con	mod	mod	low	nt	ms	nh/0166_nh.bmp
152.64	0.72	203	2	1	26	mem	con	mod	mod	mod	tg	ms	wh/0279.bmp
153.36	0.72	204	3	3	42	mem	lib	mod	mod	mod	nt	ht	nh/0365_nh.bmp
154.08	0.72	205	1	3	78	per	con	low	mod	low	nt	cr	nh/0131_nh.bmp
154.80	0.72	206	1	3	109	mem	con	mod	mod	mod	nt	ms	nh/0895_nh.bmp
155.52	0.72	207	4	4	4	mem	con	mod	mod	low	nt	ms	nh/0166_nh.bmp
156.24	0.72	208	3	4	63	per	con	mod	mod	mod	nt	cr	nh/0538_nh.bmp
156.96	0.72	209	2	3	109	mem	con	mod	mod	mod	nt	ms	nh/0895_nh.bmp
157.68	0.72	210	1	3	65	per	con	low	mod	low	nt	cr	nh/0390_nh.bmp
158.40	0.72	211	1	4	108	mem	lib	low	low	mod	tg	ht	wh/0539.bmp
159.12	0.72	212	1	3	12	per	lib	low	low	low	tg	ms	wh/0271.bmp
159.84	0.72	213	3	4	51	per	con	mod	mod	mod	nt	cr	nh/0705_nh.bmp
160.56	0.72	214	1	3	8	per	lib	low	low	low	nt	fa	nh/0565_nh.bmp
161.28	0.72	215	2	4	9	mem	con	mod	mod	low	tg	ms	wh/0509.bmp
162.00	0.72	216	2	3	46	mem	lib	mod	mod	mod	tg	ht	wh/0943.bmp
162.72	0.72	217	2	2	9	per	con	mod	mod	mod	nt	cr	nh/0071_nh.bmp
163.44	0.72	218	4	2	80	per	lib	mod	mod	mod	tg	ht	wh/0970.bmp
164.16	0.72	219	2	2	36	mem	con	mod	mod	low	nt	ht	nh/0263_nh.bmp
164.88	0.72	220	1	3	49	per	con	mod	low	mod	tg	ms	wh/0409.bmp
165.60	0.72	221	3	2	42	mem	con	mod	mod	low	tg	ht	wh/0765.bmp
166.32	0.72	222	2	3	40	mem	lib	mod	mod	mod	nt	ht	nh/0049_nh.bmp
167.04	0.72	223	1	4	43	mem	con	low	low	mod	tg	ms	wh/0644.bmp
167.76	0.72	224	3	2	9	per	con	mod	mod	mod	nt	cr	nh/0071_nh.bmp
168.48	0.72	225	2	3	108	mem	con	mod	mod	mod	tg	ms	wh/0592.bmp
169.20	0.72	226	3	3	109	mem	con	mod	mod	mod	nt	ms	nh/0895_nh.bmp
169.92	0.72	227	3	3	46	mem	lib	mod	mod	mod	tg	ht	wh/0943.bmp
170.64	0.72	228	3	3	85	per	lib	mod	mod	mod	tg	ht	wh/0759.bmp
171.36	0.72	229	2	3	107	mem	con	mod	mod	mod	nt	ht	nh/0664_nh.bmp
172.08	0.72	230	2	3	104	mem	con	mod	mod	mod	nt	ms	nh/0448_nh.bmp
172.80	0.72	231	2	4	27	per	lib	low	mod	low	tg	ht	wh/0757.bmp
173.52	0.72	232	2	3	76	per	con	low	mod	low	tg	ms	wh/0615.bmp
174.24	0.72	233	1	4	88	per	con	low	low	low	tg	ms	wh/0653.bmp
174.96	0.72	234	3	3	107	mem	con	mod	mod	mod	nt	ht	nh/0664_nh.bmp
175.68	0.72	235	1	4	32	per	lib	low	mod	low	tg	ht	wh/0067.bmp
176.40	0.72	236	1	1	105	per	con	low	low	low	nt	cr	nh/0245_nh.bmp
177.12	0.72	237	3	3	76	per	con	low	mod	low	tg	ms	wh/0615.bmp
177.84	0.72	238	1	1	39	per	lib	low	mod	low	nt	fa	nh/0988_nh.bmp
178.56	0.72	239	1	1	35	per	lib	low	mod	low	tg	ht	wh/0203.bmp
179.28	0.72	240	2	1	39	per	lib	low	mod	low	nt	fa	nh/0988_nh.bmp
180.00	0.72	241	4	3	76	per	con	low	mod	low	tg	ms	wh/0615.bmp
180.72	0.72	242	2	3	73	per	con	low	mod	low	nt	cr	nh/0291_nh.bmp
181.44	0.72	243	1	3	95	per	lib	mod	mod	mod	nt	fa	nh/0039_nh.bmp
182.16	0.72	244	1	2	22	mem	lib	low	low	low	tg	ht	wh/0375.bmp
182.88	0.72	245	1	4	83	per	con	low	low	low	nt	cr	nh/0877_nh.bmp
183.60	0.72	246	1	1	49	per	lib	mod	low	mod	nt	fa	nh/0913_nh.bmp
184.32	0.72	247	3	2	85	per	con	low	mod	low	nt	cr	nh/0295_nh.bmp
185.04	0.72	248	4	4	51	per	con	mod	mod	mod	nt	cr	nh/0705_nh.bmp
185.76	0.72	249	1	2	104	per	lib	low	low	low	tg	ht	wh/0167.bmp
186.48	0.72	250	2	3	94	per	lib	mod	mod	mod	nt	cr	nh/0809_nh.bmp
187.20	0.72	251	2	4	8	mem	con	mod	mod	low	tg	ht	wh/0315.bmp
187.92	0.72	252	4	3	107	mem	con	mod	mod	mod	nt	ht	nh/0664_nh.bmp
188.64	0.72	253	4	1	89	mem	lib	mod	mod	low	tg	ht	wh/0259.bmp
189.36	0.72	254	4	3	46	mem	lib	mod	mod	mod	tg	ht	wh/0943.bmp
190.08	0.72	255	1	4	56	per	con	mod	mod	mod	nt	cr	nh/0151_nh.bmp
190.80	0.72	256	3	4	27	per	lib	low	mod	low	tg	ht	wh/0757.bmp
191.52	0.72	257	1	4	6	mem	con	mod	mod	low	nt	ht	nh/0030_nh.bmp
192.24	0.72	258	1	1	68	mem	lib	low	low	mod	nt	ht	nh/0854_nh.bmp
192.96	0.72	259	3	3	74	per	con	low	mod	low	nt	cr	nh/0523_nh.bmp
193.68	0.72	260	3	4	9	mem	con	mod	mod	low	tg	ms	wh/0509.bmp
194.40	0.72	261	3	2	35	mem	con	mod	mod	low	nt	ht	nh/0459_nh.bmp
195.12	0.72	262	2	2	127	mem	lib	mod	mod	mod	tg	ht	wh/0359.bmp
195.84	0.72	263	1	3	25	mem	lib	low	low	low	nt	ht	nh/0607_nh.bmp
196.56	0.72	264	2	2	34	mem	con	mod	mod	low	nt	ms	nh/0412_nh.bmp
197.28	0.72	265	1	3	59	per	con	mod	low	mod	tg	ms	wh/0474.bmp
198.00	0.72	266	2	2	96	per	con	low	mod	low	tg	ms	wh/0007.bmp
198.72	0.72	267	1	2	124	mem	lib	mod	mod	mod	tg	ht	wh/0331.bmp
199.44	0.72	268	2	1	23	mem	con	mod	mod	mod	tg	ht	wh/0925.bmp
200.16	0.72	269	5	2	80	per	lib	mod	mod	mod	tg	ht	wh/0970.bmp
200.88	0.72	270	4	4	63	per	con	mod	mod	mod	nt	cr	nh/0538_nh.bmp
201.60	0.72	271	1	4	57	per	con	mod	mod	mod	tg	ms	wh/0445.bmp
202.32	0.72	272	2	2	91	per	con	low	mod	low	nt	cr	nh/0415_nh.bmp
203.04	0.72	273	3	1	19	mem	con	mod	mod	mod	nt	ms	nh/0961_nh.bmp
203.76	0.72	274	2	2	120	mem	lib	mod	mod	mod	tg	ht	wh/0313.bmp
204.48	0.72	275	3	3	102	mem	con	mod	mod	mod	nt	ms	nh/0229_nh.bmp
205.20	0.72	276	2	3	78	per	con	low	mod	low	nt	cr	nh/0131_nh.bmp
205.92	0.72	277	2	3	45	mem	lib	mod	mod	mod	tg	ht	wh/0061.bmp
206.64	0.72	278	3	3	108	mem	con	mod	mod	mod	tg	ms	wh/0592.bmp
207.36	0.72	279	1	2	111	per	lib	low	low	low	nt	fa	nh/0327_nh.bmp
208.08	0.72	280	1	3	9	per	lib	low	low	low	nt	cr	nh/0632_nh.bmp
208.80	0.72	281	2	2	77	per	lib	mod	mod	mod	nt	fa	nh/0104_nh.bmp
209.52	0.72	282	1	3	24	mem	lib	low	low	low	tg	ht	wh/0720.bmp
210.24	0.72	283	2	2	125	mem	lib	mod	mod	mod	nt	ht	nh/0333_nh.bmp
210.96	0.72	284	3	1	83	mem	lib	mod	mod	low	tg	ht	wh/0671.bmp
211.68	0.72	285	1	2	110	per	lib	low	low	low	tg	ht	wh/0161.bmp
212.40	0.72	286	4	2	47	mem	con	mod	mod	low	nt	ht	nh/0293_nh.bmp
213.12	0.72	287	3	1	96	mem	lib	mod	mod	low	nt	ht	nh/0302_nh.bmp
213.84	0.72	288	2	4	126	mem	lib	mod	mod	low	tg	ht	wh/0400.bmp
214.56	0.72	289	3	2	91	per	con	low	mod	low	nt	cr	nh/0415_nh.bmp
215.28	0.72	290	4	2	65	per	lib	mod	mod	mod	nt	cr	nh/0761_nh.bmp
216.00	0.72	291	2	4	23	per	lib	low	mod	low	nt	cr	nh/0976_nh.bmp
216.72	0.72	292	1	4	44	mem	con	low	low	mod	nt	ms	nh/0937_nh.bmp
217.44	0.72	293	3	3	94	per	lib	mod	mod	mod	nt	cr	nh/0809_nh.bmp
218.16	0.72	294	4	2	9	per	con	mod	mod	mod	nt	cr	nh/0071_nh.bmp
218.88	0.72	295	2	3	101	mem	con	mod	mod	mod	tg	ms	wh/0479.bmp
219.60	0.72	296	2	4	57	per	con	mod	mod	mod	tg	ms	wh/0445.bmp
220.32	0.72	297	2	1	42	per	lib	low	mod	low	nt	fa	nh/0661_nh.bmp
221.04	0.72	298	4	4	60	per	con	mod	mod	mod	tg	ms	wh/0490.bmp
221.76	0.72	299	2	4	10	mem	con	mod	mod	low	tg	ht	wh/0575.bmp
222.48	0.72	300	3	1	23	mem	con	mod	mod	mod	tg	ht	wh/0925.bmp
223.20	0.72	301	3	4	10	mem	con	mod	mod	low	tg	ht	wh/0575.bmp
223.92	0.72	302	3	1	95	mem	lib	mod	mod	low	nt	ht	nh/0882_nh.bmp
224.64	0.72	303	1	2	78	per	lib	mod	mod	mod	tg	ht	wh/0583.bmp
225.36	0.72	304	3	2	125	mem	lib	mod	mod	mod	nt	ht	nh/0333_nh.bmp
226.08	0.72	305	2	3	92	per	lib	mod	mod	mod	tg	ms	wh/0834.bmp
226.80	0.72	306	4	4	9	mem	con	mod	mod	low	tg	ms	wh/0509.bmp
227.52	0.72	307	1	4	122	mem	lib	mod	mod	low	nt	ht	nh/0703_nh.bmp
228.24	0.72	308	2	2	69	per	lib	mod	mod	mod	nt	cr	nh/0413_nh.bmp
228.96	0.72	309	3	2	33	mem	con	mod	mod	low	tg	ms	wh/0554.bmp
229.68	0.72	310	1	3	90	per	lib	mod	mod	mod	tg	ht	wh/0358.bmp
230.40	0.72	311	3	1	91	mem	lib	mod	mod	low	nt	ht	nh/0212_nh.bmp
231.12	0.72	312	3	3	93	per	lib	mod	mod	mod	nt	cr	nh/0477_nh.bmp
231.84	0.72	313	3	4	125	mem	lib	mod	mod	low	tg	ht	wh/0283.bmp
232.56	0.72	314	3	4	25	per	lib	low	mod	low	nt	fa	nh/0683_nh.bmp
233.28	0.72	315	1	4	89	per	con	low	low	low	nt	cr	nh/0242_nh.bmp
234.00	0.72	316	4	3	102	mem	con	mod	mod	mod	nt	ms	nh/0229_nh.bmp
234.72	0.72	317	3	3	40	mem	lib	mod	mod	mod	nt	ht	nh/0049_nh.bmp
235.44	0.72	318	2	2	78	per	lib	mod	mod	mod	tg	ht	wh/0583.bmp
236.16	0.72	319	3	3	101	mem	con	mod	mod	mod	tg	ms	wh/0479.bmp
236.88	0.72	320	3	2	78	per	lib	mod	mod	mod	tg	ht	wh/0583.bmp
237.60	0.72	321	1	1	18	mem	con	mod	mod	mod	tg	ht	wh/0645.bmp
238.32	0.72	322	2	2	82	per	con	low	mod	low	nt	cr	nh/0444_nh.bmp
239.04	0.72	323	1	1	10	mem	con	low	low	mod	nt	ht	nh/0003_nh.bmp
239.76	0.72	324	3	3	73	per	con	low	mod	low	nt	cr	nh/0291_nh.bmp
240.48	0.72	325	1	4	59	per	con	mod	mod	mod	tg	ms	wh/0282.bmp
241.20	0.72	326	2	2	15	per	con	mod	mod	mod	nt	cr	nh/0901_nh.bmp
241.92	0.72	327	1	4	82	per	con	low	low	low	nt	cr	nh/0117_nh.bmp
242.64	0.72	328	4	1	95	mem	lib	mod	mod	low	nt	ht	nh/0882_nh.bmp
243.36	0.72	329	2	4	119	mem	lib	mod	mod	low	nt	ht	nh/0132_nh.bmp
244.08	0.72	330	3	4	119	mem	lib	mod	mod	low	nt	ht	nh/0132_nh.bmp
244.80	0.72	331	1	3	66	per	con	low	mod	low	tg	ms	wh/0798.bmp
245.52	0.72	332	3	2	77	per	lib	mod	mod	mod	nt	fa	nh/0104_nh.bmp
246.24	0.72	333	2	1	41	per	lib	low	mod	low	tg	ht	wh/0323.bmp
246.96	0.72	334	1	1	106	per	con	low	low	low	tg	ms	wh/0504.bmp
247.68	0.72	335	1	3	48	mem	lib	mod	mod	mod	nt	ht	nh/0604_nh.bmp
248.40	0.72	336	1	2	105	per	lib	low	low	low	nt	cr	nh/0110_nh.bmp
249.12	0.72	337	3	1	25	mem	con	mod	mod	mod	tg	ht	wh/0665.bmp
249.84	0.72	338	1	4	117	mem	lib	mod	mod	low	tg	ht	wh/0195.bmp
250.56	0.72	339	2	1	31	mem	con	mod	mod	mod	nt	ms	nh/0738_nh.bmp
251.28	0.72	340	3	2	66	per	lib	mod	mod	mod	tg	ht	wh/0674.bmp
252.00	0.72	341	2	4	122	mem	lib	mod	mod	low	nt	ht	nh/0703_nh.bmp
252.72	0.72	342	4	1	91	mem	lib	mod	mod	low	nt	ht	nh/0212_nh.bmp
253.44	0.72	343	3	4	62	per	con	mod	mod	mod	nt	cr	nh/0343_nh.bmp
254.16	0.72	344	4	2	85	per	con	low	mod	low	nt	cr	nh/0295_nh.bmp
254.88	0.72	345	2	3	72	per	con	low	mod	low	tg	ms	wh/0424.bmp
255.60	0.72	346	2	4	117	mem	lib	mod	mod	low	tg	ht	wh/0195.bmp
256.32	0.72	347	3	2	96	per	con	low	mod	low	tg	ms	wh/0007.bmp
257.04	0.72	348	1	3	43	mem	lib	mod	mod	mod	tg	ms	wh/0072.bmp
257.76	0.72	349	3	4	8	mem	con	mod	mod	low	tg	ht	wh/0315.bmp
258.48	0.72	350	4	4	10	mem	con	mod	mod	low	tg	ht	wh/0575.bmp
259.20	0.72	351	4	3	108	mem	con	mod	mod	mod	tg	ms	wh/0592.bmp
259.92	0.72	352	4	3	85	per	lib	mod	mod	mod	tg	ht	wh/0759.bmp
260.64	0.72	353	3	2	82	per	con	low	mod	low	nt	cr	nh/0444_nh.bmp
261.36	0.72	354	4	3	94	per	lib	mod	mod	mod	nt	cr	nh/0809_nh.bmp
262.08	0.72	355	5	3	46	mem	lib	mod	mod	mod	tg	ht	wh/0943.bmp
262.80	0.72	356	4	2	66	per	lib	mod	mod	mod	tg	ht	wh/0674.bmp
263.52	0.72	357	1	1	55	per	lib	mod	low	mod	tg	ht	wh/0813.bmp
264.24	0.72	358	3	3	99	mem	con	mod	mod	mod	tg	ht	wh/0806.bmp
264.96	0.72	359	2	3	43	mem	lib	mod	mod	mod	tg	ms	wh/0072.bmp
265.68	0.72	360	3	2	71	per	lib	mod	mod	mod	nt	cr	nh/0983_nh.bmp
266.40	0.72	361	2	4	6	mem	con	mod	mod	low	nt	ht	nh/0030_nh.bmp
267.12	0.72	362	2	1	35	per	lib	low	mod	low	tg	ht	wh/0203.bmp
267.84	0.72	363	2	2	5	per	con	mod	mod	mod	tg	ht	wh/0576.bmp
268.56	0.72	364	3	1	17	mem	con	mod	mod	mod	nt	ms	nh/0137_nh.bmp
269.28	0.72	365	2	2	124	mem	lib	mod	mod	mod	tg	ht	wh/0331.bmp
270.00	0.72	366	1	4	36	mem	con	low	low	mod	nt	ms	nh/0985_nh.bmp
270.72	0.72	367	4	2	42	mem	con	mod	mod	low	tg	ht	wh/0765.bmp
271.44	0.72	368	1	2	43	mem	con	mod	mod	low	tg	ms	wh/0914.bmp
272.16	0.72	369	5	2	85	per	con	low	mod	low	nt	cr	nh/0295_nh.bmp
272.88	0.72	370	1	3	51	per	con	mod	low	mod	nt	fa	nh/0620_nh.bmp
273.60	0.72	371	2	3	66	per	con	low	mod	low	tg	ms	wh/0798.bmp
274.32	0.72	372	3	3	104	mem	con	mod	mod	mod	nt	ms	nh/0448_nh.bmp
275.04	0.72	373	3	3	78	per	con	low	mod	low	nt	cr	nh/0131_nh.bmp
275.76	0.72	374	3	1	42	per	lib	low	mod	low	nt	fa	nh/0661_nh.bmp
276.48	0.72	375	2	4	56	per	con	mod	mod	mod	nt	cr	nh/0151_nh.bmp
277.20	0.72	376	1	3	6	per	lib	low	low	low	nt	fa	nh/0484_nh.bmp
277.92	0.72	377	3	4	54	per	con	mod	mod	mod	tg	ms	wh/0753.bmp
278.64	0.72	378	5	1	91	mem	lib	mod	mod	low	nt	ht	nh/0212_nh.bmp
279.36	0.72	379	3	2	46	mem	con	mod	mod	low	tg	ms	wh/0438.bmp
280.08	0.72	380	4	1	17	mem	con	mod	mod	mod	nt	ms	nh/0137_nh.bmp
280.80	0.72	381	1	3	55	per	con	mod	low	mod	nt	cr	nh/0457_nh.bmp
281.52	0.72	382	2	1	82	mem	lib	mod	mod	low	nt	ht	nh/0496_nh.bmp
282.24	0.72	383	3	4	117	mem	lib	mod	mod	low	tg	ht	wh/0195.bmp
282.96	0.72	384	3	2	120	mem	lib	mod	mod	mod	tg	ht	wh/0313.bmp
283.68	0.72	385	2	1	38	per	lib	low	mod	low	nt	fa	nh/0124_nh.bmp
284.40	0.72	386	1	2	11	per	con	mod	mod	mod	tg	ht	wh/1006.bmp
285.12	0.72	387	2	3	65	per	con	low	mod	low	nt	cr	nh/0390_nh.bmp
285.84	0.72	388	3	1	41	per	lib	low	mod	low	tg	ht	wh/0323.bmp
286.56	0.72	389	2	4	59	per	con	mod	mod	mod	tg	ms	wh/0282.bmp
287.28	0.72	390	1	4	34	mem	con	low	low	mod	nt	ht	nh/0052_nh.bmp
288.00	0.72	391	3	3	43	mem	lib	mod	mod	mod	tg	ms	wh/0072.bmp
288.72	0.72	392	2	2	43	mem	con	mod	mod	low	tg	ms	wh/0914.bmp
289.44	0.72	393	4	2	78	per	lib	mod	mod	mod	tg	ht	wh/0583.bmp
290.16	0.72	394	1	2	55	mem	con	low	low	low	tg	ht	wh/0078.bmp
290.88	0.72	395	3	4	122	mem	lib	mod	mod	low	nt	ht	nh/0703_nh.bmp
291.60	0.72	396	1	2	88	per	con	low	mod	low	nt	cr	nh/0312_nh.bmp
292.32	0.72	397	2	2	126	mem	lib	mod	mod	mod	nt	ht	nh/0799_nh.bmp
293.04	0.72	398	1	3	11	per	lib	low	low	low	tg	ms	wh/0252.bmp
293.76	0.72	399	4	3	99	mem	con	mod	mod	mod	tg	ht	wh/0806.bmp
294.48	0.72	400	3	2	127	mem	lib	mod	mod	mod	tg	ht	wh/0359.bmp
295.20	0.72	401	3	3	66	per	con	low	mod	low	tg	ms	wh/0798.bmp
295.92	0.72	402	4	3	43	mem	lib	mod	mod	mod	tg	ms	wh/0072.bmp
296.64	0.72	403	4	4	119	mem	lib	mod	mod	low	nt	ht	nh/0132_nh.bmp
297.36	0.72	404	5	3	108	mem	con	mod	mod	mod	tg	ms	wh/0592.bmp
298.08	0.72	405	3	4	23	per	lib	low	mod	low	nt	cr	nh/0976_nh.bmp
298.80	0.72	406	4	1	23	mem	con	mod	mod	mod	tg	ht	wh/0925.bmp
299.52	0.72	407	5	3	85	per	lib	mod	mod	mod	tg	ht	wh/0759.bmp
300.24	0.72	408	5	4	63	per	con	mod	mod	mod	nt	cr	nh/0538_nh.bmp
300.96	0.72	409	3	1	39	per	lib	low	mod	low	nt	fa	nh/0988_nh.bmp
301.68	0.72	410	4	3	42	mem	lib	mod	mod	mod	nt	ht	nh/0365_nh.bmp
302.40	0.72	411	3	2	126	mem	lib	mod	mod	mod	nt	ht	nh/0799_nh.bmp
303.12	0.72	412	5	3	43	mem	lib	mod	mod	mod	tg	ms	wh/0072.bmp
303.84	0.72	413	2	2	11	per	con	mod	mod	mod	tg	ht	wh/1006.bmp
304.56	0.72	414	4	1	39	per	lib	low	mod	low	nt	fa	nh/0988_nh.bmp
305.28	0.72	415	4	3	74	per	con	low	mod	low	nt	cr	nh/0523_nh.bmp
306.00	0.72	416	2	4	24	per	lib	low	mod	low	nt	cr	nh/0792_nh.bmp
306.72	0.72	417	5	2	66	per	lib	mod	mod	mod	tg	ht	wh/0674.bmp
307.44	0.72	418	3	1	35	per	lib	low	mod	low	tg	ht	wh/0203.bmp
308.16	0.72	419	3	4	11	mem	con	mod	mod	low	tg	ht	wh/0081.bmp
308.88	0.72	420	5	3	42	mem	lib	mod	mod	mod	nt	ht	nh/0365_nh.bmp
309.60	0.72	421	2	4	18	per	lib	low	mod	low	nt	cr	nh/0512_nh.bmp
310.32	0.72	422	4	4	8	mem	con	mod	mod	low	tg	ht	wh/0315.bmp
311.04	0.72	423	4	1	90	mem	lib	mod	mod	low	tg	ht	wh/0672.bmp
311.76	0.72	424	3	2	2	per	con	mod	mod	mod	tg	ht	wh/1010.bmp
312.48	0.72	425	3	4	120	mem	lib	mod	mod	low	tg	ht	wh/1000.bmp
313.20	0.72	426	3	4	18	per	lib	low	mod	low	nt	cr	nh/0512_nh.bmp
313.92	0.72	427	4	3	40	mem	lib	mod	mod	mod	nt	ht	nh/0049_nh.bmp
314.64	0.72	428	2	1	18	mem	con	mod	mod	mod	tg	ht	wh/0645.bmp
315.36	0.72	429	5	4	8	mem	con	mod	mod	low	tg	ht	wh/0315.bmp
316.08	0.72	430	2	3	95	per	lib	mod	mod	mod	nt	fa	nh/0039_nh.bmp
316.80	0.72	431	1	3	96	per	lib	mod	mod	mod	tg	ms	wh/0344.bmp
317.52	0.72	432	4	2	46	mem	con	mod	mod	low	tg	ms	wh/0438.bmp
318.24	0.72	433	4	2	91	per	con	low	mod	low	nt	cr	nh/0415_nh.bmp
318.96	0.72	434	2	2	87	per	con	low	mod	low	tg	ms	wh/1013.bmp
319.68	0.72	435	1	4	66	per	lib	mod	low	mod	nt	cr	nh/0192_nh.bmp
320.40	0.72	436	1	1	43	per	lib	low	mod	low	tg	ht	wh/0368.bmp
321.12	0.72	437	1	4	101	mem	lib	low	low	mod	nt	ht	nh/0346_nh.bmp
321.84	0.72	438	1	1	71	mem	lib	low	low	mod	tg	ht	wh/0811.bmp
322.56	0.72	439	3	4	56	per	con	mod	mod	mod	nt	cr	nh/0151_nh.bmp
323.28	0.72	440	4	2	126	mem	lib	mod	mod	mod	nt	ht	nh/0799_nh.bmp
324.00	0.72	441	1	3	57	per	con	mod	low	mod	nt	cr	nh/0726_nh.bmp
324.72	0.72	442	3	1	18	mem	con	mod	mod	mod	tg	ht	wh/0645.bmp
325.44	0.72	443	5	1	17	mem	con	mod	mod	mod	nt	ms	nh/0137_nh.bmp
326.16	0.72	444	3	2	7	per	con	mod	mod	mod	tg	ht	wh/0487.bmp
326.88	0.72	445	1	4	46	mem	con	low	low	mod	nt	ms	nh/0317_nh.bmp
327.60	0.72	446	3	4	114	mem	lib	mod	mod	low	nt	ht	nh/0454_nh.bmp
328.32	0.72	447	4	4	120	mem	lib	mod	mod	low	tg	ht	wh/1000.bmp
329.04	0.72	448	3	2	36	mem	con	mod	mod	low	nt	ht	nh/0263_nh.bmp
329.76	0.72	449	1	1	13	mem	con	low	low	mod	tg	ms	wh/0754.bmp
330.48	0.72	450	3	2	69	per	lib	mod	mod	mod	nt	cr	nh/0413_nh.bmp
331.20	0.72	451	3	1	31	mem	con	mod	mod	mod	nt	ms	nh/0738_nh.bmp
331.92	0.72	452	4	2	127	mem	lib	mod	mod	mod	tg	ht	wh/0359.bmp
332.64	0.72	453	3	3	95	per	lib	mod	mod	mod	nt	fa	nh/0039_nh.bmp
333.36	0.72	454	1	4	105	mem	lib	low	low	mod	tg	ht	wh/0670.bmp
334.08	0.72	455	2	2	84	per	con	low	mod	low	tg	ms	wh/0791.bmp
334.80	0.72	456	3	2	11	per	con	mod	mod	mod	tg	ht	wh/1006.bmp
335.52	0.72	457	4	3	93	per	lib	mod	mod	mod	nt	cr	nh/0477_nh.bmp
336.24	0.72	458	5	2	78	per	lib	mod	mod	mod	tg	ht	wh/0583.bmp
336.96	0.72	459	4	1	19	mem	con	mod	mod	mod	nt	ms	nh/0961_nh.bmp
337.68	0.72	460	4	4	125	mem	lib	mod	mod	low	tg	ht	wh/0283.bmp
338.40	0.72	461	3	1	44	per	lib	low	mod	low	nt	fa	nh/0511_nh.bmp
339.12	0.72	462	4	1	31	mem	con	mod	mod	mod	nt	ms	nh/0738_nh.bmp
339.84	0.72	463	1	4	47	mem	con	low	low	mod	tg	ms	wh/0595.bmp
340.56	0.72	464	1	1	79	mem	lib	low	low	mod	tg	ht	wh/0773.bmp
341.28	0.72	465	6	3	108	mem	con	mod	mod	mod	tg	ms	wh/0592.bmp
342.00	0.72	466	2	3	89	per	lib	mod	mod	mod	nt	cr	nh/0861_nh.bmp
342.72	0.72	467	2	3	112	mem	con	mod	mod	mod	tg	ht	wh/0689.bmp
343.44	0.72	468	1	4	99	mem	lib	low	low	mod	tg	ht	wh/0667.bmp
344.16	0.72	469	1	4	17	per	lib	low	mod	low	tg	ht	wh/0643.bmp
344.88	0.72	470	3	4	16	mem	con	mod	mod	low	nt	ht	nh/0410_nh.bmp
345.60	0.72	471	3	3	45	mem	lib	mod	mod	mod	tg	ht	wh/0061.bmp
346.32	0.72	472	2	4	32	per	lib	low	mod	low	tg	ht	wh/0067.bmp
347.04	0.72	473	4	3	78	per	con	low	mod	low	nt	cr	nh/0131_nh.bmp
347.76	0.72	474	3	3	92	per	lib	mod	mod	mod	tg	ms	wh/0834.bmp
348.48	0.72	475	4	4	62	per	con	mod	mod	mod	nt	cr	nh/0343_nh.bmp
349.20	0.72	476	5	1	23	mem	con	mod	mod	mod	tg	ht	wh/0925.bmp
349.92	0.72	477	2	4	17	per	lib	low	mod	low	tg	ht	wh/0643.bmp
350.64	0.72	478	3	3	65	per	con	low	mod	low	nt	cr	nh/0390_nh.bmp
351.36	0.72	479	5	3	74	per	con	low	mod	low	nt	cr	nh/0523_nh.bmp
352.08	0.72	480	4	1	96	mem	lib	mod	mod	low	nt	ht	nh/0302_nh.bmp
352.80	0.72	481	2	2	117	mem	lib	mod	mod	mod	nt	ht	nh/0628_nh.bmp
353.52	0.72	482	6	1	23	mem	con	mod	mod	mod	tg	ht	wh/0925.bmp
354.24	0.72	483	4	4	16	mem	con	mod	mod	low	nt	ht	nh/0410_nh.bmp
354.96	0.72	484	6	1	91	mem	lib	mod	mod	low	nt	ht	nh/0212_nh.bmp
355.68	0.72	485	3	4	121	mem	lib	mod	mod	low	nt	ht	nh/0641_nh.bmp
356.40	0.72	486	1	1	51	per	lib	mod	low	mod	nt	fa	nh/0470_nh.bmp
357.12	0.72	487	3	4	57	per	con	mod	mod	mod	tg	ms	wh/0445.bmp
357.84	0.72	488	1	4	21	per	lib	low	mod	low	tg	ms	wh/0174.bmp
358.56	0.72	489	4	3	39	mem	lib	mod	mod	mod	tg	ht	wh/0427.bmp
359.28	0.72	490	3	2	87	per	con	low	mod	low	tg	ms	wh/1013.bmp
360.00	0.72	491	3	1	93	mem	lib	mod	mod	low	tg	ht	wh/0422.bmp
360.72	0.72	492	4	1	93	mem	lib	mod	mod	low	tg	ht	wh/0422.bmp
361.44	0.72	493	1	1	126	per	con	mod	low	mod	tg	ms	wh/0886.bmp
362.16	0.72	494	6	3	46	mem	lib	mod	mod	mod	tg	ht	wh/0943.bmp
362.88	0.72	495	3	3	89	per	lib	mod	mod	mod	nt	cr	nh/0861_nh.bmp
363.60	0.72	496	5	2	113	mem	lib	mod	mod	mod	nt	ht	nh/0562_nh.bmp
364.32	0.72	497	1	2	107	per	lib	low	low	low	nt	fa	nh/0335_nh.bmp
365.04	0.72	498	1	2	99	per	lib	low	low	low	tg	ms	wh/0369.bmp
365.76	0.72	499	5	1	19	mem	con	mod	mod	mod	nt	ms	nh/0961_nh.bmp
366.48	0.72	500	4	3	95	per	lib	mod	mod	mod	nt	fa	nh/0039_nh.bmp
367.20	0.72	501	4	4	56	per	con	mod	mod	mod	nt	cr	nh/0151_nh.bmp
367.92	0.72	502	3	2	34	mem	con	mod	mod	low	nt	ms	nh/0412_nh.bmp
368.64	0.72	503	1	2	101	per	lib	low	low	low	nt	cr	nh/0783_nh.bmp
369.36	0.72	504	2	3	90	per	lib	mod	mod	mod	tg	ht	wh/0358.bmp
370.08	0.72	505	4	4	57	per	con	mod	mod	mod	tg	ms	wh/0445.bmp
370.80	0.72	506	5	4	10	mem	con	mod	mod	low	tg	ht	wh/0575.bmp
371.52	0.72	507	4	1	44	per	lib	low	mod	low	nt	fa	nh/0511_nh.bmp
372.24	0.72	508	1	1	66	mem	lib	low	low	mod	nt	ht	nh/0069_nh.bmp
372.96	0.72	509	4	2	36	mem	con	mod	mod	low	nt	ht	nh/0263_nh.bmp
373.68	0.72	510	3	4	126	mem	lib	mod	mod	low	tg	ht	wh/0400.bmp
374.40	0.72	511	3	3	67	per	con	low	mod	low	tg	ms	wh/0236.bmp
375.12	0.72	512	3	2	5	per	con	mod	mod	mod	tg	ht	wh/0576.bmp
375.84	0.72	513	5	1	96	mem	lib	mod	mod	low	nt	ht	nh/0302_nh.bmp
376.56	0.72	514	4	2	96	per	con	low	mod	low	tg	ms	wh/0007.bmp
377.28	0.72	515	3	4	2	mem	con	mod	mod	low	nt	ms	nh/0246_nh.bmp
378.00	0.72	516	3	2	84	per	con	low	mod	low	tg	ms	wh/0791.bmp
378.72	0.72	517	3	4	59	per	con	mod	mod	mod	tg	ms	wh/0282.bmp
379.44	0.72	518	3	2	4	per	con	mod	mod	mod	nt	cr	nh/0742_nh.bmp
380.16	0.72	519	6	4	63	per	con	mod	mod	mod	nt	cr	nh/0538_nh.bmp
380.88	0.72	520	4	3	92	per	lib	mod	mod	mod	tg	ms	wh/0834.bmp
381.60	0.72	521	1	3	52	per	con	mod	low	mod	tg	ms	wh/0085.bmp
382.32	0.72	522	2	1	43	per	lib	low	mod	low	tg	ht	wh/0368.bmp
383.04	0.72	523	5	3	107	mem	con	mod	mod	mod	nt	ht	nh/0664_nh.bmp
383.76	0.72	524	5	1	89	mem	lib	mod	mod	low	tg	ht	wh/0259.bmp
384.48	0.72	525	3	1	38	per	lib	low	mod	low	nt	fa	nh/0124_nh.bmp
385.20	0.72	526	3	4	24	per	lib	low	mod	low	nt	cr	nh/0792_nh.bmp
385.92	0.72	527	4	2	125	mem	lib	mod	mod	mod	nt	ht	nh/0333_nh.bmp
386.64	0.72	528	2	3	48	mem	lib	mod	mod	mod	nt	ht	nh/0604_nh.bmp
387.36	0.72	529	4	4	24	per	lib	low	mod	low	nt	cr	nh/0792_nh.bmp
388.08	0.72	530	4	4	18	per	lib	low	mod	low	nt	cr	nh/0512_nh.bmp
388.80	0.72	531	2	4	21	per	lib	low	mod	low	tg	ms	wh/0174.bmp
389.52	0.72	532	1	3	60	per	con	mod	low	mod	nt	cr	nh/0969_nh.bmp
390.24	0.72	533	5	1	93	mem	lib	mod	mod	low	tg	ht	wh/0422.bmp
390.96	0.72	534	3	1	43	per	lib	low	mod	low	tg	ht	wh/0368.bmp
391.68	0.72	535	4	4	126	mem	lib	mod	mod	low	tg	ht	wh/0400.bmp
392.40	0.72	536	3	3	90	per	lib	mod	mod	mod	tg	ht	wh/0358.bmp
393.12	0.72	537	4	3	45	mem	lib	mod	mod	mod	tg	ht	wh/0061.bmp
393.84	0.72	538	4	2	35	mem	con	mod	mod	low	nt	ht	nh/0459_nh.bmp
394.56	0.72	539	4	1	25	mem	con	mod	mod	mod	tg	ht	wh/0665.bmp
395.28	0.72	540	3	3	72	per	con	low	mod	low	tg	ms	wh/0424.bmp
396.00	0.72	541	5	4	125	mem	lib	mod	mod	low	tg	ht	wh/0283.bmp
396.72	0.72	542	3	4	32	per	lib	low	mod	low	tg	ht	wh/0067.bmp
397.44	0.72	543	4	1	24	mem	con	mod	mod	mod	nt	ht	nh/0796_nh.bmp
398.16	0.72	544	5	2	36	mem	con	mod	mod	low	nt	ht	nh/0263_nh.bmp
398.88	0.72	545	4	4	54	per	con	mod	mod	mod	tg	ms	wh/0753.bmp
399.60	0.72	546	3	4	21	per	lib	low	mod	low	tg	ms	wh/0174.bmp
400.32	0.72	547	5	3	45	mem	lib	mod	mod	mod	tg	ht	wh/0061.bmp
401.04	0.72	548	4	2	71	per	lib	mod	mod	mod	nt	cr	nh/0983_nh.bmp
401.76	0.72	549	5	3	76	per	con	low	mod	low	tg	ms	wh/0615.bmp
402.48	0.72	550	4	2	69	per	lib	mod	mod	mod	nt	cr	nh/0413_nh.bmp
403.20	0.72	551	5	3	99	mem	con	mod	mod	mod	tg	ht	wh/0806.bmp
403.92	0.72	552	6	1	93	mem	lib	mod	mod	low	tg	ht	wh/0422.bmp
404.64	0.72	553	3	3	36	mem	lib	mod	mod	mod	nt	ht	nh/0931_nh.bmp
405.36	0.72	554	3	3	48	mem	lib	mod	mod	mod	nt	ht	nh/0604_nh.bmp
406.08	0.72	555	5	1	24	mem	con	mod	mod	mod	nt	ht	nh/0796_nh.bmp
406.80	0.72	556	4	2	2	per	con	mod	mod	mod	tg	ht	wh/1010.bmp
407.52	0.72	557	4	2	5	per	con	mod	mod	mod	tg	ht	wh/0576.bmp
408.24	0.72	558	2	2	88	per	con	low	mod	low	nt	cr	nh/0312_nh.bmp
408.96	0.72	559	3	2	15	per	con	mod	mod	mod	nt	cr	nh/0901_nh.bmp
409.68	0.72	560	4	2	33	mem	con	mod	mod	low	tg	ms	wh/0554.bmp
410.40	0.72	561	4	2	11	per	con	mod	mod	mod	tg	ht	wh/1006.bmp
411.12	0.72	562	4	4	23	per	lib	low	mod	low	nt	cr	nh/0976_nh.bmp
411.84	0.72	563	4	2	82	per	con	low	mod	low	nt	cr	nh/0444_nh.bmp
412.56	0.72	564	1	4	111	mem	lib	low	low	mod	nt	ht	nh/0993_nh.bmp
413.28	0.72	565	5	4	4	mem	con	mod	mod	low	nt	ms	nh/0166_nh.bmp
414.00	0.72	566	3	2	124	mem	lib	mod	mod	mod	tg	ht	wh/0331.bmp
414.72	0.72	567	4	4	117	mem	lib	mod	mod	low	tg	ht	wh/0195.bmp
415.44	0.72	568	5	3	93	per	lib	mod	mod	mod	nt	cr	nh/0477_nh.bmp
416.16	0.72	569	5	2	65	per	lib	mod	mod	mod	nt	cr	nh/0761_nh.bmp
416.88	0.72	570	2	3	96	per	lib	mod	mod	mod	tg	ms	wh/0344.bmp
417.60	0.72	571	5	1	95	mem	lib	mod	mod	low	nt	ht	nh/0882_nh.bmp
418.32	0.72	572	4	2	77	per	lib	mod	mod	mod	nt	fa	nh/0104_nh.bmp
419.04	0.72	573	2	2	14	per	con	mod	mod	mod	nt	cr	nh/0320_nh.bmp
419.76	0.72	574	3	4	17	per	lib	low	mod	low	tg	ht	wh/0643.bmp
420.48	0.72	575	1	4	75	per	lib	mod	low	mod	nt	cr	nh/0004_nh.bmp
421.20	0.72	576	4	4	122	mem	lib	mod	mod	low	nt	ht	nh/0703_nh.bmp
421.92	0.72	577	4	3	89	per	lib	mod	mod	mod	nt	cr	nh/0861_nh.bmp
422.64	0.72	578	3	4	6	mem	con	mod	mod	low	nt	ht	nh/0030_nh.bmp
423.36	0.72	579	5	3	94	per	lib	mod	mod	mod	nt	cr	nh/0809_nh.bmp
424.08	0.72	580	4	2	124	mem	lib	mod	mod	mod	tg	ht	wh/0331.bmp
424.80	0.72	581	3	3	112	mem	con	mod	mod	mod	tg	ht	wh/0689.bmp
425.52	0.72	582	3	2	81	per	con	low	mod	low	tg	ms	wh/0494.bmp
426.24	0.72	583	4	1	41	per	lib	low	mod	low	tg	ht	wh/0323.bmp
426.96	0.72	584	4	4	32	per	lib	low	mod	low	tg	ht	wh/0067.bmp
427.68	0.72	585	6	2	85	per	con	low	mod	low	nt	cr	nh/0295_nh.bmp
428.40	0.72	586	5	2	127	mem	lib	mod	mod	mod	tg	ht	wh/0359.bmp
429.12	0.72	587	5	4	9	mem	con	mod	mod	low	tg	ms	wh/0509.bmp
429.84	0.72	588	5	1	41	per	lib	low	mod	low	tg	ht	wh/0323.bmp
430.56	0.72	589	4	4	21	per	lib	low	mod	low	tg	ms	wh/0174.bmp
431.28	0.72	590	1	2	29	mem	lib	low	low	low	tg	ht	wh/0309.bmp
432.00	0.72	591	6	3	94	per	lib	mod	mod	mod	nt	cr	nh/0809_nh.bmp
432.72	0.72	592	4	4	25	per	lib	low	mod	low	nt	fa	nh/0683_nh.bmp
433.44	0.72	593	3	1	82	mem	lib	mod	mod	low	nt	ht	nh/0496_nh.bmp
434.16	0.72	594	5	1	39	per	lib	low	mod	low	nt	fa	nh/0988_nh.bmp
434.88	0.72	595	4	2	84	per	con	low	mod	low	tg	ms	wh/0791.bmp
435.60	0.72	596	4	3	48	mem	lib	mod	mod	mod	nt	ht	nh/0604_nh.bmp
436.32	0.72	597	3	2	88	per	con	low	mod	low	nt	cr	nh/0312_nh.bmp
437.04	0.72	598	4	2	34	mem	con	mod	mod	low	nt	ms	nh/0412_nh.bmp
437.76	0.72	599	5	1	44	per	lib	low	mod	low	nt	fa	nh/0511_nh.bmp
438.48	0.72	600	4	3	101	mem	con	mod	mod	mod	tg	ms	wh/0479.bmp
439.20	0.72	601	1	3	119	mem	con	low	low	low	nt	ms	nh/0314_nh.bmp
439.92	0.72	602	5	2	125	mem	lib	mod	mod	mod	nt	ht	nh/0333_nh.bmp
440.64	0.72	603	5	4	21	per	lib	low	mod	low	tg	ms	wh/0174.bmp
441.36	0.72	604	5	1	31	mem	con	mod	mod	mod	nt	ms	nh/0738_nh.bmp
442.08	0.72	605	4	3	109	mem	con	mod	mod	mod	nt	ms	nh/0895_nh.bmp
442.80	0.72	606	3	2	117	mem	lib	mod	mod	mod	nt	ht	nh/0628_nh.bmp
443.52	0.72	607	6	2	65	per	lib	mod	mod	mod	nt	cr	nh/0761_nh.bmp
444.24	0.72	608	5	4	25	per	lib	low	mod	low	nt	fa	nh/0683_nh.bmp
444.96	0.72	609	4	2	15	per	con	mod	mod	mod	nt	cr	nh/0901_nh.bmp
445.68	0.72	610	1	3	31	mem	lib	low	low	low	nt	ht	nh/0127_nh.bmp
446.40	0.72	611	4	2	7	per	con	mod	mod	mod	tg	ht	wh/0487.bmp
447.12	0.72	612	5	3	48	mem	lib	mod	mod	mod	nt	ht	nh/0604_nh.bmp
447.84	0.72	613	1	4	74	per	lib	mod	low	mod	tg	ht	wh/0894.bmp
448.56	0.72	614	5	4	23	per	lib	low	mod	low	nt	cr	nh/0976_nh.bmp
449.28	0.72	615	5	2	84	per	con	low	mod	low	tg	ms	wh/0791.bmp
450.00	0.72	616	4	4	59	per	con	mod	mod	mod	tg	ms	wh/0282.bmp
450.72	0.72	617	4	2	88	per	con	low	mod	low	nt	cr	nh/0312_nh.bmp
451.44	0.72	618	4	1	38	per	lib	low	mod	low	nt	fa	nh/0124_nh.bmp
452.16	0.72	619	5	4	62	per	con	mod	mod	mod	nt	cr	nh/0343_nh.bmp
452.88	0.72	620	5	4	122	mem	lib	mod	mod	low	nt	ht	nh/0703_nh.bmp
453.60	0.72	621	5	3	102	mem	con	mod	mod	mod	nt	ms	nh/0229_nh.bmp
454.32	0.72	622	4	2	120	mem	lib	mod	mod	mod	tg	ht	wh/0313.bmp
455.04	0.72	623	4	3	67	per	con	low	mod	low	tg	ms	wh/0236.bmp
455.76	0.72	624	3	2	118	mem	lib	mod	mod	mod	tg	ht	wh/0097.bmp
456.48	0.72	625	5	2	120	mem	lib	mod	mod	mod	tg	ht	wh/0313.bmp
457.20	0.72	626	4	4	17	per	lib	low	mod	low	tg	ht	wh/0643.bmp
457.92	0.72	627	5	4	54	per	con	mod	mod	mod	tg	ms	wh/0753.bmp
458.64	0.72	628	5	4	119	mem	lib	mod	mod	low	nt	ht	nh/0132_nh.bmp
459.36	0.72	629	4	3	73	per	con	low	mod	low	nt	cr	nh/0291_nh.bmp
460.08	0.72	630	5	4	24	per	lib	low	mod	low	nt	cr	nh/0792_nh.bmp
460.80	0.72	631	4	3	36	mem	lib	mod	mod	mod	nt	ht	nh/0931_nh.bmp
461.52	0.72	632	5	4	60	per	con	mod	mod	mod	tg	ms	wh/0490.bmp
462.24	0.72	633	4	4	27	per	lib	low	mod	low	tg	ht	wh/0757.bmp
462.96	0.72	634	5	4	56	per	con	mod	mod	mod	nt	cr	nh/0151_nh.bmp
463.68	0.72	635	5	3	92	per	lib	mod	mod	mod	tg	ms	wh/0834.bmp
464.40	0.72	636	6	1	95	mem	lib	mod	mod	low	nt	ht	nh/0882_nh.bmp
465.12	0.72	637	4	3	112	mem	con	mod	mod	mod	tg	ht	wh/0689.bmp
465.84	0.72	638	5	4	51	per	con	mod	mod	mod	nt	cr	nh/0705_nh.bmp
466.56	0.72	639	4	3	104	mem	con	mod	mod	mod	nt	ms	nh/0448_nh.bmp
467.28	0.72	640	6	3	74	per	con	low	mod	low	nt	cr	nh/0523_nh.bmp
468.00	0.72	641	5	4	16	mem	con	mod	mod	low	nt	ht	nh/0410_nh.bmp
468.72	0.72	642	4	2	117	mem	lib	mod	mod	mod	nt	ht	nh/0628_nh.bmp
469.44	0.72	643	3	2	43	mem	con	mod	mod	low	tg	ms	wh/0914.bmp
470.16	0.72	644	5	4	59	per	con	mod	mod	mod	tg	ms	wh/0282.bmp
470.88	0.72	645	5	3	73	per	con	low	mod	low	nt	cr	nh/0291_nh.bmp
471.60	0.72	646	4	4	6	mem	con	mod	mod	low	nt	ht	nh/0030_nh.bmp
472.32	0.72	647	5	3	67	per	con	low	mod	low	tg	ms	wh/0236.bmp
473.04	0.72	648	4	1	83	mem	lib	mod	mod	low	tg	ht	wh/0671.bmp
473.76	0.72	649	1	2	60	mem	con	low	low	low	nt	ht	nh/0989_nh.bmp
474.48	0.72	650	4	1	35	per	lib	low	mod	low	tg	ht	wh/0203.bmp
475.20	0.72	651	3	3	96	per	lib	mod	mod	mod	tg	ms	wh/0344.bmp
475.92	0.72	652	3	1	26	mem	con	mod	mod	mod	tg	ms	wh/0279.bmp
476.64	0.72	653	4	3	72	per	con	low	mod	low	tg	ms	wh/0424.bmp
477.36	0.72	654	5	3	78	per	con	low	mod	low	nt	cr	nh/0131_nh.bmp
478.08	0.72	655	1	2	53	mem	con	low	low	low	nt	ms	nh/0916_nh.bmp
478.80	0.72	656	4	1	43	per	lib	low	mod	low	tg	ht	wh/0368.bmp
479.52	0.72	657	5	2	77	per	lib	mod	mod	mod	nt	fa	nh/0104_nh.bmp
480.24	0.72	658	5	2	82	per	con	low	mod	low	nt	cr	nh/0444_nh.bmp
480.96	0.72	659	5	3	72	per	con	low	mod	low	tg	ms	wh/0424.bmp
481.68	0.72	660	6	3	85	per	lib	mod	mod	mod	tg	ht	wh/0759.bmp
482.40	0.72	661	6	4	16	mem	con	mod	mod	low	nt	ht	nh/0410_nh.bmp
483.12	0.72	662	4	3	90	per	lib	mod	mod	mod	tg	ht	wh/0358.bmp
483.84	0.72	663	3	2	14	per	con	mod	mod	mod	nt	cr	nh/0320_nh.bmp
484.56	0.72	664	1	3	121	mem	con	low	low	low	tg	ms	wh/0819.bmp
485.28	0.72	665	5	4	117	mem	lib	mod	mod	low	tg	ht	wh/0195.bmp
486.00	0.72	666	5	2	96	per	con	low	mod	low	tg	ms	wh/0007.bmp
486.72	0.72	667	4	4	114	mem	lib	mod	mod	low	nt	ht	nh/0454_nh.bmp
487.44	0.72	668	6	4	4	mem	con	mod	mod	low	nt	ms	nh/0166_nh.bmp
488.16	0.72	669	4	2	118	mem	lib	mod	mod	mod	tg	ht	wh/0097.bmp
488.88	0.72	670	3	1	36	per	lib	low	mod	low	tg	ht	wh/0386.bmp
489.60	0.72	671	1	1	124	per	con	mod	low	mod	nt	cr	nh/0950_nh.bmp
490.32	0.72	672	5	4	6	mem	con	mod	mod	low	nt	ht	nh/0030_nh.bmp
491.04	0.72	673	6	4	25	per	lib	low	mod	low	nt	fa	nh/0683_nh.bmp
491.76	0.72	674	6	3	48	mem	lib	mod	mod	mod	nt	ht	nh/0604_nh.bmp
492.48	0.72	675	6	4	10	mem	con	mod	mod	low	tg	ht	wh/0575.bmp
493.20	0.72	676	1	1	69	mem	lib	low	low	mod	nt	ht	nh/0723_nh.bmp
493.92	0.72	677	6	1	24	mem	con	mod	mod	mod	nt	ht	nh/0796_nh.bmp
494.64	0.72	678	6	3	67	per	con	low	mod	low	tg	ms	wh/0236.bmp
495.36	0.72	679	6	1	89	mem	lib	mod	mod	low	tg	ht	wh/0259.bmp
496.08	0.72	680	4	2	76	per	lib	mod	mod	mod	tg	ms	wh/0348.bmp
496.80	0.72	681	4	1	82	mem	lib	mod	mod	low	nt	ht	nh/0496_nh.bmp
497.52	0.72	682	6	4	117	mem	lib	mod	mod	low	tg	ht	wh/0195.bmp
498.24	0.72	683	1	2	57	mem	con	low	low	low	nt	ht	nh/0169_nh.bmp
498.96	0.72	684	1	3	14	per	lib	low	low	low	tg	ht	wh/0310.bmp
499.68	0.72	685	5	4	114	mem	lib	mod	mod	low	nt	ht	nh/0454_nh.bmp
500.40	0.72	686	4	3	96	per	lib	mod	mod	mod	tg	ms	wh/0344.bmp
501.12	0.72	687	4	2	43	mem	con	mod	mod	low	tg	ms	wh/0914.bmp
501.84	0.72	688	5	2	7	per	con	mod	mod	mod	tg	ht	wh/0487.bmp
502.56	0.72	689	5	1	82	mem	lib	mod	mod	low	nt	ht	nh/0496_nh.bmp
503.28	0.72	690	6	2	78	per	lib	mod	mod	mod	tg	ht	wh/0583.bmp
504.00	0.72	691	6	3	45	mem	lib	mod	mod	mod	tg	ht	wh/0061.bmp
504.72	0.72	692	6	4	8	mem	con	mod	mod	low	tg	ht	wh/0315.bmp
505.44	0.72	693	1	1	5	mem	con	low	low	mod	tg	ms	wh/0891.bmp
506.16	0.72	694	6	3	99	mem	con	mod	mod	mod	tg	ht	wh/0806.bmp
506.88	0.72	695	5	2	117	mem	lib	mod	mod	mod	nt	ht	nh/0628_nh.bmp
507.60	0.72	696	5	2	71	per	lib	mod	mod	mod	nt	cr	nh/0983_nh.bmp
508.32	0.72	697	1	1	104	per	con	low	low	low	nt	cr	nh/0211_nh.bmp
509.04	0.72	698	6	3	42	mem	lib	mod	mod	mod	nt	ht	nh/0365_nh.bmp
509.76	0.72	699	4	1	42	per	lib	low	mod	low	nt	fa	nh/0661_nh.bmp
510.48	0.72	700	1	4	71	per	lib	mod	low	mod	tg	ht	wh/0214.bmp
511.20	0.72	701	5	2	35	mem	con	mod	mod	low	nt	ht	nh/0459_nh.bmp
511.92	0.72	702	5	2	76	per	lib	mod	mod	mod	tg	ms	wh/0348.bmp
512.64	0.72	703	5	3	112	mem	con	mod	mod	mod	tg	ht	wh/0689.bmp
513.36	0.72	704	6	2	76	per	lib	mod	mod	mod	tg	ms	wh/0348.bmp
514.08	0.72	705	6	3	72	per	con	low	mod	low	tg	ms	wh/0424.bmp
514.80	0.72	706	5	2	42	mem	con	mod	mod	low	tg	ht	wh/0765.bmp
515.52	0.72	707	4	2	4	per	con	mod	mod	mod	nt	cr	nh/0742_nh.bmp
516.24	0.72	708	6	2	96	per	con	low	mod	low	tg	ms	wh/0007.bmp
516.96	0.72	709	4	4	121	mem	lib	mod	mod	low	nt	ht	nh/0641_nh.bmp
517.68	0.72	710	1	1	102	per	con	low	low	low	tg	ms	wh/0908.bmp
518.40	0.72	711	1	2	58	mem	con	low	low	low	tg	ms	wh/0535.bmp
519.12	0.72	712	4	1	36	per	lib	low	mod	low	tg	ht	wh/0386.bmp
519.84	0.72	713	5	2	9	per	con	mod	mod	mod	nt	cr	nh/0071_nh.bmp
520.56	0.72	714	4	4	11	mem	con	mod	mod	low	tg	ht	wh/0081.bmp
521.28	0.72	715	6	2	7	per	con	mod	mod	mod	tg	ht	wh/0487.bmp
522.00	0.72	716	5	2	47	mem	con	mod	mod	low	nt	ht	nh/0293_nh.bmp
522.72	0.72	717	1	1	3	mem	con	low	low	mod	tg	ms	wh/0567.bmp
523.44	0.72	718	5	2	34	mem	con	mod	mod	low	nt	ms	nh/0412_nh.bmp
524.16	0.72	719	1	3	58	per	con	mod	low	mod	tg	ht	wh/0201.bmp
524.88	0.72	720	5	4	126	mem	lib	mod	mod	low	tg	ht	wh/0400.bmp
525.60	0.72	721	6	2	66	per	lib	mod	mod	mod	tg	ht	wh/0674.bmp
526.32	0.72	722	6	4	59	per	con	mod	mod	mod	tg	ms	wh/0282.bmp
527.04	0.72	723	5	3	104	mem	con	mod	mod	mod	nt	ms	nh/0448_nh.bmp
527.76	0.72	724	5	4	120	mem	lib	mod	mod	low	tg	ht	wh/1000.bmp
528.48	0.72	725	5	3	90	per	lib	mod	mod	mod	tg	ht	wh/0358.bmp
529.20	0.72	726	6	1	41	per	lib	low	mod	low	tg	ht	wh/0323.bmp
529.92	0.72	727	6	2	42	mem	con	mod	mod	low	tg	ht	wh/0765.bmp
530.64	0.72	728	5	2	2	per	con	mod	mod	mod	tg	ht	wh/1010.bmp
531.36	0.72	729	6	4	114	mem	lib	mod	mod	low	nt	ht	nh/0454_nh.bmp
532.08	0.72	730	5	2	69	per	lib	mod	mod	mod	nt	cr	nh/0413_nh.bmp
532.80	0.72	731	1	1	64	per	lib	mod	low	mod	tg	ht	wh/0050.bmp
533.52	0.72	732	6	4	6	mem	con	mod	mod	low	nt	ht	nh/0030_nh.bmp
534.24	0.72	733	6	2	84	per	con	low	mod	low	tg	ms	wh/0791.bmp
534.96	0.72	734	1	2	97	per	lib	low	low	low	tg	ms	wh/0010.bmp
535.68	0.72	735	5	4	32	per	lib	low	mod	low	tg	ht	wh/0067.bmp
536.40	0.72	736	5	1	38	per	lib	low	mod	low	nt	fa	nh/0124_nh.bmp
537.12	0.72	737	6	1	39	per	lib	low	mod	low	nt	fa	nh/0988_nh.bmp
537.84	0.72	738	1	4	107	mem	lib	low	low	mod	tg	ht	wh/1020.bmp
538.56	0.72	739	5	3	96	per	lib	mod	mod	mod	tg	ms	wh/0344.bmp
539.28	0.72	740	1	2	28	mem	lib	low	low	low	nt	ht	nh/0184_nh.bmp
540.00	0.72	741	4	2	87	per	con	low	mod	low	tg	ms	wh/1013.bmp
540.72	0.72	742	5	4	57	per	con	mod	mod	mod	tg	ms	wh/0445.bmp
541.44	0.72	743	1	3	113	mem	con	low	low	low	tg	ms	wh/0276.bmp
542.16	0.72	744	4	3	66	per	con	low	mod	low	tg	ms	wh/0798.bmp
542.88	0.72	745	5	4	121	mem	lib	mod	mod	low	nt	ht	nh/0641_nh.bmp
543.60	0.72	746	4	2	14	per	con	mod	mod	mod	nt	cr	nh/0320_nh.bmp
544.32	0.72	747	5	3	66	per	con	low	mod	low	tg	ms	wh/0798.bmp
545.04	0.72	748	5	4	27	per	lib	low	mod	low	tg	ht	wh/0757.bmp
545.76	0.72	749	4	3	65	per	con	low	mod	low	nt	cr	nh/0390_nh.bmp
546.48	0.72	750	5	2	46	mem	con	mod	mod	low	tg	ms	wh/0438.bmp
547.20	0.72	751	6	3	90	per	lib	mod	mod	mod	tg	ht	wh/0358.bmp
547.92	0.72	752	6	4	60	per	con	mod	mod	mod	tg	ms	wh/0490.bmp
548.64	0.72	753	5	3	40	mem	lib	mod	mod	mod	nt	ht	nh/0049_nh.bmp
549.36	0.72	754	6	2	127	mem	lib	mod	mod	mod	tg	ht	wh/0359.bmp
550.08	0.72	755	5	3	65	per	con	low	mod	low	nt	cr	nh/0390_nh.bmp
550.80	0.72	756	5	2	11	per	con	mod	mod	mod	tg	ht	wh/1006.bmp
551.52	0.72	757	6	3	104	mem	con	mod	mod	mod	nt	ms	nh/0448_nh.bmp
552.24	0.72	758	6	3	65	per	con	low	mod	low	nt	cr	nh/0390_nh.bmp
552.96	0.72	759	6	2	47	mem	con	mod	mod	low	nt	ht	nh/0293_nh.bmp
553.68	0.72	760	6	4	21	per	lib	low	mod	low	tg	ms	wh/0174.bmp
554.40	0.72	761	1	1	59	per	lib	mod	low	mod	tg	ht	wh/0502.bmp
555.12	0.72	762	5	2	4	per	con	mod	mod	mod	nt	cr	nh/0742_nh.bmp
555.84	0.72	763	5	3	109	mem	con	mod	mod	mod	nt	ms	nh/0895_nh.bmp
556.56	0.72	764	4	4	2	mem	con	mod	mod	low	nt	ms	nh/0246_nh.bmp
557.28	0.72	765	1	1	115	per	con	mod	low	mod	tg	ms	wh/0858.bmp
558.00	0.72	766	5	1	35	per	lib	low	mod	low	tg	ht	wh/0203.bmp
558.72	0.72	767	5	2	91	per	con	low	mod	low	nt	cr	nh/0415_nh.bmp
559.44	0.72	768	5	4	18	per	lib	low	mod	low	nt	cr	nh/0512_nh.bmp
560.16	0.72	769	1	3	116	mem	con	low	low	low	tg	ms	wh/0243.bmp
560.88	0.72	770	1	3	27	mem	lib	low	low	low	tg	ht	wh/0430.bmp
561.60	0.72	771	5	2	15	per	con	mod	mod	mod	nt	cr	nh/0901_nh.bmp
562.32	0.72	772	6	1	31	mem	con	mod	mod	mod	nt	ms	nh/0738_nh.bmp
563.04	0.72	773	5	1	42	per	lib	low	mod	low	nt	fa	nh/0661_nh.bmp
563.76	0.72	774	5	2	33	mem	con	mod	mod	low	tg	ms	wh/0554.bmp
564.48	0.72	775	5	2	118	mem	lib	mod	mod	mod	tg	ht	wh/0097.bmp
565.20	0.72	776	5	3	95	per	lib	mod	mod	mod	nt	fa	nh/0039_nh.bmp
565.92	0.72	777	6	2	11	per	con	mod	mod	mod	tg	ht	wh/1006.bmp
566.64	0.72	778	5	2	43	mem	con	mod	mod	low	tg	ms	wh/0914.bmp
567.36	0.72	779	5	2	87	per	con	low	mod	low	tg	ms	wh/1013.bmp
568.08	0.72	780	1	1	107	per	con	low	low	low	nt	cr	nh/0363_nh.bmp
568.80	0.72	781	6	3	93	per	lib	mod	mod	mod	nt	cr	nh/0477_nh.bmp
569.52	0.72	782	6	1	38	per	lib	low	mod	low	nt	fa	nh/0124_nh.bmp
570.24	0.72	783	6	4	32	per	lib	low	mod	low	tg	ht	wh/0067.bmp
570.96	0.72	784	5	3	36	mem	lib	mod	mod	mod	nt	ht	nh/0931_nh.bmp
571.68	0.72	785	4	1	26	mem	con	mod	mod	mod	tg	ms	wh/0279.bmp
572.40	0.72	786	5	4	17	per	lib	low	mod	low	tg	ht	wh/0643.bmp
573.12	0.72	787	6	2	87	per	con	low	mod	low	tg	ms	wh/1013.bmp
573.84	0.72	788	6	4	57	per	con	mod	mod	mod	tg	ms	wh/0445.bmp
574.56	0.72	789	6	2	9	per	con	mod	mod	mod	nt	cr	nh/0071_nh.bmp
575.28	0.72	790	5	3	39	mem	lib	mod	mod	mod	tg	ht	wh/0427.bmp
576.00	0.72	791	5	1	25	mem	con	mod	mod	mod	tg	ht	wh/0665.bmp
576.72	0.72	792	5	3	89	per	lib	mod	mod	mod	nt	cr	nh/0861_nh.bmp
577.44	0.72	793	6	2	15	per	con	mod	mod	mod	nt	cr	nh/0901_nh.bmp
578.16	0.72	794	5	2	5	per	con	mod	mod	mod	tg	ht	wh/0576.bmp
578.88	0.72	795	5	2	14	per	con	mod	mod	mod	nt	cr	nh/0320_nh.bmp
579.60	0.72	796	5	1	83	mem	lib	mod	mod	low	tg	ht	wh/0671.bmp
580.32	0.72	797	6	3	66	per	con	low	mod	low	tg	ms	wh/0798.bmp
581.04	0.72	798	6	1	96	mem	lib	mod	mod	low	nt	ht	nh/0302_nh.bmp
581.76	0.72	799	5	4	11	mem	con	mod	mod	low	tg	ht	wh/0081.bmp
582.48	0.72	800	6	3	78	per	con	low	mod	low	nt	cr	nh/0131_nh.bmp
583.20	0.72	801	5	1	90	mem	lib	mod	mod	low	tg	ht	wh/0672.bmp
583.92	0.72	802	6	3	40	mem	lib	mod	mod	mod	nt	ht	nh/0049_nh.bmp
584.64	0.72	803	5	4	2	mem	con	mod	mod	low	nt	ms	nh/0246_nh.bmp
585.36	0.72	804	6	4	27	per	lib	low	mod	low	tg	ht	wh/0757.bmp
586.08	0.72	805	4	1	18	mem	con	mod	mod	mod	tg	ht	wh/0645.bmp
586.80	0.72	806	6	2	91	per	con	low	mod	low	nt	cr	nh/0415_nh.bmp
587.52	0.72	807	5	2	126	mem	lib	mod	mod	mod	nt	ht	nh/0799_nh.bmp
588.24	0.72	808	6	2	46	mem	con	mod	mod	low	tg	ms	wh/0438.bmp
588.96	0.72	809	6	1	82	mem	lib	mod	mod	low	nt	ht	nh/0496_nh.bmp
589.68	0.72	810	1	4	93	per	con	low	low	low	nt	cr	nh/0026_nh.bmp
590.40	0.72	811	5	1	26	mem	con	mod	mod	mod	tg	ms	wh/0279.bmp
591.12	0.72	812	6	4	51	per	con	mod	mod	mod	nt	cr	nh/0705_nh.bmp
591.84	0.72	813	1	1	80	mem	lib	low	low	mod	tg	ht	wh/0917.bmp
592.56	0.72	814	6	4	23	per	lib	low	mod	low	nt	cr	nh/0976_nh.bmp
593.28	0.72	815	5	1	43	per	lib	low	mod	low	tg	ht	wh/0368.bmp
594.00	0.72	816	6	4	121	mem	lib	mod	mod	low	nt	ht	nh/0641_nh.bmp
594.72	0.72	817	6	3	112	mem	con	mod	mod	mod	tg	ht	wh/0689.bmp
595.44	0.72	818	1	1	14	mem	con	low	low	mod	nt	ht	nh/0630_nh.bmp
596.16	0.72	819	6	2	118	mem	lib	mod	mod	mod	tg	ht	wh/0097.bmp
596.88	0.72	820	6	4	122	mem	lib	mod	mod	low	nt	ht	nh/0703_nh.bmp
597.60	0.72	821	1	3	123	mem	con	low	low	low	nt	ms	nh/1003_nh.bmp
598.32	0.72	822	6	1	83	mem	lib	mod	mod	low	tg	ht	wh/0671.bmp
599.04	0.72	823	6	4	17	per	lib	low	mod	low	tg	ht	wh/0643.bmp
599.76	0.72	824	1	4	42	mem	con	low	low	mod	tg	ms	wh/0826.bmp
600.48	0.72	825	6	1	19	mem	con	mod	mod	mod	nt	ms	nh/0961_nh.bmp
601.20	0.72	826	5	3	101	mem	con	mod	mod	mod	tg	ms	wh/0479.bmp
601.92	0.72	827	1	4	77	per	lib	mod	low	mod	tg	ms	wh/0304.bmp
602.64	0.72	828	6	2	2	per	con	mod	mod	mod	tg	ht	wh/1010.bmp
603.36	0.72	829	6	4	119	mem	lib	mod	mod	low	nt	ht	nh/0132_nh.bmp
604.08	0.72	830	6	2	35	mem	con	mod	mod	low	nt	ht	nh/0459_nh.bmp
604.80	0.72	831	6	4	2	mem	con	mod	mod	low	nt	ms	nh/0246_nh.bmp
605.52	0.72	832	1	3	22	mem	lib	low	low	low	tg	ms	wh/0120.bmp
606.24	0.72	833	1	1	97	per	con	low	low	low	tg	ms	wh/0828.bmp
606.96	0.72	834	5	1	36	per	lib	low	mod	low	tg	ht	wh/0386.bmp
607.68	0.72	835	1	1	101	per	con	low	low	low	tg	ms	wh/0107.bmp
608.40	0.72	836	6	2	120	mem	lib	mod	mod	mod	tg	ht	wh/0313.bmp
609.12	0.72	837	6	2	5	per	con	mod	mod	mod	tg	ht	wh/0576.bmp
609.84	0.72	838	6	4	9	mem	con	mod	mod	low	tg	ms	wh/0509.bmp
610.56	0.72	839	6	2	14	per	con	mod	mod	mod	nt	cr	nh/0320_nh.bmp
611.28	0.72	840	6	3	107	mem	con	mod	mod	mod	nt	ht	nh/0664_nh.bmp
612.00	0.72	841	6	1	35	per	lib	low	mod	low	tg	ht	wh/0203.bmp
612.72	0.72	842	6	2	69	per	lib	mod	mod	mod	nt	cr	nh/0413_nh.bmp
613.44	0.72	843	6	3	109	mem	con	mod	mod	mod	nt	ms	nh/0895_nh.bmp
614.16	0.72	844	6	2	117	mem	lib	mod	mod	mod	nt	ht	nh/0628_nh.bmp
614.88	0.72	845	1	2	27	mem	lib	low	low	low	nt	ht	nh/0987_nh.bmp
615.60	0.72	846	6	1	43	per	lib	low	mod	low	tg	ht	wh/0368.bmp
616.32	0.72	847	6	2	36	mem	con	mod	mod	low	nt	ht	nh/0263_nh.bmp
617.04	0.72	848	6	1	36	per	lib	low	mod	low	tg	ht	wh/0386.bmp
617.76	0.72	849	6	2	80	per	lib	mod	mod	mod	tg	ht	wh/0970.bmp
618.48	0.72	850	5	2	124	mem	lib	mod	mod	mod	tg	ht	wh/0331.bmp
619.20	0.72	851	6	1	42	per	lib	low	mod	low	nt	fa	nh/0661_nh.bmp
619.92	0.72	852	6	3	76	per	con	low	mod	low	tg	ms	wh/0615.bmp
620.64	0.72	853	6	2	71	per	lib	mod	mod	mod	nt	cr	nh/0983_nh.bmp
621.36	0.72	854	6	1	26	mem	con	mod	mod	mod	tg	ms	wh/0279.bmp
622.08	0.72	855	6	4	62	per	con	mod	mod	mod	nt	cr	nh/0343_nh.bmp
622.80	0.72	856	6	2	126	mem	lib	mod	mod	mod	nt	ht	nh/0799_nh.bmp
623.52	0.72	857	6	4	18	per	lib	low	mod	low	nt	cr	nh/0512_nh.bmp
624.24	0.72	858	6	3	95	per	lib	mod	mod	mod	nt	fa	nh/0039_nh.bmp
624.96	0.72	859	6	3	101	mem	con	mod	mod	mod	tg	ms	wh/0479.bmp
625.68	0.72	860	6	3	96	per	lib	mod	mod	mod	tg	ms	wh/0344.bmp
626.40	0.72	861	6	3	89	per	lib	mod	mod	mod	nt	cr	nh/0861_nh.bmp
627.12	0.72	862	6	4	24	per	lib	low	mod	low	nt	cr	nh/0792_nh.bmp
627.84	0.72	863	5	2	88	per	con	low	mod	low	nt	cr	nh/0312_nh.bmp
628.56	0.72	864	6	2	124	mem	lib	mod	mod	mod	tg	ht	wh/0331.bmp
629.28	0.72	865	6	2	4	per	con	mod	mod	mod	nt	cr	nh/0742_nh.bmp
630.00	0.72	866	6	4	56	per	con	mod	mod	mod	nt	cr	nh/0151_nh.bmp
630.72	0.72	867	6	1	17	mem	con	mod	mod	mod	nt	ms	nh/0137_nh.bmp
631.44	0.72	868	6	2	43	mem	con	mod	mod	low	tg	ms	wh/0914.bmp
632.16	0.72	869	6	1	90	mem	lib	mod	mod	low	tg	ht	wh/0672.bmp
632.88	0.72	870	6	2	82	per	con	low	mod	low	nt	cr	nh/0444_nh.bmp
633.60	0.72	871	6	2	88	per	con	low	mod	low	nt	cr	nh/0312_nh.bmp
634.32	0.72	872	6	1	25	mem	con	mod	mod	mod	tg	ht	wh/0665.bmp
635.04	0.72	873	1	1	73	mem	lib	low	low	mod	tg	ht	wh/0517.bmp
635.76	0.72	874	6	3	73	per	con	low	mod	low	nt	cr	nh/0291_nh.bmp
636.48	0.72	875	6	2	33	mem	con	mod	mod	low	tg	ms	wh/0554.bmp
637.20	0.72	876	6	4	54	per	con	mod	mod	mod	tg	ms	wh/0753.bmp
637.92	0.72	877	6	2	34	mem	con	mod	mod	low	nt	ms	nh/0412_nh.bmp
638.64	0.72	878	1	1	75	mem	lib	low	low	mod	nt	ht	nh/0102_nh.bmp
639.36	0.72	879	5	1	18	mem	con	mod	mod	mod	tg	ht	wh/0645.bmp
640.08	0.72	880	6	3	102	mem	con	mod	mod	mod	nt	ms	nh/0229_nh.bmp
640.80	0.72	881	4	2	81	per	con	low	mod	low	tg	ms	wh/0494.bmp
641.52	0.72	882	6	3	36	mem	lib	mod	mod	mod	nt	ht	nh/0931_nh.bmp
642.24	0.72	883	6	2	113	mem	lib	mod	mod	mod	nt	ht	nh/0562_nh.bmp
642.96	0.72	884	6	4	126	mem	lib	mod	mod	low	tg	ht	wh/0400.bmp
643.68	0.72	885	6	4	125	mem	lib	mod	mod	low	tg	ht	wh/0283.bmp
644.40	0.72	886	6	4	120	mem	lib	mod	mod	low	tg	ht	wh/1000.bmp
645.12	0.72	887	6	2	125	mem	lib	mod	mod	mod	nt	ht	nh/0333_nh.bmp
645.84	0.72	888	6	2	77	per	lib	mod	mod	mod	nt	fa	nh/0104_nh.bmp
646.56	0.72	889	6	3	43	mem	lib	mod	mod	mod	tg	ms	wh/0072.bmp
647.28	0.72	890	6	3	39	mem	lib	mod	mod	mod	tg	ht	wh/0427.bmp
648.00	0.72	891	6	4	11	mem	con	mod	mod	low	tg	ht	wh/0081.bmp
648.72	0.72	892	6	1	44	per	lib	low	mod	low	nt	fa	nh/0511_nh.bmp
649.44	0.72	893	5	2	81	per	con	low	mod	low	tg	ms	wh/0494.bmp
650.16	0.72	894	6	3	92	per	lib	mod	mod	mod	tg	ms	wh/0834.bmp
650.88	0.72	895	6	1	18	mem	con	mod	mod	mod	tg	ht	wh/0645.bmp
651.60	0.72	896	6	2	81	per	con	low	mod	low	tg	ms	wh/0494.bmp
