onset	duration	block	trial	task	crit	disc	mem_disc	per_disc	trial_type	mem_type	per_type	left_option	resp_hand	response	accuracy	response_time	stim_file	pay	pay_tot
7.2	7.2	1	n/a	mem	con	mod	n/a	n/a	instructions	n/a	n/a	n/a	n/a	n/a	n/a	n/a	n/a	n/a	n/a
15.44	1.09719	1	1	mem	con	mod	mod	low	nt	nt	tg	nt	right	tg	fa	0.69719	wh/0455.bmp	-0.1	5.75
19.76	1.04492	1	2	mem	con	mod	mod	low	tg	tg	nt	tg	left	tg	ht	0.64492	nh/0641_nh.bmp	0.05	5.8
22.64	0.94948	1	3	mem	con	mod	mod	low	nt	nt	tg	tg	right	nt	cr	0.54948	wh/0205.bmp	0.05	5.85
26.24	1.0447	1	4	mem	con	mod	mod	low	tg	tg	tg	tg	left	tg	ht	0.6447	wh/0400.bmp	0.05	5.9
29.84	1.4819	1	5	mem	con	mod	mod	low	nt	nt	nt	tg	right	nt	cr	1.0819	nh/0116_nh.bmp	0.05	5.95
33.44	1.4589	1	6	mem	con	mod	mod	low	tg	tg	tg	tg	left	tg	ht	1.0589	wh/1000.bmp	0.05	6
36.32	1.06774	1	7	mem	con	mod	mod	low	nt	nt	tg	nt	right	tg	fa	0.66774	wh/0755.bmp	-0.1	5.9
40.64	1.28073	1	8	mem	con	mod	mod	low	tg	tg	nt	tg	right	nt	ms	0.88073	nh/0703_nh.bmp	0	5.9
44.96	1.961	1	9	mem	con	mod	mod	low	nt	nt	nt	tg	left	tg	fa	1.561	nh/0727_nh.bmp	-0.1	5.8
49.28	1.6049	1	10	mem	con	mod	mod	low	tg	tg	nt	nt	left	nt	ms	1.2049	nh/0454_nh.bmp	0	5.8
52.16	1.4599	1	11	mem	con	mod	mod	low	nt	nt	tg	nt	left	nt	cr	1.0599	wh/0168.bmp	0.05	5.85
56.48	1.46	1	12	mem	con	mod	mod	low	tg	tg	nt	nt	left	nt	ms	1.06	nh/0132_nh.bmp	0	5.85
60.08	1.5928	1	13	mem	con	mod	mod	low	tg	tg	tg	tg	right	nt	ms	1.1928	wh/0283.bmp	0	5.85
64.4	1.6239	1	14	mem	con	mod	mod	low	tg	tg	tg	tg	right	nt	ms	1.2239	wh/0195.bmp	0	5.85
67.28	1.6348	1	15	mem	con	mod	mod	low	nt	nt	nt	nt	left	nt	cr	1.2348	nh/1021_nh.bmp	0.05	5.9
70.88	1.05383	1	16	mem	con	mod	mod	low	nt	nt	nt	nt	right	tg	fa	0.65383	nh/0200_nh.bmp	-0.1	5.8
74.16	3.6	1	n/a	mem	con	mod	n/a	n/a	feedback	n/a	n/a	n/a	n/a	n/a	n/a	n/a	n/a	n/a	n/a
79.2	7.2	2	n/a	per	lib	mod	n/a	n/a	instructions	n/a	n/a	n/a	n/a	n/a	n/a	n/a	n/a	n/a	n/a
86.72	0.94181	2	17	per	lib	mod	low	mod	tg	tg	tg	nt	right	tg	ht	0.54181	wh/0409.bmp	0.05	5.85
91.04	1.20783	2	18	per	lib	mod	low	mod	nt	nt	nt	nt	left	nt	cr	0.80783	nh/0696_nh.bmp	0.05	5.9
93.92	1.14988	2	19	per	lib	mod	low	mod	nt	tg	nt	tg	right	nt	cr	0.74988	nh/0457_nh.bmp	0.05	5.95
96.8	1.00868	2	20	per	lib	mod	low	mod	tg	tg	tg	nt	right	tg	ht	0.60868	wh/0085.bmp	0.05	6
100.4	1.21987	2	21	per	lib	mod	low	mod	tg	nt	tg	nt	right	tg	ht	0.81987	wh/0476.bmp	0.05	6.05
103.28	1.15777	2	22	per	lib	mod	low	mod	nt	nt	nt	nt	right	tg	fa	0.75777	nh/0272_nh.bmp	0	6.05
106.16	1.01811	2	23	per	lib	mod	low	mod	tg	nt	tg	nt	right	tg	ht	0.61811	wh/0974.bmp	0.05	6.1
109.04	1.00674	2	24	per	lib	mod	low	mod	tg	nt	tg	nt	right	tg	ht	0.60674	wh/0322.bmp	0.05	6.15
112.64	1.5538	2	25	per	lib	mod	low	mod	nt	nt	nt	tg	right	nt	cr	1.1538	nh/0321_nh.bmp	0.05	6.2
116.24	1.06926	2	26	per	lib	mod	low	mod	nt	nt	nt	nt	right	tg	fa	0.66926	nh/0527_nh.bmp	0	6.2
120.56	1.8539	2	27	per	lib	mod	low	mod	nt	tg	nt	nt	left	nt	cr	1.4539	nh/0620_nh.bmp	0.05	6.25
124.16	1.16472	2	28	per	lib	mod	low	mod	tg	nt	tg	tg	left	tg	ht	0.76472	wh/0887.bmp	0.05	6.3
128.48	1.8808	2	29	per	lib	mod	low	mod	nt	tg	nt	nt	right	tg	fa	1.4808	nh/0969_nh.bmp	0	6.3
131.36	1.4479	2	30	per	lib	mod	low	mod	nt	tg	nt	tg	right	nt	cr	1.0479	nh/0726_nh.bmp	0.05	6.35
134.24	1.23889	2	31	per	lib	mod	low	mod	tg	tg	tg	tg	left	tg	ht	0.83889	wh/0474.bmp	0.05	6.4
137.12	1.3979	2	32	per	lib	mod	low	mod	tg	tg	tg	tg	left	tg	ht	0.9979	wh/0201.bmp	0.05	6.45
139.68	3.6	2	n/a	per	lib	mod	n/a	n/a	feedback	n/a	n/a	n/a	n/a	n/a	n/a	n/a	n/a	n/a	n/a
143.28	7.2	3	n/a	mem	lib	mod	n/a	n/a	instructions	n/a	n/a	n/a	n/a	n/a	n/a	n/a	n/a	n/a	n/a
151.52	0.97889	3	33	mem	lib	mod	mod	low	tg	tg	nt	tg	left	tg	ht	0.57889	nh/0166_nh.bmp	0.05	6.5
155.12	1.4899	3	34	mem	lib	mod	mod	low	nt	nt	tg	nt	left	nt	cr	1.0899	wh/0932.bmp	0.05	6.55
158	1.6339	3	35	mem	lib	mod	mod	low	tg	tg	nt	tg	right	nt	ms	1.2339	nh/0410_nh.bmp	-0.1	6.45
161.6	0.94076	3	36	mem	lib	mod	mod	low	tg	tg	nt	tg	left	tg	ht	0.54076	nh/0246_nh.bmp	0.05	6.5
165.92	1.21378	3	37	mem	lib	mod	mod	low	tg	tg	tg	tg	left	tg	ht	0.81378	wh/0315.bmp	0.05	6.55
168.8	1.13276	3	38	mem	lib	mod	mod	low	nt	nt	nt	tg	right	nt	cr	0.73276	nh/0298_nh.bmp	0.05	6.6
171.68	1.27787	3	39	mem	lib	mod	mod	low	nt	nt	tg	tg	left	tg	fa	0.87787	wh/0265.bmp	0	6.6
174.56	1.0941	3	40	mem	lib	mod	mod	low	tg	tg	nt	tg	left	tg	ht	0.6941	nh/0030_nh.bmp	0.05	6.65
178.16	1.0661	3	41	mem	lib	mod	mod	low	nt	nt	tg	nt	right	tg	fa	0.6661	wh/0648.bmp	0	6.65
181.04	1.7358	3	42	mem	lib	mod	mod	low	tg	tg	tg	nt	left	nt	ms	1.3358	wh/0509.bmp	-0.1	6.55
185.36	1.06456	3	43	mem	lib	mod	mod	low	nt	nt	tg	nt	right	tg	fa	0.66456	wh/0105.bmp	0	6.55
188.96	1.07028	3	44	mem	lib	mod	mod	low	nt	nt	nt	nt	right	tg	fa	0.67028	nh/0379_nh.bmp	0	6.55
191.84	2.255	3	45	mem	lib	mod	mod	low	nt	nt	nt	nt	right	tg	fa	1.855	nh/0897_nh.bmp	0	6.55
194.72	1.38996	3	46	mem	lib	mod	mod	low	tg	tg	tg	nt	right	tg	ht	0.98996	wh/0575.bmp	0.05	6.6
199.04	1.39895	3	47	mem	lib	mod	mod	low	tg	tg	tg	nt	right	tg	ht	0.99895	wh/0081.bmp	0.05	6.65
201.92	1.26876	3	48	mem	lib	mod	mod	low	nt	nt	nt	nt	left	nt	cr	0.86876	nh/0704_nh.bmp	0.05	6.7
204.48	3.6	3	n/a	mem	lib	mod	n/a	n/a	feedback	n/a	n/a	n/a	n/a	n/a	n/a	n/a	n/a	n/a	n/a
208.8	7.2	4	n/a	per	con	low	n/a	n/a	instructions	n/a	n/a	n/a	n/a	n/a	n/a	n/a	n/a	n/a	n/a
216.32	1.4919	4	49	per	con	low	low	low	tg	nt	tg	nt	left	nt	ms	1.0919	wh/0411.bmp	0	6.7
219.2	1.15193	4	50	per	con	low	low	low	tg	tg	tg	nt	left	nt	ms	0.75193	wh/0310.bmp	0	6.7
222.08	1.6858	4	51	per	con	low	low	low	tg	tg	tg	tg	left	tg	ht	1.2858	wh/0271.bmp	0.05	6.75
226.4	1.25183	4	52	per	con	low	low	low	tg	nt	tg	tg	right	nt	ms	0.85183	wh/0109.bmp	0	6.75
230	1.7048	4	53	per	con	low	low	low	nt	tg	nt	tg	right	nt	cr	1.3048	nh/0565_nh.bmp	0.05	6.8
233.6	1.15894	4	54	per	con	low	low	low	tg	nt	tg	tg	right	nt	ms	0.75894	wh/0486.bmp	0	6.8
236.48	1.4168	4	55	per	con	low	low	low	nt	tg	nt	nt	left	nt	cr	1.0168	nh/0632_nh.bmp	0.05	6.85
240.8	1.27074	4	56	per	con	low	low	low	nt	nt	nt	nt	left	nt	cr	0.87074	nh/0903_nh.bmp	0.05	6.9
243.68	1.04414	4	57	per	con	low	low	low	tg	tg	tg	nt	right	tg	ht	0.64414	wh/0252.bmp	0.05	6.95
246.56	1.4539	4	58	per	con	low	low	low	nt	nt	nt	nt	left	nt	cr	1.0539	nh/0499_nh.bmp	0.05	7
249.44	2.0887	4	59	per	con	low	low	low	tg	nt	tg	tg	left	tg	ht	1.6887	wh/0481.bmp	0.05	7.05
252.32	1.0509	4	60	per	con	low	low	low	nt	nt	nt	tg	right	nt	cr	0.6509	nh/0152_nh.bmp	0.05	7.1
255.92	1.05913	4	61	per	con	low	low	low	tg	tg	tg	nt	left	nt	ms	0.65913	wh/0021.bmp	0	7.1
260.24	1.02791	4	62	per	con	low	low	low	nt	tg	nt	nt	left	nt	cr	0.62791	nh/0264_nh.bmp	0.05	7.15
263.84	1.24981	4	63	per	con	low	low	low	nt	nt	nt	tg	right	nt	cr	0.84981	nh/0651_nh.bmp	0.05	7.2
266.72	1.37082	4	64	per	con	low	low	low	nt	tg	nt	nt	left	nt	cr	0.97082	nh/0484_nh.bmp	0.05	7.25
269.28	3.6	4	n/a	per	con	low	n/a	n/a	feedback	n/a	n/a	n/a	n/a	n/a	n/a	n/a	n/a	n/a	n/a
273.6	7.2	5	n/a	mem	con	low	n/a	n/a	instructions	n/a	n/a	n/a	n/a	n/a	n/a	n/a	n/a	n/a	n/a
282.56	1.20893	5	65	mem	con	low	low	low	nt	nt	tg	tg	right	nt	cr	0.80893	wh/0656.bmp	0.05	7.3
286.16	1.13776	5	66	mem	con	low	low	low	nt	nt	tg	tg	right	nt	cr	0.73776	wh/0817.bmp	0.05	7.35
289.04	1.28694	5	67	mem	con	low	low	low	nt	nt	nt	nt	right	tg	fa	0.88694	nh/0126_nh.bmp	-0.1	7.25
291.92	1.08034	5	68	mem	con	low	low	low	tg	tg	nt	nt	left	nt	ms	0.68034	nh/0808_nh.bmp	0	7.25
294.8	1.38892	5	69	mem	con	low	low	low	tg	tg	nt	nt	right	tg	ht	0.98892	nh/0607_nh.bmp	0.05	7.3
299.12	1.6769	5	70	mem	con	low	low	low	tg	tg	nt	nt	left	nt	ms	1.2769	nh/0127_nh.bmp	0	7.3
303.44	1.5709	5	71	mem	con	low	low	low	nt	nt	nt	nt	right	tg	fa	1.1709	nh/0423_nh.bmp	-0.1	7.2
306.32	1.20988	5	72	mem	con	low	low	low	nt	nt	tg	nt	left	nt	cr	0.80988	wh/0121.bmp	0.05	7.25
309.2	1.4709	5	73	mem	con	low	low	low	tg	tg	tg	nt	left	nt	ms	1.0709	wh/0720.bmp	0	7.25
313.52	1.37978	5	74	mem	con	low	low	low	nt	nt	nt	nt	left	nt	cr	0.97978	nh/1012_nh.bmp	0.05	7.3
316.4	1.14086	5	75	mem	con	low	low	low	tg	tg	tg	tg	right	nt	ms	0.74086	wh/0120.bmp	0	7.3
320	1.6777	5	76	mem	con	low	low	low	nt	nt	nt	tg	left	tg	fa	1.2777	nh/0794_nh.bmp	-0.1	7.2
323.6	1.38298	5	77	mem	con	low	low	low	nt	nt	tg	tg	right	nt	cr	0.98298	wh/1022.bmp	0.05	7.25
327.92	1.4777	5	78	mem	con	low	low	low	tg	tg	tg	nt	right	tg	ht	1.0777	wh/0130.bmp	0.05	7.3
330.8	1.18798	5	79	mem	con	low	low	low	tg	tg	tg	nt	left	nt	ms	0.78798	wh/0430.bmp	0	7.3
334.4	1.14692	5	80	mem	con	low	low	low	tg	tg	nt	nt	left	nt	ms	0.74692	nh/0492_nh.bmp	0	7.3
336.96	3.6	5	n/a	mem	con	low	n/a	n/a	feedback	n/a	n/a	n/a	n/a	n/a	n/a	n/a	n/a	n/a	n/a
340.56	7.2	6	n/a	mem	lib	low	n/a	n/a	instructions	n/a	n/a	n/a	n/a	n/a	n/a	n/a	n/a	n/a	n/a
349.52	1.22693	6	81	mem	lib	low	low	mod	tg	tg	nt	tg	left	tg	ht	0.82693	nh/0317_nh.bmp	0.05	7.35
352.4	1.456	6	82	mem	lib	low	low	mod	nt	nt	tg	nt	left	nt	cr	1.056	wh/0228.bmp	0.05	7.4
356.72	1.26897	6	83	mem	lib	low	low	mod	nt	nt	nt	tg	right	nt	cr	0.86897	nh/0406_nh.bmp	0.05	7.45
361.04	1.00253	6	84	mem	lib	low	low	mod	tg	tg	tg	nt	right	tg	ht	0.60253	wh/0595.bmp	0.05	7.5
363.92	1.625	6	85	mem	lib	low	low	mod	nt	nt	tg	nt	left	nt	cr	1.225	wh/0829.bmp	0.05	7.55
367.52	1.4699	6	86	mem	lib	low	low	mod	nt	nt	nt	nt	left	nt	cr	1.0699	nh/0550_nh.bmp	0.05	7.6
371.12	1.4499	6	87	mem	lib	low	low	mod	tg	tg	nt	tg	right	nt	ms	1.0499	nh/0937_nh.bmp	-0.1	7.5
374	0.99649	6	88	mem	lib	low	low	mod	nt	nt	tg	nt	right	tg	fa	0.59649	wh/0449.bmp	0	7.5
377.6	1.07064	6	89	mem	lib	low	low	mod	tg	tg	nt	tg	left	tg	ht	0.67064	nh/0985_nh.bmp	0.05	7.55
380.48	1.5458	6	90	mem	lib	low	low	mod	nt	nt	tg	tg	right	nt	cr	1.1458	wh/0885.bmp	0.05	7.6
384.8	1.06304	6	91	mem	lib	low	low	mod	nt	nt	nt	tg	left	tg	fa	0.66304	nh/0009_nh.bmp	0	7.6
389.12	1.4768	6	92	mem	lib	low	low	mod	tg	tg	tg	nt	right	tg	ht	1.0768	wh/0826.bmp	0.05	7.65
393.44	1.4249	6	93	mem	lib	low	low	mod	tg	tg	tg	nt	right	tg	ht	1.0249	wh/0498.bmp	0.05	7.7
397.76	1.32391	6	94	mem	lib	low	low	mod	tg	tg	nt	tg	left	tg	ht	0.92391	nh/0052_nh.bmp	0.05	7.75
400.64	1.0255	6	95	mem	lib	low	low	mod	tg	tg	tg	nt	right	tg	ht	0.6255	wh/0644.bmp	0.05	7.8
404.24	1.22481	6	96	mem	lib	low	low	mod	nt	nt	nt	nt	right	tg	fa	0.82481	nh/0910_nh.bmp	0	7.8
407.52	3.6	6	n/a	mem	lib	low	n/a	n/a	feedback	n/a	n/a	n/a	n/a	n/a	n/a	n/a	n/a	n/a	n/a
411.12	7.2	7	n/a	per	lib	low	n/a	n/a	instructions	n/a	n/a	n/a	n/a	n/a	n/a	n/a	n/a	n/a	n/a
419.36	1.5348	7	97	per	lib	low	mod	low	nt	tg	nt	tg	right	nt	cr	1.1348	nh/0291_nh.bmp	0.05	7.85
423.68	1.17282	7	98	per	lib	low	mod	low	tg	nt	tg	tg	right	nt	ms	0.77282	wh/0040.bmp	-0.1	7.75
426.56	1.33995	7	99	per	lib	low	mod	low	nt	nt	nt	tg	left	tg	fa	0.93995	nh/0649_nh.bmp	0	7.75
430.88	1.21973	7	100	per	lib	low	mod	low	nt	tg	nt	nt	left	nt	cr	0.81973	nh/0523_nh.bmp	0.05	7.8
433.76	1.15891	7	101	per	lib	low	mod	low	tg	tg	tg	nt	left	nt	ms	0.75891	wh/0798.bmp	-0.1	7.7
438.08	1.09974	7	102	per	lib	low	mod	low	nt	nt	nt	nt	right	tg	fa	0.69974	nh/0178_nh.bmp	0	7.7
440.96	2.3	7	103	per	lib	low	mod	low	tg	nt	tg	tg	left	tg	ht	1.9	wh/0027.bmp	0.05	7.75
445.28	1.37574	7	104	per	lib	low	mod	low	tg	nt	tg	nt	right	tg	ht	0.97574	wh/0741.bmp	0.05	7.8
449.6	1.5599	7	105	per	lib	low	mod	low	tg	nt	tg	tg	right	nt	ms	1.1599	wh/0115.bmp	-0.1	7.7
452.48	1.16078	7	106	per	lib	low	mod	low	tg	tg	tg	nt	right	tg	ht	0.76078	wh/0615.bmp	0.05	7.75
456.8	1.25497	7	107	per	lib	low	mod	low	nt	tg	nt	nt	right	tg	fa	0.85497	nh/0131_nh.bmp	0	7.75
459.68	1.674	7	108	per	lib	low	mod	low	tg	tg	tg	tg	right	nt	ms	1.274	wh/0424.bmp	-0.1	7.65
463.28	1.23169	7	109	per	lib	low	mod	low	tg	tg	tg	tg	left	tg	ht	0.83169	wh/0236.bmp	0.05	7.7
466.88	1.8468	7	110	per	lib	low	mod	low	nt	tg	nt	nt	left	nt	cr	1.4468	nh/0390_nh.bmp	0.05	7.75
471.2	1.04746	7	111	per	lib	low	mod	low	nt	nt	nt	nt	right	tg	fa	0.64746	nh/0014_nh.bmp	0	7.75
474.08	1.3809	7	112	per	lib	low	mod	low	nt	nt	nt	nt	right	tg	fa	0.9809	nh/0926_nh.bmp	0	7.75
476.64	3.6	7	n/a	per	lib	low	n/a	n/a	feedback	n/a	n/a	n/a	n/a	n/a	n/a	n/a	n/a	n/a	n/a
481.68	7.2	8	n/a	per	con	mod	n/a	n/a	instructions	n/a	n/a	n/a	n/a	n/a	n/a	n/a	n/a	n/a	n/a
489.2	0.94379	8	113	per	con	mod	low	mod	nt	nt	nt	tg	right	nt	cr	0.54379	nh/0087_nh.bmp	0.05	7.8
493.52	1.5858	8	114	per	con	mod	low	mod	nt	nt	nt	nt	left	nt	cr	1.1858	nh/0659_nh.bmp	0.05	7.85
497.12	1.4748	8	115	per	con	mod	low	mod	tg	tg	tg	tg	right	nt	ms	1.0748	wh/0214.bmp	0	7.85
500.72	1.18298	8	116	per	con	mod	low	mod	tg	tg	tg	tg	left	tg	ht	0.78298	wh/0894.bmp	0.05	7.9
503.6	1.14596	8	117	per	con	mod	low	mod	tg	nt	tg	nt	right	tg	ht	0.74596	wh/0553.bmp	0.05	7.95
507.2	1.25892	8	118	per	con	mod	low	mod	tg	tg	tg	tg	left	tg	ht	0.85892	wh/0872.bmp	0.05	8
511.52	1.37691	8	119	per	con	mod	low	mod	nt	tg	nt	nt	left	nt	cr	0.97691	nh/0004_nh.bmp	0.05	8.05
515.84	1.33275	8	120	per	con	mod	low	mod	tg	nt	tg	tg	left	tg	ht	0.93275	wh/0752.bmp	0.05	8.1
518.72	1.21882	8	121	per	con	mod	low	mod	nt	nt	nt	tg	right	nt	cr	0.81882	nh/0324_nh.bmp	0.05	8.15
522.32	1.14178	8	122	per	con	mod	low	mod	tg	tg	tg	tg	right	nt	ms	0.74178	wh/0304.bmp	0	8.15
526.64	1.30496	8	123	per	con	mod	low	mod	nt	tg	nt	nt	left	nt	cr	0.90496	nh/0707_nh.bmp	0.05	8.2
530.96	1.7667	8	124	per	con	mod	low	mod	tg	nt	tg	tg	left	tg	ht	1.3667	wh/0296.bmp	0.05	8.25
533.84	2.48	8	125	per	con	mod	low	mod	nt	nt	nt	tg	left	tg	fa	2.08	nh/0551_nh.bmp	-0.1	8.15
537.44	1.12388	8	126	per	con	mod	low	mod	tg	nt	tg	nt	right	tg	ht	0.72388	wh/0286.bmp	0.05	8.2
540.32	1.01525	8	127	per	con	mod	low	mod	nt	tg	nt	nt	left	nt	cr	0.61525	nh/0230_nh.bmp	0.05	8.25
543.2	1.14874	8	128	per	con	mod	low	mod	nt	tg	nt	tg	right	nt	cr	0.74874	nh/0192_nh.bmp	0.05	8.3
547.2	3.6	8	n/a	per	con	mod	n/a	n/a	feedback	n/a	n/a	n/a	n/a	n/a	n/a	n/a	n/a	n/a	n/a
