onset	duration	trial	pres	ts_blk	ts_trl	task	crit	disc	mem_disc	per_disc	per_type	accuracy	stim_file
7.20	0.72	1	1	2	29	per	con	mod	mod	mod	nt	cr	nh/0959_nh.bmp
7.92	0.72	2	1	3	48	mem	lib	mod	mod	mod	nt	ht	nh/0287_nh.bmp
8.64	0.72	3	1	3	36	mem	lib	mod	mod	mod	nt	ht	nh/0580_nh.bmp
9.36	0.72	4	1	1	121	per	con	low	low	low	tg	ht	wh/0121.bmp
10.08	0.72	5	1	4	43	mem	lib	low	low	mod	tg	ms	wh/0977.bmp
10.80	0.72	6	1	1	45	mem	con	mod	mod	mod	tg	ms	wh/0841.bmp
11.52	0.72	7	1	1	11	mem	con	low	low	mod	nt	ms	nh/0087_nh.bmp
12.24	0.72	8	1	4	83	per	lib	mod	mod	mod	tg	ht	wh/0429.bmp
12.96	0.72	9	1	4	112	mem	con	mod	mod	low	tg	ht	wh/0597.bmp
13.68	0.72	10	1	3	44	mem	lib	mod	mod	mod	nt	ht	nh/0878_nh.bmp
14.40	0.72	11	1	2	12	mem	lib	mod	mod	low	tg	ht	wh/0115.bmp
15.12	0.72	12	1	1	99	per	lib	mod	mod	mod	tg	ms	wh/0750.bmp
15.84	0.72	13	1	4	120	per	lib	low	mod	low	tg	ht	wh/0251.bmp
16.56	0.72	14	2	4	112	mem	con	mod	mod	low	tg	ht	wh/0597.bmp
17.28	0.72	15	1	2	68	per	lib	low	mod	low	tg	ms	wh/0932.bmp
18.00	0.72	16	1	2	4	mem	lib	mod	mod	low	tg	ht	wh/0741.bmp
18.72	0.72	17	1	1	112	per	lib	mod	mod	mod	nt	cr	nh/0679_nh.bmp
19.44	0.72	18	1	2	58	per	con	low	mod	low	nt	cr	nh/0200_nh.bmp
20.16	0.72	19	1	4	101	mem	con	mod	mod	low	tg	ht	wh/0019.bmp
20.88	0.72	20	1	1	42	mem	con	mod	mod	mod	nt	ht	nh/0463_nh.bmp
21.60	0.72	21	1	3	9	per	con	mod	mod	mod	tg	ht	wh/0466.bmp
22.32	0.72	22	1	4	106	mem	con	mod	mod	low	tg	ms	wh/0377.bmp
23.04	0.72	23	1	2	70	per	lib	low	mod	low	nt	cr	nh/0298_nh.bmp
23.76	0.72	24	1	3	19	mem	con	mod	mod	mod	nt	ht	nh/0955_nh.bmp
24.48	0.72	25	1	2	73	per	lib	low	mod	low	tg	ms	wh/0265.bmp
25.20	0.72	26	1	2	93	mem	con	mod	mod	low	tg	ms	wh/0392.bmp
25.92	0.72	27	1	2	20	per	con	mod	mod	mod	tg	ms	wh/0274.bmp
26.64	0.72	28	2	2	93	mem	con	mod	mod	low	tg	ms	wh/0392.bmp
27.36	0.72	29	1	4	97	mem	con	mod	mod	low	tg	ms	wh/0997.bmp
28.08	0.72	30	1	1	39	mem	con	mod	mod	mod	nt	ms	nh/0698_nh.bmp
28.80	0.72	31	1	1	28	mem	lib	low	low	low	tg	ht	wh/0008.bmp
29.52	0.72	32	1	1	93	mem	lib	mod	mod	mod	nt	ms	nh/0162_nh.bmp
30.24	0.72	33	2	3	9	per	con	mod	mod	mod	tg	ht	wh/0466.bmp
30.96	0.72	34	1	4	8	per	con	low	mod	low	nt	cr	nh/0766_nh.bmp
31.68	0.72	35	1	2	26	per	con	mod	mod	mod	nt	cr	nh/0017_nh.bmp
32.40	0.72	36	1	1	84	mem	lib	mod	mod	mod	tg	ht	wh/0002.bmp
33.12	0.72	37	3	2	93	mem	con	mod	mod	low	tg	ms	wh/0392.bmp
33.84	0.72	38	1	4	118	per	lib	low	mod	low	nt	cr	nh/0472_nh.bmp
34.56	0.72	39	1	4	86	per	lib	mod	mod	mod	tg	ht	wh/0627.bmp
35.28	0.72	40	1	3	33	mem	lib	mod	mod	mod	nt	ht	nh/0847_nh.bmp
36.00	0.72	41	1	3	32	mem	con	mod	mod	mod	tg	ms	wh/0896.bmp
36.72	0.72	42	1	3	101	per	con	low	low	low	nt	fa	nh/0307_nh.bmp
37.44	0.72	43	2	1	112	per	lib	mod	mod	mod	nt	cr	nh/0679_nh.bmp
38.16	0.72	44	1	3	121	per	lib	mod	low	mod	tg	ht	wh/0898.bmp
38.88	0.72	45	2	1	84	mem	lib	mod	mod	mod	tg	ht	wh/0002.bmp
39.60	0.72	46	1	4	127	per	lib	low	mod	low	tg	ms	wh/0624.bmp
40.32	0.72	47	1	4	13	per	con	low	mod	low	nt	cr	nh/0156_nh.bmp
41.04	0.72	48	1	2	2	mem	lib	mod	mod	low	nt	ht	nh/0649_nh.bmp
41.76	0.72	49	1	4	49	mem	lib	mod	mod	low	tg	ht	wh/0675.bmp
42.48	0.72	50	2	2	12	mem	lib	mod	mod	low	tg	ht	wh/0115.bmp
43.20	0.72	51	1	4	62	mem	lib	mod	mod	low	tg	ht	wh/0177.bmp
43.92	0.72	52	1	2	56	per	con	low	mod	low	nt	cr	nh/0116_nh.bmp
44.64	0.72	53	1	2	99	mem	lib	low	low	mod	nt	ht	nh/0696_nh.bmp
45.36	0.72	54	1	1	92	mem	lib	mod	mod	mod	tg	ht	wh/0526.bmp
46.08	0.72	55	1	1	101	per	lib	mod	mod	mod	nt	fa	nh/0942_nh.bmp
46.80	0.72	56	1	4	3	per	con	low	mod	low	tg	ms	wh/0231.bmp
47.52	0.72	57	1	4	53	mem	lib	mod	mod	low	tg	ht	wh/0739.bmp
48.24	0.72	58	1	4	81	per	lib	mod	mod	mod	nt	fa	nh/0899_nh.bmp
48.96	0.72	59	1	4	99	mem	con	mod	mod	low	nt	ms	nh/0066_nh.bmp
49.68	0.72	60	1	3	15	per	con	mod	mod	mod	nt	cr	nh/0801_nh.bmp
50.40	0.72	61	1	2	11	mem	lib	mod	mod	low	nt	ht	nh/0014_nh.bmp
51.12	0.72	62	2	4	62	mem	lib	mod	mod	low	tg	ht	wh/0177.bmp
51.84	0.72	63	1	3	93	mem	lib	low	low	low	nt	ht	nh/0028_nh.bmp
52.56	0.72	64	1	4	59	mem	lib	mod	mod	low	nt	ht	nh/0733_nh.bmp
53.28	0.72	65	1	2	78	per	lib	low	mod	low	tg	ms	wh/0105.bmp
54.00	0.72	66	2	2	73	per	lib	low	mod	low	tg	ms	wh/0265.bmp
54.72	0.72	67	2	4	3	per	con	low	mod	low	tg	ms	wh/0231.bmp
55.44	0.72	68	2	2	29	per	con	mod	mod	mod	nt	cr	nh/0959_nh.bmp
56.16	0.72	69	1	1	40	mem	con	mod	mod	mod	nt	ht	nh/0965_nh.bmp
56.88	0.72	70	1	4	95	per	lib	mod	mod	mod	nt	cr	nh/0289_nh.bmp
57.60	0.72	71	1	1	15	mem	con	low	low	mod	nt	ms	nh/0324_nh.bmp
58.32	0.72	72	1	4	126	per	lib	low	mod	low	nt	fa	nh/0573_nh.bmp
59.04	0.72	73	2	4	86	per	lib	mod	mod	mod	tg	ht	wh/0627.bmp
59.76	0.72	74	1	2	22	per	con	mod	mod	mod	tg	ht	wh/0775.bmp
60.48	0.72	75	1	2	18	per	con	mod	mod	mod	nt	cr	nh/0975_nh.bmp
61.20	0.72	76	1	1	88	mem	lib	mod	mod	mod	tg	ht	wh/0920.bmp
61.92	0.72	77	1	2	30	per	con	mod	mod	mod	tg	ht	wh/0189.bmp
62.64	0.72	78	1	1	85	mem	lib	mod	mod	mod	nt	ht	nh/0600_nh.bmp
63.36	0.72	79	1	4	107	mem	con	mod	mod	low	nt	ms	nh/0128_nh.bmp
64.08	0.72	80	1	1	122	per	con	low	low	low	nt	cr	nh/0423_nh.bmp
64.80	0.72	81	2	1	92	mem	lib	mod	mod	mod	tg	ht	wh/0526.bmp
65.52	0.72	82	2	3	44	mem	lib	mod	mod	mod	nt	ht	nh/0878_nh.bmp
66.24	0.72	83	1	2	98	mem	lib	low	low	mod	nt	ht	nh/0272_nh.bmp
66.96	0.72	84	2	4	120	per	lib	low	mod	low	tg	ht	wh/0251.bmp
67.68	0.72	85	1	1	48	mem	con	mod	mod	mod	tg	ht	wh/0204.bmp
68.40	0.72	86	1	1	90	mem	lib	mod	mod	mod	nt	ht	nh/0879_nh.bmp
69.12	0.72	87	1	3	77	mem	con	low	low	low	tg	ms	wh/0054.bmp
69.84	0.72	88	1	4	76	per	con	mod	low	mod	tg	ht	wh/0972.bmp
70.56	0.72	89	3	2	29	per	con	mod	mod	mod	nt	cr	nh/0959_nh.bmp
71.28	0.72	90	1	2	82	mem	con	mod	mod	low	nt	ms	nh/0155_nh.bmp
72.00	0.72	91	1	4	6	per	con	low	mod	low	nt	cr	nh/0745_nh.bmp
72.72	0.72	92	1	2	54	per	con	low	mod	low	tg	ms	wh/0168.bmp
73.44	0.72	93	1	2	27	per	con	mod	mod	mod	tg	ht	wh/0405.bmp
74.16	0.72	94	1	4	87	per	lib	mod	mod	mod	tg	ms	wh/0692.bmp
74.88	0.72	95	2	3	32	mem	con	mod	mod	mod	tg	ms	wh/0896.bmp
75.60	0.72	96	2	4	126	per	lib	low	mod	low	nt	fa	nh/0573_nh.bmp
76.32	0.72	97	1	4	66	per	con	mod	low	mod	nt	cr	nh/0367_nh.bmp
77.04	0.72	98	1	1	78	per	lib	low	low	low	tg	ms	wh/0076.bmp
77.76	0.72	99	2	3	19	mem	con	mod	mod	mod	nt	ht	nh/0955_nh.bmp
78.48	0.72	100	1	3	3	per	con	mod	mod	mod	tg	ht	wh/0981.bmp
79.20	0.72	101	2	4	107	mem	con	mod	mod	low	nt	ms	nh/0128_nh.bmp
79.92	0.72	102	1	2	76	per	lib	low	mod	low	nt	cr	nh/0704_nh.bmp
80.64	0.72	103	1	4	60	mem	lib	mod	mod	low	nt	ht	nh/0421_nh.bmp
81.36	0.72	104	1	4	11	per	con	low	mod	low	tg	ms	wh/0145.bmp
82.08	0.72	105	3	1	112	per	lib	mod	mod	mod	nt	cr	nh/0679_nh.bmp
82.80	0.72	106	1	4	35	mem	lib	low	low	mod	nt	ms	nh/0905_nh.bmp
83.52	0.72	107	1	4	12	per	con	low	mod	low	tg	ms	wh/0514.bmp
84.24	0.72	108	2	4	118	per	lib	low	mod	low	nt	cr	nh/0472_nh.bmp
84.96	0.72	109	1	2	60	per	con	low	mod	low	tg	ms	wh/0755.bmp
85.68	0.72	110	1	2	59	per	con	low	mod	low	nt	cr	nh/1021_nh.bmp
86.40	0.72	111	2	2	26	per	con	mod	mod	mod	nt	cr	nh/0017_nh.bmp
87.12	0.72	112	3	3	32	mem	con	mod	mod	mod	tg	ms	wh/0896.bmp
87.84	0.72	113	2	2	18	per	con	mod	mod	mod	nt	cr	nh/0975_nh.bmp
88.56	0.72	114	1	2	88	mem	con	mod	mod	low	tg	ht	wh/0031.bmp
89.28	0.72	115	2	4	127	per	lib	low	mod	low	tg	ms	wh/0624.bmp
90.00	0.72	116	3	4	3	per	con	low	mod	low	tg	ms	wh/0231.bmp
90.72	0.72	117	1	2	81	mem	con	mod	mod	low	nt	ms	nh/0133_nh.bmp
91.44	0.72	118	2	2	54	per	con	low	mod	low	tg	ms	wh/0168.bmp
92.16	0.72	119	2	1	101	per	lib	mod	mod	mod	nt	fa	nh/0942_nh.bmp
92.88	0.72	120	1	4	108	mem	con	mod	mod	low	nt	ht	nh/0529_nh.bmp
93.60	0.72	121	3	4	112	mem	con	mod	mod	low	tg	ht	wh/0597.bmp
94.32	0.72	122	2	4	87	per	lib	mod	mod	mod	tg	ms	wh/0692.bmp
95.04	0.72	123	3	4	127	per	lib	low	mod	low	tg	ms	wh/0624.bmp
95.76	0.72	124	1	4	111	mem	con	mod	mod	low	nt	ms	nh/0816_nh.bmp
96.48	0.72	125	1	3	82	mem	lib	low	low	low	nt	ht	nh/0771_nh.bmp
97.20	0.72	126	2	2	2	mem	lib	mod	mod	low	nt	ht	nh/0649_nh.bmp
97.92	0.72	127	1	4	14	per	con	low	mod	low	tg	ht	wh/0325.bmp
98.64	0.72	128	2	2	59	per	con	low	mod	low	nt	cr	nh/1021_nh.bmp
99.36	0.72	129	1	4	90	per	lib	mod	mod	mod	tg	ht	wh/0098.bmp
100.08	0.72	130	4	2	93	mem	con	mod	mod	low	tg	ms	wh/0392.bmp
100.80	0.72	131	1	3	13	per	con	mod	mod	mod	nt	cr	nh/0605_nh.bmp
101.52	0.72	132	1	1	107	per	lib	mod	mod	mod	nt	cr	nh/0637_nh.bmp
102.24	0.72	133	1	1	64	per	con	mod	low	mod	nt	cr	nh/0856_nh.bmp
102.96	0.72	134	1	4	65	per	con	mod	low	mod	nt	cr	nh/0288_nh.bmp
103.68	0.72	135	1	4	37	mem	lib	low	low	mod	tg	ht	wh/0912.bmp
104.40	0.72	136	1	1	38	mem	con	mod	mod	mod	tg	ms	wh/0585.bmp
105.12	0.72	137	2	4	83	per	lib	mod	mod	mod	tg	ht	wh/0429.bmp
105.84	0.72	138	1	1	105	per	lib	mod	mod	mod	tg	ht	wh/0183.bmp
106.56	0.72	139	2	4	101	mem	con	mod	mod	low	tg	ht	wh/0019.bmp
107.28	0.72	140	2	2	78	per	lib	low	mod	low	tg	ms	wh/0105.bmp
108.00	0.72	141	1	1	37	mem	con	mod	mod	mod	tg	ht	wh/0561.bmp
108.72	0.72	142	2	4	97	mem	con	mod	mod	low	tg	ms	wh/0997.bmp
109.44	0.72	143	2	4	106	mem	con	mod	mod	low	tg	ms	wh/0377.bmp
110.16	0.72	144	1	3	42	mem	lib	mod	mod	mod	tg	ht	wh/0919.bmp
110.88	0.72	145	3	2	78	per	lib	low	mod	low	tg	ms	wh/0105.bmp
111.60	0.72	146	1	3	21	mem	con	mod	mod	mod	nt	ht	nh/0700_nh.bmp
112.32	0.72	147	2	1	88	mem	lib	mod	mod	mod	tg	ht	wh/0920.bmp
113.04	0.72	148	1	2	97	mem	lib	low	low	mod	tg	ht	wh/0322.bmp
113.76	0.72	149	3	2	18	per	con	mod	mod	mod	nt	cr	nh/0975_nh.bmp
114.48	0.72	150	2	3	42	mem	lib	mod	mod	mod	tg	ht	wh/0919.bmp
115.20	0.72	151	4	3	32	mem	con	mod	mod	mod	tg	ms	wh/0896.bmp
115.92	0.72	152	1	4	115	per	lib	low	mod	low	tg	ms	wh/0836.bmp
116.64	0.72	153	1	4	125	per	lib	low	mod	low	nt	fa	nh/0769_nh.bmp
117.36	0.72	154	2	4	95	per	lib	mod	mod	mod	nt	cr	nh/0289_nh.bmp
118.08	0.72	155	2	4	49	mem	lib	mod	mod	low	tg	ht	wh/0675.bmp
118.80	0.72	156	1	2	51	per	con	low	mod	low	tg	ms	wh/0205.bmp
119.52	0.72	157	1	2	16	mem	lib	mod	mod	low	tg	ht	wh/0027.bmp
120.24	0.72	158	3	4	87	per	lib	mod	mod	mod	tg	ms	wh/0692.bmp
120.96	0.72	159	1	3	30	mem	con	mod	mod	mod	nt	ht	nh/0001_nh.bmp
121.68	0.72	160	1	2	61	per	con	low	mod	low	nt	cr	nh/0727_nh.bmp
122.40	0.72	161	4	4	3	per	con	low	mod	low	tg	ms	wh/0231.bmp
123.12	0.72	162	2	1	42	mem	con	mod	mod	mod	nt	ht	nh/0463_nh.bmp
123.84	0.72	163	2	2	11	mem	lib	mod	mod	low	nt	ht	nh/0014_nh.bmp
124.56	0.72	164	1	2	74	per	lib	low	mod	low	nt	fa	nh/0897_nh.bmp
125.28	0.72	165	2	3	15	per	con	mod	mod	mod	nt	cr	nh/0801_nh.bmp
126.00	0.72	166	1	3	2	per	con	mod	mod	mod	nt	cr	nh/0414_nh.bmp
126.72	0.72	167	1	1	109	per	lib	mod	mod	mod	tg	ht	wh/0473.bmp
127.44	0.72	168	1	4	51	mem	lib	mod	mod	low	nt	ht	nh/0341_nh.bmp
128.16	0.72	169	3	2	73	per	lib	low	mod	low	tg	ms	wh/0265.bmp
128.88	0.72	170	1	3	14	per	con	mod	mod	mod	tg	ms	wh/0534.bmp
129.60	0.72	171	2	2	61	per	con	low	mod	low	nt	cr	nh/0727_nh.bmp
130.32	0.72	172	1	2	8	mem	lib	mod	mod	low	nt	ht	nh/0926_nh.bmp
131.04	0.72	173	2	4	12	per	con	low	mod	low	tg	ms	wh/0514.bmp
131.76	0.72	174	2	1	107	per	lib	mod	mod	mod	nt	cr	nh/0637_nh.bmp
132.48	0.72	175	2	3	36	mem	lib	mod	mod	mod	nt	ht	nh/0580_nh.bmp
133.20	0.72	176	2	2	60	per	con	low	mod	low	tg	ms	wh/0755.bmp
133.92	0.72	177	3	4	97	mem	con	mod	mod	low	tg	ms	wh/0997.bmp
134.64	0.72	178	1	3	103	per	con	low	low	low	nt	cr	nh/0065_nh.bmp
135.36	0.72	179	1	4	54	mem	lib	mod	mod	low	nt	ms	nh/0868_nh.bmp
136.08	0.72	180	2	1	99	per	lib	mod	mod	mod	tg	ms	wh/0750.bmp
136.80	0.72	181	1	1	87	mem	lib	mod	mod	mod	tg	ht	wh/0724.bmp
137.52	0.72	182	1	3	25	mem	con	mod	mod	mod	tg	ms	wh/0935.bmp
138.24	0.72	183	1	2	77	per	lib	low	mod	low	tg	ht	wh/0648.bmp
138.96	0.72	184	2	1	109	per	lib	mod	mod	mod	tg	ht	wh/0473.bmp
139.68	0.72	185	1	3	47	mem	lib	mod	mod	mod	tg	ht	wh/0070.bmp
140.40	0.72	186	1	4	50	mem	lib	mod	mod	low	tg	ht	wh/0217.bmp
141.12	0.72	187	3	1	92	mem	lib	mod	mod	mod	tg	ht	wh/0526.bmp
141.84	0.72	188	1	3	57	per	lib	low	low	low	tg	ht	wh/0788.bmp
142.56	0.72	189	5	3	32	mem	con	mod	mod	mod	tg	ms	wh/0896.bmp
143.28	0.72	190	2	4	13	per	con	low	mod	low	nt	cr	nh/0156_nh.bmp
144.00	0.72	191	3	4	86	per	lib	mod	mod	mod	tg	ht	wh/0627.bmp
144.72	0.72	192	1	1	100	per	lib	mod	mod	mod	tg	ms	wh/0100.bmp
145.44	0.72	193	1	2	96	mem	con	mod	mod	low	tg	ht	wh/0353.bmp
146.16	0.72	194	2	4	53	mem	lib	mod	mod	low	tg	ht	wh/0739.bmp
146.88	0.72	195	1	2	119	mem	con	low	low	low	tg	ht	wh/0411.bmp
147.60	0.72	196	1	2	6	mem	lib	mod	mod	low	tg	ms	wh/0040.bmp
148.32	0.72	197	2	3	21	mem	con	mod	mod	mod	nt	ht	nh/0700_nh.bmp
149.04	0.72	198	2	4	59	mem	lib	mod	mod	low	nt	ht	nh/0733_nh.bmp
149.76	0.72	199	2	2	56	per	con	low	mod	low	nt	cr	nh/0116_nh.bmp
150.48	0.72	200	3	2	12	mem	lib	mod	mod	low	tg	ht	wh/0115.bmp
151.20	0.72	201	1	4	124	per	lib	low	mod	low	nt	cr	nh/0853_nh.bmp
151.92	0.72	202	2	2	81	mem	con	mod	mod	low	nt	ms	nh/0133_nh.bmp
152.64	0.72	203	2	4	14	per	con	low	mod	low	tg	ht	wh/0325.bmp
153.36	0.72	204	2	4	90	per	lib	mod	mod	mod	tg	ht	wh/0098.bmp
154.08	0.72	205	4	4	86	per	lib	mod	mod	mod	tg	ht	wh/0627.bmp
154.80	0.72	206	2	2	58	per	con	low	mod	low	nt	cr	nh/0200_nh.bmp
155.52	0.72	207	1	3	22	mem	con	mod	mod	mod	tg	ms	wh/0642.bmp
156.24	0.72	208	3	4	53	mem	lib	mod	mod	low	tg	ht	wh/0739.bmp
156.96	0.72	209	1	2	38	per	lib	mod	low	mod	nt	cr	nh/0406_nh.bmp
157.68	0.72	210	3	2	11	mem	lib	mod	mod	low	nt	ht	nh/0014_nh.bmp
158.40	0.72	211	3	2	59	per	con	low	mod	low	nt	cr	nh/1021_nh.bmp
159.12	0.72	212	2	2	6	mem	lib	mod	mod	low	tg	ms	wh/0040.bmp
159.84	0.72	213	2	3	13	per	con	mod	mod	mod	nt	cr	nh/0605_nh.bmp
160.56	0.72	214	2	4	11	per	con	low	mod	low	tg	ms	wh/0145.bmp
161.28	0.72	215	4	4	53	mem	lib	mod	mod	low	tg	ht	wh/0739.bmp
162.00	0.72	216	3	2	2	mem	lib	mod	mod	low	nt	ht	nh/0649_nh.bmp
162.72	0.72	217	3	4	14	per	con	low	mod	low	tg	ht	wh/0325.bmp
163.44	0.72	218	2	1	38	mem	con	mod	mod	mod	tg	ms	wh/0585.bmp
164.16	0.72	219	1	3	23	mem	con	mod	mod	mod	nt	ht	nh/0425_nh.bmp
164.88	0.72	220	2	1	40	mem	con	mod	mod	mod	nt	ht	nh/0965_nh.bmp
165.60	0.72	221	1	1	46	mem	con	mod	mod	mod	nt	ht	nh/0785_nh.bmp
166.32	0.72	222	1	2	92	mem	con	mod	mod	low	nt	ms	nh/0515_nh.bmp
167.04	0.72	223	2	1	105	per	lib	mod	mod	mod	tg	ht	wh/0183.bmp
167.76	0.72	224	2	2	96	mem	con	mod	mod	low	tg	ht	wh/0353.bmp
168.48	0.72	225	3	2	6	mem	lib	mod	mod	low	tg	ms	wh/0040.bmp
169.20	0.72	226	2	2	68	per	lib	low	mod	low	tg	ms	wh/0932.bmp
169.92	0.72	227	2	4	50	mem	lib	mod	mod	low	tg	ht	wh/0217.bmp
170.64	0.72	228	3	1	101	per	lib	mod	mod	mod	nt	fa	nh/0942_nh.bmp
171.36	0.72	229	2	4	81	per	lib	mod	mod	mod	nt	fa	nh/0899_nh.bmp
172.08	0.72	230	3	1	40	mem	con	mod	mod	mod	nt	ht	nh/0965_nh.bmp
172.80	0.72	231	3	4	50	mem	lib	mod	mod	low	tg	ht	wh/0217.bmp
173.52	0.72	232	1	1	91	mem	lib	mod	mod	mod	nt	ht	nh/0596_nh.bmp
174.24	0.72	233	2	4	115	per	lib	low	mod	low	tg	ms	wh/0836.bmp
174.96	0.72	234	2	1	45	mem	con	mod	mod	mod	tg	ms	wh/0841.bmp
175.68	0.72	235	2	3	33	mem	lib	mod	mod	mod	nt	ht	nh/0847_nh.bmp
176.40	0.72	236	3	2	26	per	con	mod	mod	mod	nt	cr	nh/0017_nh.bmp
177.12	0.72	237	2	2	30	per	con	mod	mod	mod	tg	ht	wh/0189.bmp
177.84	0.72	238	1	3	37	mem	lib	mod	mod	mod	tg	ht	wh/0857.bmp
178.56	0.72	239	2	4	108	mem	con	mod	mod	low	nt	ht	nh/0529_nh.bmp
179.28	0.72	240	1	3	17	mem	con	mod	mod	mod	tg	ms	wh/0984.bmp
180.00	0.72	241	2	2	22	per	con	mod	mod	mod	tg	ht	wh/0775.bmp
180.72	0.72	242	2	3	48	mem	lib	mod	mod	mod	nt	ht	nh/0287_nh.bmp
181.44	0.72	243	2	1	37	mem	con	mod	mod	mod	tg	ht	wh/0561.bmp
182.16	0.72	244	2	2	76	per	lib	low	mod	low	nt	cr	nh/0704_nh.bmp
182.88	0.72	245	3	3	44	mem	lib	mod	mod	mod	nt	ht	nh/0878_nh.bmp
183.60	0.72	246	3	4	106	mem	con	mod	mod	low	tg	ms	wh/0377.bmp
184.32	0.72	247	1	2	47	per	lib	mod	low	mod	nt	fa	nh/0009_nh.bmp
185.04	0.72	248	1	2	37	per	lib	mod	low	mod	tg	ht	wh/0885.bmp
185.76	0.72	249	3	1	84	mem	lib	mod	mod	mod	tg	ht	wh/0002.bmp
186.48	0.72	250	1	2	89	mem	con	mod	mod	low	tg	ht	wh/0163.bmp
187.20	0.72	251	2	4	111	mem	con	mod	mod	low	nt	ms	nh/0816_nh.bmp
187.92	0.72	252	3	1	107	per	lib	mod	mod	mod	nt	cr	nh/0637_nh.bmp
188.64	0.72	253	2	3	30	mem	con	mod	mod	mod	nt	ht	nh/0001_nh.bmp
189.36	0.72	254	3	4	12	per	con	low	mod	low	tg	ms	wh/0514.bmp
190.08	0.72	255	2	3	25	mem	con	mod	mod	mod	tg	ms	wh/0935.bmp
190.80	0.72	256	4	4	50	mem	lib	mod	mod	low	tg	ht	wh/0217.bmp
191.52	0.72	257	3	4	101	mem	con	mod	mod	low	tg	ht	wh/0019.bmp
192.24	0.72	258	2	3	2	per	con	mod	mod	mod	nt	cr	nh/0414_nh.bmp
192.96	0.72	259	3	3	21	mem	con	mod	mod	mod	nt	ht	nh/0700_nh.bmp
193.68	0.72	260	1	3	125	per	lib	mod	low	mod	nt	fa	nh/0047_nh.bmp
194.40	0.72	261	4	1	101	per	lib	mod	mod	mod	nt	fa	nh/0942_nh.bmp
195.12	0.72	262	3	4	111	mem	con	mod	mod	low	nt	ms	nh/0816_nh.bmp
195.84	0.72	263	1	4	93	per	lib	mod	mod	mod	nt	cr	nh/0658_nh.bmp
196.56	0.72	264	3	2	22	per	con	mod	mod	mod	tg	ht	wh/0775.bmp
197.28	0.72	265	2	2	20	per	con	mod	mod	mod	tg	ms	wh/0274.bmp
198.00	0.72	266	5	2	93	mem	con	mod	mod	low	tg	ms	wh/0392.bmp
198.72	0.72	267	5	4	53	mem	lib	mod	mod	low	tg	ht	wh/0739.bmp
199.44	0.72	268	3	2	58	per	con	low	mod	low	nt	cr	nh/0200_nh.bmp
200.16	0.72	269	2	1	100	per	lib	mod	mod	mod	tg	ms	wh/0100.bmp
200.88	0.72	270	3	2	68	per	lib	low	mod	low	tg	ms	wh/0932.bmp
201.60	0.72	271	2	3	47	mem	lib	mod	mod	mod	tg	ht	wh/0070.bmp
202.32	0.72	272	1	2	95	mem	con	mod	mod	low	nt	ms	nh/0435_nh.bmp
203.04	0.72	273	2	4	125	per	lib	low	mod	low	nt	fa	nh/0769_nh.bmp
203.76	0.72	274	3	1	38	mem	con	mod	mod	mod	tg	ms	wh/0585.bmp
204.48	0.72	275	4	2	22	per	con	mod	mod	mod	tg	ht	wh/0775.bmp
205.20	0.72	276	2	1	39	mem	con	mod	mod	mod	nt	ms	nh/0698_nh.bmp
205.92	0.72	277	3	3	48	mem	lib	mod	mod	mod	nt	ht	nh/0287_nh.bmp
206.64	0.72	278	1	4	16	per	con	low	mod	low	nt	cr	nh/0387_nh.bmp
207.36	0.72	279	2	2	27	per	con	mod	mod	mod	tg	ht	wh/0405.bmp
208.08	0.72	280	2	2	4	mem	lib	mod	mod	low	tg	ht	wh/0741.bmp
208.80	0.72	281	1	1	75	per	lib	low	low	low	nt	cr	nh/0015_nh.bmp
209.52	0.72	282	3	1	99	per	lib	mod	mod	mod	tg	ms	wh/0750.bmp
210.24	0.72	283	2	2	92	mem	con	mod	mod	low	nt	ms	nh/0515_nh.bmp
210.96	0.72	284	2	4	124	per	lib	low	mod	low	nt	cr	nh/0853_nh.bmp
211.68	0.72	285	3	2	30	per	con	mod	mod	mod	tg	ht	wh/0189.bmp
212.40	0.72	286	1	1	62	per	con	mod	low	mod	tg	ms	wh/0149.bmp
213.12	0.72	287	3	4	81	per	lib	mod	mod	mod	nt	fa	nh/0899_nh.bmp
213.84	0.72	288	4	1	107	per	lib	mod	mod	mod	nt	cr	nh/0637_nh.bmp
214.56	0.72	289	2	3	37	mem	lib	mod	mod	mod	tg	ht	wh/0857.bmp
215.28	0.72	290	3	4	125	per	lib	low	mod	low	nt	fa	nh/0769_nh.bmp
216.00	0.72	291	2	2	95	mem	con	mod	mod	low	nt	ms	nh/0435_nh.bmp
216.72	0.72	292	1	3	5	per	con	mod	mod	mod	nt	cr	nh/0391_nh.bmp
217.44	0.72	293	1	1	22	mem	lib	low	low	low	tg	ms	wh/0979.bmp
218.16	0.72	294	1	4	91	per	lib	mod	mod	mod	nt	fa	nh/0621_nh.bmp
218.88	0.72	295	3	3	13	per	con	mod	mod	mod	nt	cr	nh/0605_nh.bmp
219.60	0.72	296	1	2	33	per	lib	mod	low	mod	tg	ms	wh/0228.bmp
220.32	0.72	297	1	1	73	per	lib	low	low	low	tg	ms	wh/0790.bmp
221.04	0.72	298	2	4	16	per	con	low	mod	low	nt	cr	nh/0387_nh.bmp
221.76	0.72	299	2	2	16	mem	lib	mod	mod	low	tg	ht	wh/0027.bmp
222.48	0.72	300	3	4	108	mem	con	mod	mod	low	nt	ht	nh/0529_nh.bmp
223.20	0.72	301	2	1	85	mem	lib	mod	mod	mod	nt	ht	nh/0600_nh.bmp
223.92	0.72	302	4	1	38	mem	con	mod	mod	mod	tg	ms	wh/0585.bmp
224.64	0.72	303	1	1	1	mem	con	low	low	mod	tg	ms	wh/0752.bmp
225.36	0.72	304	1	3	102	per	con	low	low	low	tg	ms	wh/0800.bmp
226.08	0.72	305	1	2	64	per	con	low	mod	low	tg	ms	wh/0455.bmp
226.80	0.72	306	4	2	2	mem	lib	mod	mod	low	nt	ht	nh/0649_nh.bmp
227.52	0.72	307	3	1	42	mem	con	mod	mod	mod	nt	ht	nh/0463_nh.bmp
228.24	0.72	308	1	3	40	mem	lib	mod	mod	mod	tg	ht	wh/0938.bmp
228.96	0.72	309	1	1	18	mem	lib	low	low	low	nt	ht	nh/0119_nh.bmp
229.68	0.72	310	1	1	119	per	con	low	low	low	nt	cr	nh/0126_nh.bmp
230.40	0.72	311	3	2	81	mem	con	mod	mod	low	nt	ms	nh/0133_nh.bmp
231.12	0.72	312	3	4	90	per	lib	mod	mod	mod	tg	ht	wh/0098.bmp
231.84	0.72	313	3	1	37	mem	con	mod	mod	mod	tg	ht	wh/0561.bmp
232.56	0.72	314	4	1	84	mem	lib	mod	mod	mod	tg	ht	wh/0002.bmp
233.28	0.72	315	3	4	83	per	lib	mod	mod	mod	tg	ht	wh/0429.bmp
234.00	0.72	316	2	2	51	per	con	low	mod	low	tg	ms	wh/0205.bmp
234.72	0.72	317	1	2	25	per	con	mod	mod	mod	nt	cr	nh/0393_nh.bmp
235.44	0.72	318	1	1	128	per	con	low	low	low	tg	ms	wh/1022.bmp
236.16	0.72	319	4	4	106	mem	con	mod	mod	low	tg	ms	wh/0377.bmp
236.88	0.72	320	2	2	82	mem	con	mod	mod	low	nt	ms	nh/0155_nh.bmp
237.60	0.72	321	4	2	30	per	con	mod	mod	mod	tg	ht	wh/0189.bmp
238.32	0.72	322	4	4	108	mem	con	mod	mod	low	nt	ht	nh/0529_nh.bmp
239.04	0.72	323	2	2	74	per	lib	low	mod	low	nt	fa	nh/0897_nh.bmp
239.76	0.72	324	2	2	8	mem	lib	mod	mod	low	nt	ht	nh/0926_nh.bmp
240.48	0.72	325	4	2	26	per	con	mod	mod	mod	nt	cr	nh/0017_nh.bmp
241.20	0.72	326	4	3	44	mem	lib	mod	mod	mod	nt	ht	nh/0878_nh.bmp
241.92	0.72	327	5	4	106	mem	con	mod	mod	low	tg	ms	wh/0377.bmp
242.64	0.72	328	1	3	16	per	con	mod	mod	mod	tg	ms	wh/0681.bmp
243.36	0.72	329	3	4	115	per	lib	low	mod	low	tg	ms	wh/0836.bmp
244.08	0.72	330	3	4	59	mem	lib	mod	mod	low	nt	ht	nh/0733_nh.bmp
244.80	0.72	331	2	1	46	mem	con	mod	mod	mod	nt	ht	nh/0785_nh.bmp
245.52	0.72	332	3	4	126	per	lib	low	mod	low	nt	fa	nh/0573_nh.bmp
246.24	0.72	333	2	4	91	per	lib	mod	mod	mod	nt	fa	nh/0621_nh.bmp
246.96	0.72	334	2	2	89	mem	con	mod	mod	low	tg	ht	wh/0163.bmp
247.68	0.72	335	1	4	128	per	lib	low	mod	low	tg	ms	wh/0233.bmp
248.40	0.72	336	3	4	11	per	con	low	mod	low	tg	ms	wh/0145.bmp
249.12	0.72	337	4	2	78	per	lib	low	mod	low	tg	ms	wh/0105.bmp
249.84	0.72	338	5	2	30	per	con	mod	mod	mod	tg	ht	wh/0189.bmp
250.56	0.72	339	3	3	37	mem	lib	mod	mod	mod	tg	ht	wh/0857.bmp
251.28	0.72	340	5	1	84	mem	lib	mod	mod	mod	tg	ht	wh/0002.bmp
252.00	0.72	341	1	1	26	mem	lib	low	low	low	nt	ht	nh/0747_nh.bmp
252.72	0.72	342	4	4	14	per	con	low	mod	low	tg	ht	wh/0325.bmp
253.44	0.72	343	1	3	66	mem	con	low	low	low	nt	ms	nh/1001_nh.bmp
254.16	0.72	344	4	2	29	per	con	mod	mod	mod	nt	cr	nh/0959_nh.bmp
254.88	0.72	345	3	4	62	mem	lib	mod	mod	low	tg	ht	wh/0177.bmp
255.60	0.72	346	1	2	105	mem	lib	low	low	mod	nt	ht	nh/0527_nh.bmp
256.32	0.72	347	1	2	7	mem	lib	mod	mod	low	nt	ht	nh/0178_nh.bmp
257.04	0.72	348	3	3	30	mem	con	mod	mod	mod	nt	ht	nh/0001_nh.bmp
257.76	0.72	349	1	2	120	mem	con	low	low	low	nt	ht	nh/0651_nh.bmp
258.48	0.72	350	5	2	78	per	lib	low	mod	low	tg	ms	wh/0105.bmp
259.20	0.72	351	5	4	86	per	lib	mod	mod	mod	tg	ht	wh/0627.bmp
259.92	0.72	352	2	4	54	mem	lib	mod	mod	low	nt	ms	nh/0868_nh.bmp
260.64	0.72	353	2	2	70	per	lib	low	mod	low	nt	cr	nh/0298_nh.bmp
261.36	0.72	354	4	1	40	mem	con	mod	mod	mod	nt	ht	nh/0965_nh.bmp
262.08	0.72	355	4	4	11	per	con	low	mod	low	tg	ms	wh/0145.bmp
262.80	0.72	356	4	3	30	mem	con	mod	mod	mod	nt	ht	nh/0001_nh.bmp
263.52	0.72	357	2	2	77	per	lib	low	mod	low	tg	ht	wh/0648.bmp
264.24	0.72	358	4	4	97	mem	con	mod	mod	low	tg	ms	wh/0997.bmp
264.96	0.72	359	3	3	2	per	con	mod	mod	mod	nt	cr	nh/0414_nh.bmp
265.68	0.72	360	2	4	8	per	con	low	mod	low	nt	cr	nh/0766_nh.bmp
266.40	0.72	361	3	2	92	mem	con	mod	mod	low	nt	ms	nh/0515_nh.bmp
267.12	0.72	362	3	2	89	mem	con	mod	mod	low	tg	ht	wh/0163.bmp
267.84	0.72	363	3	2	27	per	con	mod	mod	mod	tg	ht	wh/0405.bmp
268.56	0.72	364	3	2	77	per	lib	low	mod	low	tg	ht	wh/0648.bmp
269.28	0.72	365	6	1	84	mem	lib	mod	mod	mod	tg	ht	wh/0002.bmp
270.00	0.72	366	3	4	95	per	lib	mod	mod	mod	nt	cr	nh/0289_nh.bmp
270.72	0.72	367	2	1	90	mem	lib	mod	mod	mod	nt	ht	nh/0879_nh.bmp
271.44	0.72	368	3	3	36	mem	lib	mod	mod	mod	nt	ht	nh/0580_nh.bmp
272.16	0.72	369	3	2	20	per	con	mod	mod	mod	tg	ms	wh/0274.bmp
272.88	0.72	370	2	4	51	mem	lib	mod	mod	low	nt	ht	nh/0341_nh.bmp
273.60	0.72	371	5	4	50	mem	lib	mod	mod	low	tg	ht	wh/0217.bmp
274.32	0.72	372	2	2	25	per	con	mod	mod	mod	nt	cr	nh/0393_nh.bmp
275.04	0.72	373	3	2	16	mem	lib	mod	mod	low	tg	ht	wh/0027.bmp
275.76	0.72	374	3	1	39	mem	con	mod	mod	mod	nt	ms	nh/0698_nh.bmp
276.48	0.72	375	3	4	51	mem	lib	mod	mod	low	nt	ht	nh/0341_nh.bmp
277.20	0.72	376	3	2	25	per	con	mod	mod	mod	nt	cr	nh/0393_nh.bmp
277.92	0.72	377	2	3	17	mem	con	mod	mod	mod	tg	ms	wh/0984.bmp
278.64	0.72	378	1	4	69	per	con	mod	low	mod	nt	cr	nh/0311_nh.bmp
279.36	0.72	379	3	4	118	per	lib	low	mod	low	nt	cr	nh/0472_nh.bmp
280.08	0.72	380	4	3	48	mem	lib	mod	mod	mod	nt	ht	nh/0287_nh.bmp
280.80	0.72	381	2	3	5	per	con	mod	mod	mod	nt	cr	nh/0391_nh.bmp
281.52	0.72	382	3	1	45	mem	con	mod	mod	mod	tg	ms	wh/0841.bmp
282.24	0.72	383	3	4	120	per	lib	low	mod	low	tg	ht	wh/0251.bmp
282.96	0.72	384	1	1	108	per	lib	mod	mod	mod	nt	cr	nh/0884_nh.bmp
283.68	0.72	385	2	3	22	mem	con	mod	mod	mod	tg	ms	wh/0642.bmp
284.40	0.72	386	1	3	96	mem	lib	low	low	low	tg	ms	wh/0682.bmp
285.12	0.72	387	1	3	91	mem	lib	low	low	low	tg	ht	wh/0057.bmp
285.84	0.72	388	1	1	124	per	con	low	low	low	nt	cr	nh/0794_nh.bmp
286.56	0.72	389	2	4	99	mem	con	mod	mod	low	nt	ms	nh/0066_nh.bmp
287.28	0.72	390	1	4	27	mem	con	low	low	mod	tg	ht	wh/0712.bmp
288.00	0.72	391	4	1	92	mem	lib	mod	mod	mod	tg	ht	wh/0526.bmp
288.72	0.72	392	3	3	22	mem	con	mod	mod	mod	tg	ms	wh/0642.bmp
289.44	0.72	393	1	1	8	mem	con	low	low	mod	tg	ms	wh/0296.bmp
290.16	0.72	394	3	2	61	per	con	low	mod	low	nt	cr	nh/0727_nh.bmp
290.88	0.72	395	2	2	64	per	con	low	mod	low	tg	ms	wh/0455.bmp
291.60	0.72	396	3	2	74	per	lib	low	mod	low	nt	fa	nh/0897_nh.bmp
292.32	0.72	397	2	2	88	mem	con	mod	mod	low	tg	ht	wh/0031.bmp
293.04	0.72	398	4	2	81	mem	con	mod	mod	low	nt	ms	nh/0133_nh.bmp
293.76	0.72	399	3	4	99	mem	con	mod	mod	low	nt	ms	nh/0066_nh.bmp
294.48	0.72	400	2	4	93	per	lib	mod	mod	mod	nt	cr	nh/0658_nh.bmp
295.20	0.72	401	3	4	91	per	lib	mod	mod	mod	nt	fa	nh/0621_nh.bmp
295.92	0.72	402	3	1	88	mem	lib	mod	mod	mod	tg	ht	wh/0920.bmp
296.64	0.72	403	3	3	17	mem	con	mod	mod	mod	tg	ms	wh/0984.bmp
297.36	0.72	404	1	3	63	per	lib	low	low	low	tg	ht	wh/0777.bmp
298.08	0.72	405	3	3	33	mem	lib	mod	mod	mod	nt	ht	nh/0847_nh.bmp
298.80	0.72	406	2	3	3	per	con	mod	mod	mod	tg	ht	wh/0981.bmp
299.52	0.72	407	1	1	120	per	con	low	low	low	nt	cr	nh/1012_nh.bmp
300.24	0.72	408	4	4	125	per	lib	low	mod	low	nt	fa	nh/0769_nh.bmp
300.96	0.72	409	1	4	20	mem	con	low	low	mod	tg	ms	wh/0303.bmp
301.68	0.72	410	2	1	91	mem	lib	mod	mod	mod	nt	ht	nh/0596_nh.bmp
302.40	0.72	411	5	4	97	mem	con	mod	mod	low	tg	ms	wh/0997.bmp
303.12	0.72	412	1	3	127	per	lib	mod	low	mod	tg	ht	wh/0725.bmp
303.84	0.72	413	4	4	51	mem	lib	mod	mod	low	nt	ht	nh/0341_nh.bmp
304.56	0.72	414	3	3	19	mem	con	mod	mod	mod	nt	ht	nh/0955_nh.bmp
305.28	0.72	415	4	4	118	per	lib	low	mod	low	nt	cr	nh/0472_nh.bmp
306.00	0.72	416	3	3	3	per	con	mod	mod	mod	tg	ht	wh/0981.bmp
306.72	0.72	417	4	3	17	mem	con	mod	mod	mod	tg	ms	wh/0984.bmp
307.44	0.72	418	2	3	16	per	con	mod	mod	mod	tg	ms	wh/0681.bmp
308.16	0.72	419	2	1	108	per	lib	mod	mod	mod	nt	cr	nh/0884_nh.bmp
308.88	0.72	420	4	3	22	mem	con	mod	mod	mod	tg	ms	wh/0642.bmp
309.60	0.72	421	3	1	46	mem	con	mod	mod	mod	nt	ht	nh/0785_nh.bmp
310.32	0.72	422	5	2	22	per	con	mod	mod	mod	tg	ht	wh/0775.bmp
311.04	0.72	423	2	3	40	mem	lib	mod	mod	mod	tg	ht	wh/0938.bmp
311.76	0.72	424	1	1	118	per	con	low	low	low	tg	ht	wh/0817.bmp
312.48	0.72	425	6	2	93	mem	con	mod	mod	low	tg	ms	wh/0392.bmp
313.20	0.72	426	3	2	54	per	con	low	mod	low	tg	ms	wh/0168.bmp
313.92	0.72	427	3	2	4	mem	lib	mod	mod	low	tg	ht	wh/0741.bmp
314.64	0.72	428	2	4	128	per	lib	low	mod	low	tg	ms	wh/0233.bmp
315.36	0.72	429	1	3	113	per	lib	mod	low	mod	tg	ht	wh/0960.bmp
316.08	0.72	430	4	4	112	mem	con	mod	mod	low	tg	ht	wh/0597.bmp
316.80	0.72	431	1	1	12	mem	con	low	low	mod	nt	ms	nh/0551_nh.bmp
317.52	0.72	432	3	4	49	mem	lib	mod	mod	low	tg	ht	wh/0675.bmp
318.24	0.72	433	5	1	101	per	lib	mod	mod	mod	nt	fa	nh/0942_nh.bmp
318.96	0.72	434	6	2	78	per	lib	low	mod	low	tg	ms	wh/0105.bmp
319.68	0.72	435	4	4	126	per	lib	low	mod	low	nt	fa	nh/0573_nh.bmp
320.40	0.72	436	4	2	92	mem	con	mod	mod	low	nt	ms	nh/0515_nh.bmp
321.12	0.72	437	3	2	60	per	con	low	mod	low	tg	ms	wh/0755.bmp
321.84	0.72	438	3	1	90	mem	lib	mod	mod	mod	nt	ht	nh/0879_nh.bmp
322.56	0.72	439	3	4	54	mem	lib	mod	mod	low	nt	ms	nh/0868_nh.bmp
323.28	0.72	440	3	4	128	per	lib	low	mod	low	tg	ms	wh/0233.bmp
324.00	0.72	441	4	4	120	per	lib	low	mod	low	tg	ht	wh/0251.bmp
324.72	0.72	442	5	4	125	per	lib	low	mod	low	nt	fa	nh/0769_nh.bmp
325.44	0.72	443	1	3	116	per	lib	mod	low	mod	nt	fa	nh/0687_nh.bmp
326.16	0.72	444	5	4	112	mem	con	mod	mod	low	tg	ht	wh/0597.bmp
326.88	0.72	445	1	4	34	mem	lib	low	low	mod	nt	ht	nh/0501_nh.bmp
327.60	0.72	446	2	1	48	mem	con	mod	mod	mod	tg	ht	wh/0204.bmp
328.32	0.72	447	3	1	48	mem	con	mod	mod	mod	tg	ht	wh/0204.bmp
329.04	0.72	448	4	2	11	mem	lib	mod	mod	low	nt	ht	nh/0014_nh.bmp
329.76	0.72	449	4	3	3	per	con	mod	mod	mod	tg	ht	wh/0981.bmp
330.48	0.72	450	4	2	16	mem	lib	mod	mod	low	tg	ht	wh/0027.bmp
331.20	0.72	451	4	3	21	mem	con	mod	mod	mod	nt	ht	nh/0700_nh.bmp
331.92	0.72	452	3	3	16	per	con	mod	mod	mod	tg	ms	wh/0681.bmp
332.64	0.72	453	1	4	31	mem	con	low	low	mod	nt	ht	nh/0601_nh.bmp
333.36	0.72	454	3	4	107	mem	con	mod	mod	low	nt	ms	nh/0128_nh.bmp
334.08	0.72	455	4	2	25	per	con	mod	mod	mod	nt	cr	nh/0393_nh.bmp
334.80	0.72	456	3	4	124	per	lib	low	mod	low	nt	cr	nh/0853_nh.bmp
335.52	0.72	457	6	4	97	mem	con	mod	mod	low	tg	ms	wh/0997.bmp
336.24	0.72	458	3	1	100	per	lib	mod	mod	mod	tg	ms	wh/0100.bmp
336.96	0.72	459	4	1	100	per	lib	mod	mod	mod	tg	ms	wh/0100.bmp
337.68	0.72	460	3	2	8	mem	lib	mod	mod	low	nt	ht	nh/0926_nh.bmp
338.40	0.72	461	4	3	33	mem	lib	mod	mod	mod	nt	ht	nh/0847_nh.bmp
339.12	0.72	462	5	3	22	mem	con	mod	mod	mod	tg	ms	wh/0642.bmp
339.84	0.72	463	1	3	70	mem	con	low	low	low	nt	ms	nh/0354_nh.bmp
340.56	0.72	464	6	4	50	mem	lib	mod	mod	low	tg	ht	wh/0217.bmp
341.28	0.72	465	3	2	96	mem	con	mod	mod	low	tg	ht	wh/0353.bmp
342.00	0.72	466	4	4	81	per	lib	mod	mod	mod	nt	fa	nh/0899_nh.bmp
342.72	0.72	467	1	3	104	per	con	low	low	low	tg	ms	wh/0634.bmp
343.44	0.72	468	4	2	73	per	lib	low	mod	low	tg	ms	wh/0265.bmp
344.16	0.72	469	3	1	91	mem	lib	mod	mod	mod	nt	ht	nh/0596_nh.bmp
344.88	0.72	470	4	4	95	per	lib	mod	mod	mod	nt	cr	nh/0289_nh.bmp
345.60	0.72	471	2	2	7	mem	lib	mod	mod	low	nt	ht	nh/0178_nh.bmp
346.32	0.72	472	5	3	17	mem	con	mod	mod	mod	tg	ms	wh/0984.bmp
347.04	0.72	473	1	3	59	per	lib	low	low	low	nt	cr	nh/0191_nh.bmp
347.76	0.72	474	4	1	90	mem	lib	mod	mod	mod	nt	ht	nh/0879_nh.bmp
348.48	0.72	475	4	2	27	per	con	mod	mod	mod	tg	ht	wh/0405.bmp
349.20	0.72	476	3	3	40	mem	lib	mod	mod	mod	tg	ht	wh/0938.bmp
349.92	0.72	477	2	3	14	per	con	mod	mod	mod	tg	ms	wh/0534.bmp
350.64	0.72	478	4	4	124	per	lib	low	mod	low	nt	cr	nh/0853_nh.bmp
351.36	0.72	479	4	2	6	mem	lib	mod	mod	low	tg	ms	wh/0040.bmp
352.08	0.72	480	3	3	15	per	con	mod	mod	mod	nt	cr	nh/0801_nh.bmp
352.80	0.72	481	4	4	49	mem	lib	mod	mod	low	tg	ht	wh/0675.bmp
353.52	0.72	482	4	2	18	per	con	mod	mod	mod	nt	cr	nh/0975_nh.bmp
354.24	0.72	483	4	3	16	per	con	mod	mod	mod	tg	ms	wh/0681.bmp
354.96	0.72	484	1	1	70	per	lib	low	low	low	nt	cr	nh/0432_nh.bmp
355.68	0.72	485	5	3	30	mem	con	mod	mod	mod	nt	ht	nh/0001_nh.bmp
356.40	0.72	486	4	3	15	per	con	mod	mod	mod	nt	cr	nh/0801_nh.bmp
357.12	0.72	487	3	1	85	mem	lib	mod	mod	mod	nt	ht	nh/0600_nh.bmp
357.84	0.72	488	3	2	70	per	lib	low	mod	low	nt	cr	nh/0298_nh.bmp
358.56	0.72	489	5	2	25	per	con	mod	mod	mod	nt	cr	nh/0393_nh.bmp
359.28	0.72	490	5	3	16	per	con	mod	mod	mod	tg	ms	wh/0681.bmp
360.00	0.72	491	4	4	59	mem	lib	mod	mod	low	nt	ht	nh/0733_nh.bmp
360.72	0.72	492	1	1	53	per	con	mod	low	mod	nt	cr	nh/0218_nh.bmp
361.44	0.72	493	5	3	3	per	con	mod	mod	mod	tg	ht	wh/0981.bmp
362.16	0.72	494	4	1	88	mem	lib	mod	mod	mod	tg	ht	wh/0920.bmp
362.88	0.72	495	5	3	15	per	con	mod	mod	mod	nt	cr	nh/0801_nh.bmp
363.60	0.72	496	1	1	61	per	con	mod	low	mod	nt	cr	nh/0270_nh.bmp
364.32	0.72	497	3	1	109	per	lib	mod	mod	mod	tg	ht	wh/0473.bmp
365.04	0.72	498	5	4	49	mem	lib	mod	mod	low	tg	ht	wh/0675.bmp
365.76	0.72	499	1	3	72	mem	con	low	low	low	nt	ms	nh/0456_nh.bmp
366.48	0.72	500	4	1	109	per	lib	mod	mod	mod	tg	ht	wh/0473.bmp
367.20	0.72	501	4	4	87	per	lib	mod	mod	mod	tg	ms	wh/0692.bmp
367.92	0.72	502	4	4	54	mem	lib	mod	mod	low	nt	ms	nh/0868_nh.bmp
368.64	0.72	503	4	2	89	mem	con	mod	mod	low	tg	ht	wh/0163.bmp
369.36	0.72	504	4	3	19	mem	con	mod	mod	mod	nt	ht	nh/0955_nh.bmp
370.08	0.72	505	4	2	68	per	lib	low	mod	low	tg	ms	wh/0932.bmp
370.80	0.72	506	4	1	112	per	lib	mod	mod	mod	nt	cr	nh/0679_nh.bmp
371.52	0.72	507	5	4	95	per	lib	mod	mod	mod	nt	cr	nh/0289_nh.bmp
372.24	0.72	508	3	3	9	per	con	mod	mod	mod	tg	ht	wh/0466.bmp
372.96	0.72	509	1	4	67	per	con	mod	low	mod	tg	ht	wh/0873.bmp
373.68	0.72	510	5	2	89	mem	con	mod	mod	low	tg	ht	wh/0163.bmp
374.40	0.72	511	3	3	47	mem	lib	mod	mod	mod	tg	ht	wh/0070.bmp
375.12	0.72	512	5	4	54	mem	lib	mod	mod	low	nt	ms	nh/0868_nh.bmp
375.84	0.72	513	5	1	88	mem	lib	mod	mod	mod	tg	ht	wh/0920.bmp
376.56	0.72	514	4	1	45	mem	con	mod	mod	mod	tg	ms	wh/0841.bmp
377.28	0.72	515	5	4	120	per	lib	low	mod	low	tg	ht	wh/0251.bmp
378.00	0.72	516	4	3	13	per	con	mod	mod	mod	nt	cr	nh/0605_nh.bmp
378.72	0.72	517	3	4	93	per	lib	mod	mod	mod	nt	cr	nh/0658_nh.bmp
379.44	0.72	518	1	2	71	per	lib	low	mod	low	nt	cr	nh/0379_nh.bmp
380.16	0.72	519	1	4	44	mem	lib	low	low	mod	tg	ms	wh/0541.bmp
380.88	0.72	520	6	4	49	mem	lib	mod	mod	low	tg	ht	wh/0675.bmp
381.60	0.72	521	3	2	51	per	con	low	mod	low	tg	ms	wh/0205.bmp
382.32	0.72	522	5	2	16	mem	lib	mod	mod	low	tg	ht	wh/0027.bmp
383.04	0.72	523	3	3	25	mem	con	mod	mod	mod	tg	ms	wh/0935.bmp
383.76	0.72	524	1	1	49	per	con	mod	low	mod	nt	cr	nh/0918_nh.bmp
384.48	0.72	525	3	2	76	per	lib	low	mod	low	nt	cr	nh/0704_nh.bmp
385.20	0.72	526	4	2	96	mem	con	mod	mod	low	tg	ht	wh/0353.bmp
385.92	0.72	527	4	2	4	mem	lib	mod	mod	low	tg	ht	wh/0741.bmp
386.64	0.72	528	5	3	33	mem	lib	mod	mod	mod	nt	ht	nh/0847_nh.bmp
387.36	0.72	529	3	2	82	mem	con	mod	mod	low	nt	ms	nh/0155_nh.bmp
388.08	0.72	530	2	4	60	mem	lib	mod	mod	low	nt	ht	nh/0421_nh.bmp
388.80	0.72	531	5	1	92	mem	lib	mod	mod	mod	tg	ht	wh/0526.bmp
389.52	0.72	532	2	1	87	mem	lib	mod	mod	mod	tg	ht	wh/0724.bmp
390.24	0.72	533	2	3	23	mem	con	mod	mod	mod	nt	ht	nh/0425_nh.bmp
390.96	0.72	534	2	4	6	per	con	low	mod	low	nt	cr	nh/0745_nh.bmp
391.68	0.72	535	4	2	54	per	con	low	mod	low	tg	ms	wh/0168.bmp
392.40	0.72	536	3	4	13	per	con	low	mod	low	nt	cr	nh/0156_nh.bmp
393.12	0.72	537	4	2	77	per	lib	low	mod	low	tg	ht	wh/0648.bmp
393.84	0.72	538	4	1	46	mem	con	mod	mod	mod	nt	ht	nh/0785_nh.bmp
394.56	0.72	539	1	2	128	mem	con	low	low	low	nt	ht	nh/0903_nh.bmp
395.28	0.72	540	5	1	100	per	lib	mod	mod	mod	tg	ms	wh/0100.bmp
396.00	0.72	541	3	1	105	per	lib	mod	mod	mod	tg	ht	wh/0183.bmp
396.72	0.72	542	4	2	82	mem	con	mod	mod	low	nt	ms	nh/0155_nh.bmp
397.44	0.72	543	4	1	91	mem	lib	mod	mod	mod	nt	ht	nh/0596_nh.bmp
398.16	0.72	544	6	2	16	mem	lib	mod	mod	low	tg	ht	wh/0027.bmp
398.88	0.72	545	5	2	2	mem	lib	mod	mod	low	nt	ht	nh/0649_nh.bmp
399.60	0.72	546	5	3	44	mem	lib	mod	mod	mod	nt	ht	nh/0878_nh.bmp
400.32	0.72	547	1	1	71	per	lib	low	low	low	tg	ht	wh/0786.bmp
401.04	0.72	548	4	3	40	mem	lib	mod	mod	mod	tg	ht	wh/0938.bmp
401.76	0.72	549	1	1	59	per	con	mod	low	mod	tg	ht	wh/0922.bmp
402.48	0.72	550	4	4	13	per	con	low	mod	low	nt	cr	nh/0156_nh.bmp
403.20	0.72	551	5	4	81	per	lib	mod	mod	mod	nt	fa	nh/0899_nh.bmp
403.92	0.72	552	4	2	8	mem	lib	mod	mod	low	nt	ht	nh/0926_nh.bmp
404.64	0.72	553	4	4	91	per	lib	mod	mod	mod	nt	fa	nh/0621_nh.bmp
405.36	0.72	554	3	4	6	per	con	low	mod	low	nt	cr	nh/0745_nh.bmp
406.08	0.72	555	3	4	8	per	con	low	mod	low	nt	cr	nh/0766_nh.bmp
406.80	0.72	556	4	2	58	per	con	low	mod	low	nt	cr	nh/0200_nh.bmp
407.52	0.72	557	1	2	39	per	lib	mod	low	mod	tg	ht	wh/0449.bmp
408.24	0.72	558	4	2	51	per	con	low	mod	low	tg	ms	wh/0205.bmp
408.96	0.72	559	4	4	8	per	con	low	mod	low	nt	cr	nh/0766_nh.bmp
409.68	0.72	560	5	2	8	mem	lib	mod	mod	low	nt	ht	nh/0926_nh.bmp
410.40	0.72	561	5	2	51	per	con	low	mod	low	tg	ms	wh/0205.bmp
411.12	0.72	562	1	3	55	per	lib	low	low	low	nt	fa	nh/0654_nh.bmp
411.84	0.72	563	6	1	100	per	lib	mod	mod	mod	tg	ms	wh/0100.bmp
412.56	0.72	564	4	4	115	per	lib	low	mod	low	tg	ms	wh/0836.bmp
413.28	0.72	565	5	1	109	per	lib	mod	mod	mod	tg	ht	wh/0473.bmp
414.00	0.72	566	5	2	92	mem	con	mod	mod	low	nt	ms	nh/0515_nh.bmp
414.72	0.72	567	5	4	13	per	con	low	mod	low	nt	cr	nh/0156_nh.bmp
415.44	0.72	568	5	1	90	mem	lib	mod	mod	mod	nt	ht	nh/0879_nh.bmp
416.16	0.72	569	5	1	45	mem	con	mod	mod	mod	tg	ms	wh/0841.bmp
416.88	0.72	570	4	3	47	mem	lib	mod	mod	mod	tg	ht	wh/0070.bmp
417.60	0.72	571	5	1	91	mem	lib	mod	mod	mod	nt	ht	nh/0596_nh.bmp
418.32	0.72	572	5	3	40	mem	lib	mod	mod	mod	tg	ht	wh/0938.bmp
419.04	0.72	573	1	2	123	mem	con	low	low	low	tg	ms	wh/0486.bmp
419.76	0.72	574	2	1	93	mem	lib	mod	mod	mod	nt	ms	nh/0162_nh.bmp
420.48	0.72	575	5	2	73	per	lib	low	mod	low	tg	ms	wh/0265.bmp
421.20	0.72	576	5	3	48	mem	lib	mod	mod	mod	nt	ht	nh/0287_nh.bmp
421.92	0.72	577	4	4	93	per	lib	mod	mod	mod	nt	cr	nh/0658_nh.bmp
422.64	0.72	578	1	4	29	mem	con	low	low	mod	nt	ms	nh/0213_nh.bmp
423.36	0.72	579	4	4	90	per	lib	mod	mod	mod	tg	ht	wh/0098.bmp
424.08	0.72	580	5	2	6	mem	lib	mod	mod	low	tg	ms	wh/0040.bmp
424.80	0.72	581	1	1	24	mem	lib	low	low	low	nt	ht	nh/0996_nh.bmp
425.52	0.72	582	5	4	91	per	lib	mod	mod	mod	nt	fa	nh/0621_nh.bmp
426.24	0.72	583	4	2	59	per	con	low	mod	low	nt	cr	nh/1021_nh.bmp
426.96	0.72	584	1	3	65	mem	con	low	low	low	tg	ms	wh/0685.bmp
427.68	0.72	585	1	1	2	mem	con	low	low	mod	nt	ht	nh/0659_nh.bmp
428.40	0.72	586	1	4	71	per	con	mod	low	mod	tg	ht	wh/0083.bmp
429.12	0.72	587	4	1	37	mem	con	mod	mod	mod	tg	ht	wh/0561.bmp
429.84	0.72	588	3	2	88	mem	con	mod	mod	low	tg	ht	wh/0031.bmp
430.56	0.72	589	1	2	110	mem	lib	low	low	mod	tg	ht	wh/0887.bmp
431.28	0.72	590	4	3	9	per	con	mod	mod	mod	tg	ht	wh/0466.bmp
432.00	0.72	591	4	2	61	per	con	low	mod	low	nt	cr	nh/0727_nh.bmp
432.72	0.72	592	6	3	33	mem	lib	mod	mod	mod	nt	ht	nh/0847_nh.bmp
433.44	0.72	593	6	4	13	per	con	low	mod	low	nt	cr	nh/0156_nh.bmp
434.16	0.72	594	6	2	73	per	lib	low	mod	low	tg	ms	wh/0265.bmp
434.88	0.72	595	4	4	83	per	lib	mod	mod	mod	tg	ht	wh/0429.bmp
435.60	0.72	596	5	4	93	per	lib	mod	mod	mod	nt	cr	nh/0658_nh.bmp
436.32	0.72	597	1	3	114	per	lib	mod	low	mod	nt	fa	nh/0332_nh.bmp
437.04	0.72	598	5	4	124	per	lib	low	mod	low	nt	cr	nh/0853_nh.bmp
437.76	0.72	599	5	4	11	per	con	low	mod	low	tg	ms	wh/0145.bmp
438.48	0.72	600	6	3	48	mem	lib	mod	mod	mod	nt	ht	nh/0287_nh.bmp
439.20	0.72	601	5	4	83	per	lib	mod	mod	mod	tg	ht	wh/0429.bmp
439.92	0.72	602	1	3	68	mem	con	low	low	low	tg	ms	wh/0362.bmp
440.64	0.72	603	1	4	42	mem	lib	low	low	mod	nt	ht	nh/0326_nh.bmp
441.36	0.72	604	4	1	85	mem	lib	mod	mod	mod	nt	ht	nh/0600_nh.bmp
442.08	0.72	605	5	4	108	mem	con	mod	mod	low	nt	ht	nh/0529_nh.bmp
442.80	0.72	606	5	2	26	per	con	mod	mod	mod	nt	cr	nh/0017_nh.bmp
443.52	0.72	607	1	3	111	per	con	low	low	low	nt	cr	nh/0407_nh.bmp
444.24	0.72	608	5	3	19	mem	con	mod	mod	mod	nt	ht	nh/0955_nh.bmp
444.96	0.72	609	1	4	28	mem	con	low	low	mod	tg	ms	wh/0866.bmp
445.68	0.72	610	5	2	68	per	lib	low	mod	low	tg	ms	wh/0932.bmp
446.40	0.72	611	3	1	93	mem	lib	mod	mod	mod	nt	ms	nh/0162_nh.bmp
447.12	0.72	612	5	2	59	per	con	low	mod	low	nt	cr	nh/1021_nh.bmp
447.84	0.72	613	2	2	71	per	lib	low	mod	low	nt	cr	nh/0379_nh.bmp
448.56	0.72	614	5	4	3	per	con	low	mod	low	tg	ms	wh/0231.bmp
449.28	0.72	615	4	3	25	mem	con	mod	mod	mod	tg	ms	wh/0935.bmp
450.00	0.72	616	4	3	2	per	con	mod	mod	mod	nt	cr	nh/0414_nh.bmp
450.72	0.72	617	3	3	14	per	con	mod	mod	mod	tg	ms	wh/0534.bmp
451.44	0.72	618	4	2	76	per	lib	low	mod	low	nt	cr	nh/0704_nh.bmp
452.16	0.72	619	5	2	82	mem	con	mod	mod	low	nt	ms	nh/0155_nh.bmp
452.88	0.72	620	3	2	71	per	lib	low	mod	low	nt	cr	nh/0379_nh.bmp
453.60	0.72	621	6	4	95	per	lib	mod	mod	mod	nt	cr	nh/0289_nh.bmp
454.32	0.72	622	6	1	109	per	lib	mod	mod	mod	tg	ht	wh/0473.bmp
455.04	0.72	623	1	3	80	mem	con	low	low	low	tg	ms	wh/0140.bmp
455.76	0.72	624	1	4	25	mem	con	low	low	mod	tg	ms	wh/0740.bmp
456.48	0.72	625	5	2	54	per	con	low	mod	low	tg	ms	wh/0168.bmp
457.20	0.72	626	6	1	88	mem	lib	mod	mod	mod	tg	ht	wh/0920.bmp
457.92	0.72	627	6	1	92	mem	lib	mod	mod	mod	tg	ht	wh/0526.bmp
458.64	0.72	628	1	2	44	per	lib	mod	low	mod	tg	ht	wh/0829.bmp
459.36	0.72	629	4	3	37	mem	lib	mod	mod	mod	tg	ht	wh/0857.bmp
460.08	0.72	630	4	1	105	per	lib	mod	mod	mod	tg	ht	wh/0183.bmp
460.80	0.72	631	3	3	23	mem	con	mod	mod	mod	nt	ht	nh/0425_nh.bmp
461.52	0.72	632	1	4	48	mem	lib	low	low	mod	tg	ht	wh/1017.bmp
462.24	0.72	633	4	1	48	mem	con	mod	mod	mod	tg	ht	wh/0204.bmp
462.96	0.72	634	1	3	58	per	lib	low	low	low	tg	ht	wh/0662.bmp
463.68	0.72	635	4	2	74	per	lib	low	mod	low	nt	fa	nh/0897_nh.bmp
464.40	0.72	636	5	1	37	mem	con	mod	mod	mod	tg	ht	wh/0561.bmp
465.12	0.72	637	3	3	5	per	con	mod	mod	mod	nt	cr	nh/0391_nh.bmp
465.84	0.72	638	5	1	40	mem	con	mod	mod	mod	nt	ht	nh/0965_nh.bmp
466.56	0.72	639	3	3	42	mem	lib	mod	mod	mod	tg	ht	wh/0919.bmp
467.28	0.72	640	4	2	71	per	lib	low	mod	low	nt	cr	nh/0379_nh.bmp
468.00	0.72	641	4	4	107	mem	con	mod	mod	low	nt	ms	nh/0128_nh.bmp
468.72	0.72	642	4	4	101	mem	con	mod	mod	low	tg	ht	wh/0019.bmp
469.44	0.72	643	6	4	81	per	lib	mod	mod	mod	nt	fa	nh/0899_nh.bmp
470.16	0.72	644	5	4	101	mem	con	mod	mod	low	tg	ht	wh/0019.bmp
470.88	0.72	645	3	4	60	mem	lib	mod	mod	low	nt	ht	nh/0421_nh.bmp
471.60	0.72	646	4	4	99	mem	con	mod	mod	low	nt	ms	nh/0066_nh.bmp
472.32	0.72	647	6	3	40	mem	lib	mod	mod	mod	tg	ht	wh/0938.bmp
473.04	0.72	648	6	4	53	mem	lib	mod	mod	low	tg	ht	wh/0739.bmp
473.76	0.72	649	4	3	14	per	con	mod	mod	mod	tg	ms	wh/0534.bmp
474.48	0.72	650	5	2	81	mem	con	mod	mod	low	nt	ms	nh/0133_nh.bmp
475.20	0.72	651	3	2	64	per	con	low	mod	low	tg	ms	wh/0455.bmp
475.92	0.72	652	1	2	117	mem	con	low	low	low	tg	ms	wh/0109.bmp
476.64	0.72	653	5	1	112	per	lib	mod	mod	mod	nt	cr	nh/0679_nh.bmp
477.36	0.72	654	4	3	5	per	con	mod	mod	mod	nt	cr	nh/0391_nh.bmp
478.08	0.72	655	1	2	46	per	lib	mod	low	mod	nt	fa	nh/0910_nh.bmp
478.80	0.72	656	4	4	128	per	lib	low	mod	low	tg	ms	wh/0233.bmp
479.52	0.72	657	4	2	88	mem	con	mod	mod	low	tg	ht	wh/0031.bmp
480.24	0.72	658	1	2	109	mem	lib	low	low	mod	tg	ht	wh/0476.bmp
480.96	0.72	659	6	3	19	mem	con	mod	mod	mod	nt	ht	nh/0955_nh.bmp
481.68	0.72	660	1	3	108	per	con	low	low	low	nt	cr	nh/0210_nh.bmp
482.40	0.72	661	5	3	13	per	con	mod	mod	mod	nt	cr	nh/0605_nh.bmp
483.12	0.72	662	4	2	64	per	con	low	mod	low	tg	ms	wh/0455.bmp
483.84	0.72	663	5	1	107	per	lib	mod	mod	mod	nt	cr	nh/0637_nh.bmp
484.56	0.72	664	3	1	87	mem	lib	mod	mod	mod	tg	ht	wh/0724.bmp
485.28	0.72	665	3	4	16	per	con	low	mod	low	nt	cr	nh/0387_nh.bmp
486.00	0.72	666	5	4	90	per	lib	mod	mod	mod	tg	ht	wh/0098.bmp
486.72	0.72	667	3	2	7	mem	lib	mod	mod	low	nt	ht	nh/0178_nh.bmp
487.44	0.72	668	5	4	59	mem	lib	mod	mod	low	nt	ht	nh/0733_nh.bmp
488.16	0.72	669	5	3	47	mem	lib	mod	mod	mod	tg	ht	wh/0070.bmp
488.88	0.72	670	4	1	39	mem	con	mod	mod	mod	nt	ms	nh/0698_nh.bmp
489.60	0.72	671	5	1	85	mem	lib	mod	mod	mod	nt	ht	nh/0600_nh.bmp
490.32	0.72	672	1	3	89	mem	lib	low	low	low	nt	ht	nh/0862_nh.bmp
491.04	0.72	673	1	3	67	mem	con	low	low	low	nt	ht	nh/0522_nh.bmp
491.76	0.72	674	4	3	36	mem	lib	mod	mod	mod	nt	ht	nh/0580_nh.bmp
492.48	0.72	675	5	2	58	per	con	low	mod	low	nt	cr	nh/0200_nh.bmp
493.20	0.72	676	5	1	38	mem	con	mod	mod	mod	tg	ms	wh/0585.bmp
493.92	0.72	677	6	1	37	mem	con	mod	mod	mod	tg	ht	wh/0561.bmp
494.64	0.72	678	5	4	14	per	con	low	mod	low	tg	ht	wh/0325.bmp
495.36	0.72	679	3	2	56	per	con	low	mod	low	nt	cr	nh/0116_nh.bmp
496.08	0.72	680	4	1	93	mem	lib	mod	mod	mod	nt	ms	nh/0162_nh.bmp
496.80	0.72	681	3	2	95	mem	con	mod	mod	low	nt	ms	nh/0435_nh.bmp
497.52	0.72	682	5	3	25	mem	con	mod	mod	mod	tg	ms	wh/0935.bmp
498.24	0.72	683	4	2	70	per	lib	low	mod	low	nt	cr	nh/0298_nh.bmp
498.96	0.72	684	3	1	108	per	lib	mod	mod	mod	nt	cr	nh/0884_nh.bmp
499.68	0.72	685	5	4	126	per	lib	low	mod	low	nt	fa	nh/0573_nh.bmp
500.40	0.72	686	4	2	95	mem	con	mod	mod	low	nt	ms	nh/0435_nh.bmp
501.12	0.72	687	5	2	27	per	con	mod	mod	mod	tg	ht	wh/0405.bmp
501.84	0.72	688	4	2	12	mem	lib	mod	mod	low	tg	ht	wh/0115.bmp
502.56	0.72	689	1	4	30	mem	con	low	low	mod	nt	ht	nh/0702_nh.bmp
503.28	0.72	690	6	4	54	mem	lib	mod	mod	low	nt	ms	nh/0868_nh.bmp
504.00	0.72	691	4	1	108	per	lib	mod	mod	mod	nt	cr	nh/0884_nh.bmp
504.72	0.72	692	4	4	60	mem	lib	mod	mod	low	nt	ht	nh/0421_nh.bmp
505.44	0.72	693	4	4	6	per	con	low	mod	low	nt	cr	nh/0745_nh.bmp
506.16	0.72	694	4	4	12	per	con	low	mod	low	tg	ms	wh/0514.bmp
506.88	0.72	695	4	2	60	per	con	low	mod	low	tg	ms	wh/0755.bmp
507.60	0.72	696	5	1	108	per	lib	mod	mod	mod	nt	cr	nh/0884_nh.bmp
508.32	0.72	697	6	4	93	per	lib	mod	mod	mod	nt	cr	nh/0658_nh.bmp
509.04	0.72	698	5	4	60	mem	lib	mod	mod	low	nt	ht	nh/0421_nh.bmp
509.76	0.72	699	5	2	29	per	con	mod	mod	mod	nt	cr	nh/0959_nh.bmp
510.48	0.72	700	4	2	20	per	con	mod	mod	mod	tg	ms	wh/0274.bmp
511.20	0.72	701	5	4	99	mem	con	mod	mod	low	nt	ms	nh/0066_nh.bmp
511.92	0.72	702	4	4	16	per	con	low	mod	low	nt	cr	nh/0387_nh.bmp
512.64	0.72	703	5	2	70	per	lib	low	mod	low	nt	cr	nh/0298_nh.bmp
513.36	0.72	704	1	3	106	per	con	low	low	low	tg	ht	wh/0464.bmp
514.08	0.72	705	1	2	127	mem	con	low	low	low	tg	ms	wh/0481.bmp
514.80	0.72	706	5	3	37	mem	lib	mod	mod	mod	tg	ht	wh/0857.bmp
515.52	0.72	707	5	2	12	mem	lib	mod	mod	low	tg	ht	wh/0115.bmp
516.24	0.72	708	6	3	22	mem	con	mod	mod	mod	tg	ms	wh/0642.bmp
516.96	0.72	709	6	4	3	per	con	low	mod	low	tg	ms	wh/0231.bmp
517.68	0.72	710	5	4	6	per	con	low	mod	low	nt	cr	nh/0745_nh.bmp
518.40	0.72	711	4	4	111	mem	con	mod	mod	low	nt	ms	nh/0816_nh.bmp
519.12	0.72	712	5	2	18	per	con	mod	mod	mod	nt	cr	nh/0975_nh.bmp
519.84	0.72	713	1	2	124	mem	con	low	low	low	nt	ms	nh/0152_nh.bmp
520.56	0.72	714	4	4	127	per	lib	low	mod	low	tg	ms	wh/0624.bmp
521.28	0.72	715	5	3	5	per	con	mod	mod	mod	nt	cr	nh/0391_nh.bmp
522.00	0.72	716	5	2	88	mem	con	mod	mod	low	tg	ht	wh/0031.bmp
522.72	0.72	717	1	4	23	mem	con	low	low	mod	nt	ht	nh/0850_nh.bmp
523.44	0.72	718	6	4	108	mem	con	mod	mod	low	nt	ht	nh/0529_nh.bmp
524.16	0.72	719	4	2	56	per	con	low	mod	low	nt	cr	nh/0116_nh.bmp
524.88	0.72	720	5	4	111	mem	con	mod	mod	low	nt	ms	nh/0816_nh.bmp
525.60	0.72	721	6	2	6	mem	lib	mod	mod	low	tg	ms	wh/0040.bmp
526.32	0.72	722	6	4	126	per	lib	low	mod	low	nt	fa	nh/0573_nh.bmp
527.04	0.72	723	4	3	42	mem	lib	mod	mod	mod	tg	ht	wh/0919.bmp
527.76	0.72	724	1	4	78	per	con	mod	low	mod	nt	cr	nh/0103_nh.bmp
528.48	0.72	725	6	4	101	mem	con	mod	mod	low	tg	ht	wh/0019.bmp
529.20	0.72	726	5	3	36	mem	lib	mod	mod	mod	nt	ht	nh/0580_nh.bmp
529.92	0.72	727	6	3	32	mem	con	mod	mod	mod	tg	ms	wh/0896.bmp
530.64	0.72	728	5	4	127	per	lib	low	mod	low	tg	ms	wh/0624.bmp
531.36	0.72	729	5	2	74	per	lib	low	mod	low	nt	fa	nh/0897_nh.bmp
532.08	0.72	730	5	4	115	per	lib	low	mod	low	tg	ms	wh/0836.bmp
532.80	0.72	731	5	3	42	mem	lib	mod	mod	mod	tg	ht	wh/0919.bmp
533.52	0.72	732	6	1	108	per	lib	mod	mod	mod	nt	cr	nh/0884_nh.bmp
534.24	0.72	733	5	2	77	per	lib	low	mod	low	tg	ht	wh/0648.bmp
534.96	0.72	734	6	3	3	per	con	mod	mod	mod	tg	ht	wh/0981.bmp
535.68	0.72	735	1	3	87	mem	lib	low	low	low	nt	ms	nh/0142_nh.bmp
536.40	0.72	736	5	1	105	per	lib	mod	mod	mod	tg	ht	wh/0183.bmp
537.12	0.72	737	1	3	112	per	con	low	low	low	tg	ms	wh/0889.bmp
537.84	0.72	738	5	4	16	per	con	low	mod	low	nt	cr	nh/0387_nh.bmp
538.56	0.72	739	5	4	8	per	con	low	mod	low	nt	cr	nh/0766_nh.bmp
539.28	0.72	740	1	3	81	mem	lib	low	low	low	tg	ms	wh/0709.bmp
540.00	0.72	741	6	2	12	mem	lib	mod	mod	low	tg	ht	wh/0115.bmp
540.72	0.72	742	5	2	20	per	con	mod	mod	mod	tg	ms	wh/0274.bmp
541.44	0.72	743	6	2	25	per	con	mod	mod	mod	nt	cr	nh/0393_nh.bmp
542.16	0.72	744	4	3	23	mem	con	mod	mod	mod	nt	ht	nh/0425_nh.bmp
542.88	0.72	745	6	2	59	per	con	low	mod	low	nt	cr	nh/1021_nh.bmp
543.60	0.72	746	6	3	30	mem	con	mod	mod	mod	nt	ht	nh/0001_nh.bmp
544.32	0.72	747	6	2	27	per	con	mod	mod	mod	tg	ht	wh/0405.bmp
545.04	0.72	748	1	1	65	per	lib	low	low	low	nt	fa	nh/0141_nh.bmp
545.76	0.72	749	4	1	42	mem	con	mod	mod	mod	nt	ht	nh/0463_nh.bmp
546.48	0.72	750	6	3	37	mem	lib	mod	mod	mod	tg	ht	wh/0857.bmp
547.20	0.72	751	4	1	99	per	lib	mod	mod	mod	tg	ms	wh/0750.bmp
547.92	0.72	752	5	2	60	per	con	low	mod	low	tg	ms	wh/0755.bmp
548.64	0.72	753	1	2	116	mem	con	low	low	low	nt	ms	nh/0499_nh.bmp
549.36	0.72	754	5	2	56	per	con	low	mod	low	nt	cr	nh/0116_nh.bmp
550.08	0.72	755	5	4	118	per	lib	low	mod	low	nt	cr	nh/0472_nh.bmp
550.80	0.72	756	1	1	14	mem	con	low	low	mod	tg	ht	wh/0286.bmp
551.52	0.72	757	6	3	5	per	con	mod	mod	mod	nt	cr	nh/0391_nh.bmp
552.24	0.72	758	6	4	16	per	con	low	mod	low	nt	cr	nh/0387_nh.bmp
552.96	0.72	759	5	3	14	per	con	mod	mod	mod	tg	ms	wh/0534.bmp
553.68	0.72	760	6	4	111	mem	con	mod	mod	low	nt	ms	nh/0816_nh.bmp
554.40	0.72	761	6	1	85	mem	lib	mod	mod	mod	nt	ht	nh/0600_nh.bmp
555.12	0.72	762	6	1	38	mem	con	mod	mod	mod	tg	ms	wh/0585.bmp
555.84	0.72	763	1	4	73	per	con	mod	low	mod	tg	ht	wh/0906.bmp
556.56	0.72	764	5	4	107	mem	con	mod	mod	low	nt	ms	nh/0128_nh.bmp
557.28	0.72	765	6	2	68	per	lib	low	mod	low	tg	ms	wh/0932.bmp
558.00	0.72	766	4	4	62	mem	lib	mod	mod	low	tg	ht	wh/0177.bmp
558.72	0.72	767	1	4	41	mem	lib	low	low	mod	nt	ht	nh/0478_nh.bmp
559.44	0.72	768	5	3	2	per	con	mod	mod	mod	nt	cr	nh/0414_nh.bmp
560.16	0.72	769	6	1	105	per	lib	mod	mod	mod	tg	ht	wh/0183.bmp
560.88	0.72	770	6	4	60	mem	lib	mod	mod	low	nt	ht	nh/0421_nh.bmp
561.60	0.72	771	4	1	87	mem	lib	mod	mod	mod	tg	ht	wh/0724.bmp
562.32	0.72	772	5	1	93	mem	lib	mod	mod	mod	nt	ms	nh/0162_nh.bmp
563.04	0.72	773	1	1	9	mem	con	low	low	mod	tg	ht	wh/0553.bmp
563.76	0.72	774	6	4	115	per	lib	low	mod	low	tg	ms	wh/0836.bmp
564.48	0.72	775	6	4	83	per	lib	mod	mod	mod	tg	ht	wh/0429.bmp
565.20	0.72	776	6	2	81	mem	con	mod	mod	low	nt	ms	nh/0133_nh.bmp
565.92	0.72	777	6	4	59	mem	lib	mod	mod	low	nt	ht	nh/0733_nh.bmp
566.64	0.72	778	5	2	71	per	lib	low	mod	low	nt	cr	nh/0379_nh.bmp
567.36	0.72	779	6	2	71	per	lib	low	mod	low	nt	cr	nh/0379_nh.bmp
568.08	0.72	780	6	4	125	per	lib	low	mod	low	nt	fa	nh/0769_nh.bmp
568.80	0.72	781	5	1	87	mem	lib	mod	mod	mod	tg	ht	wh/0724.bmp
569.52	0.72	782	5	2	64	per	con	low	mod	low	tg	ms	wh/0455.bmp
570.24	0.72	783	5	3	21	mem	con	mod	mod	mod	nt	ht	nh/0700_nh.bmp
570.96	0.72	784	4	2	7	mem	lib	mod	mod	low	nt	ht	nh/0178_nh.bmp
571.68	0.72	785	6	1	40	mem	con	mod	mod	mod	nt	ht	nh/0965_nh.bmp
572.40	0.72	786	6	3	36	mem	lib	mod	mod	mod	nt	ht	nh/0580_nh.bmp
573.12	0.72	787	6	3	13	per	con	mod	mod	mod	nt	cr	nh/0605_nh.bmp
573.84	0.72	788	5	2	95	mem	con	mod	mod	low	nt	ms	nh/0435_nh.bmp
574.56	0.72	789	6	2	77	per	lib	low	mod	low	tg	ht	wh/0648.bmp
575.28	0.72	790	5	1	42	mem	con	mod	mod	mod	nt	ht	nh/0463_nh.bmp
576.00	0.72	791	1	3	61	per	lib	low	low	low	tg	ht	wh/0122.bmp
576.72	0.72	792	5	1	99	per	lib	mod	mod	mod	tg	ms	wh/0750.bmp
577.44	0.72	793	1	3	123	per	lib	mod	low	mod	tg	ht	wh/0844.bmp
578.16	0.72	794	6	3	25	mem	con	mod	mod	mod	tg	ms	wh/0935.bmp
578.88	0.72	795	6	2	54	per	con	low	mod	low	tg	ms	wh/0168.bmp
579.60	0.72	796	5	3	23	mem	con	mod	mod	mod	nt	ht	nh/0425_nh.bmp
580.32	0.72	797	6	2	20	per	con	mod	mod	mod	tg	ms	wh/0274.bmp
581.04	0.72	798	6	3	44	mem	lib	mod	mod	mod	nt	ht	nh/0878_nh.bmp
581.76	0.72	799	6	2	95	mem	con	mod	mod	low	nt	ms	nh/0435_nh.bmp
582.48	0.72	800	6	1	93	mem	lib	mod	mod	mod	nt	ms	nh/0162_nh.bmp
583.20	0.72	801	5	1	48	mem	con	mod	mod	mod	tg	ht	wh/0204.bmp
583.92	0.72	802	5	2	96	mem	con	mod	mod	low	tg	ht	wh/0353.bmp
584.64	0.72	803	1	1	116	per	con	low	low	low	tg	ms	wh/0656.bmp
585.36	0.72	804	5	2	7	mem	lib	mod	mod	low	nt	ht	nh/0178_nh.bmp
586.08	0.72	805	6	2	96	mem	con	mod	mod	low	tg	ht	wh/0353.bmp
586.80	0.72	806	1	3	85	mem	lib	low	low	low	tg	ht	wh/0614.bmp
587.52	0.72	807	5	4	128	per	lib	low	mod	low	tg	ms	wh/0233.bmp
588.24	0.72	808	6	2	82	mem	con	mod	mod	low	nt	ms	nh/0155_nh.bmp
588.96	0.72	809	1	1	54	per	con	mod	low	mod	tg	ms	wh/0776.bmp
589.68	0.72	810	6	2	74	per	lib	low	mod	low	nt	fa	nh/0897_nh.bmp
590.40	0.72	811	1	1	23	mem	lib	low	low	low	tg	ht	wh/0485.bmp
591.12	0.72	812	5	3	9	per	con	mod	mod	mod	tg	ht	wh/0466.bmp
591.84	0.72	813	1	2	104	mem	lib	low	low	mod	nt	ms	nh/0321_nh.bmp
592.56	0.72	814	5	2	4	mem	lib	mod	mod	low	tg	ht	wh/0741.bmp
593.28	0.72	815	6	4	107	mem	con	mod	mod	low	nt	ms	nh/0128_nh.bmp
594.00	0.72	816	5	4	62	mem	lib	mod	mod	low	tg	ht	wh/0177.bmp
594.72	0.72	817	6	2	70	per	lib	low	mod	low	nt	cr	nh/0298_nh.bmp
595.44	0.72	818	5	2	76	per	lib	low	mod	low	nt	cr	nh/0704_nh.bmp
596.16	0.72	819	6	4	62	mem	lib	mod	mod	low	tg	ht	wh/0177.bmp
596.88	0.72	820	6	1	45	mem	con	mod	mod	mod	tg	ms	wh/0841.bmp
597.60	0.72	821	6	2	30	per	con	mod	mod	mod	tg	ht	wh/0189.bmp
598.32	0.72	822	6	1	48	mem	con	mod	mod	mod	tg	ht	wh/0204.bmp
599.04	0.72	823	6	2	22	per	con	mod	mod	mod	tg	ht	wh/0775.bmp
599.76	0.72	824	5	1	39	mem	con	mod	mod	mod	nt	ms	nh/0698_nh.bmp
600.48	0.72	825	6	3	14	per	con	mod	mod	mod	tg	ms	wh/0534.bmp
601.20	0.72	826	6	2	26	per	con	mod	mod	mod	nt	cr	nh/0017_nh.bmp
601.92	0.72	827	5	4	51	mem	lib	mod	mod	low	nt	ht	nh/0341_nh.bmp
602.64	0.72	828	6	4	99	mem	con	mod	mod	low	nt	ms	nh/0066_nh.bmp
603.36	0.72	829	6	4	86	per	lib	mod	mod	mod	tg	ht	wh/0627.bmp
604.08	0.72	830	6	2	76	per	lib	low	mod	low	nt	cr	nh/0704_nh.bmp
604.80	0.72	831	6	3	17	mem	con	mod	mod	mod	tg	ms	wh/0984.bmp
605.52	0.72	832	6	3	2	per	con	mod	mod	mod	nt	cr	nh/0414_nh.bmp
606.24	0.72	833	6	2	7	mem	lib	mod	mod	low	nt	ht	nh/0178_nh.bmp
606.96	0.72	834	6	4	11	per	con	low	mod	low	tg	ms	wh/0145.bmp
607.68	0.72	835	1	1	32	mem	lib	low	low	low	nt	ht	nh/0330_nh.bmp
608.40	0.72	836	6	4	120	per	lib	low	mod	low	tg	ht	wh/0251.bmp
609.12	0.72	837	6	2	56	per	con	low	mod	low	nt	cr	nh/0116_nh.bmp
609.84	0.72	838	6	4	128	per	lib	low	mod	low	tg	ms	wh/0233.bmp
610.56	0.72	839	6	1	42	mem	con	mod	mod	mod	nt	ht	nh/0463_nh.bmp
611.28	0.72	840	6	3	15	per	con	mod	mod	mod	nt	cr	nh/0801_nh.bmp
612.00	0.72	841	1	3	50	per	lib	low	low	low	nt	cr	nh/0722_nh.bmp
612.72	0.72	842	6	4	14	per	con	low	mod	low	tg	ht	wh/0325.bmp
613.44	0.72	843	6	1	87	mem	lib	mod	mod	mod	tg	ht	wh/0724.bmp
614.16	0.72	844	6	2	2	mem	lib	mod	mod	low	nt	ht	nh/0649_nh.bmp
614.88	0.72	845	6	3	23	mem	con	mod	mod	mod	nt	ht	nh/0425_nh.bmp
615.60	0.72	846	6	2	88	mem	con	mod	mod	low	tg	ht	wh/0031.bmp
616.32	0.72	847	6	3	9	per	con	mod	mod	mod	tg	ht	wh/0466.bmp
617.04	0.72	848	5	1	46	mem	con	mod	mod	mod	nt	ht	nh/0785_nh.bmp
617.76	0.72	849	6	4	91	per	lib	mod	mod	mod	nt	fa	nh/0621_nh.bmp
618.48	0.72	850	6	3	21	mem	con	mod	mod	mod	nt	ht	nh/0700_nh.bmp
619.20	0.72	851	1	3	126	per	lib	mod	low	mod	nt	cr	nh/0235_nh.bmp
619.92	0.72	852	6	2	58	per	con	low	mod	low	nt	cr	nh/0200_nh.bmp
620.64	0.72	853	1	3	54	per	lib	low	low	low	nt	fa	nh/0257_nh.bmp
621.36	0.72	854	1	1	51	per	con	mod	low	mod	tg	ht	wh/0589.bmp
622.08	0.72	855	6	2	18	per	con	mod	mod	mod	nt	cr	nh/0975_nh.bmp
622.80	0.72	856	6	3	16	per	con	mod	mod	mod	tg	ms	wh/0681.bmp
623.52	0.72	857	6	2	60	per	con	low	mod	low	tg	ms	wh/0755.bmp
624.24	0.72	858	6	2	4	mem	lib	mod	mod	low	tg	ht	wh/0741.bmp
624.96	0.72	859	6	2	8	mem	lib	mod	mod	low	nt	ht	nh/0926_nh.bmp
625.68	0.72	860	5	4	87	per	lib	mod	mod	mod	tg	ms	wh/0692.bmp
626.40	0.72	861	6	4	124	per	lib	low	mod	low	nt	cr	nh/0853_nh.bmp
627.12	0.72	862	6	2	89	mem	con	mod	mod	low	tg	ht	wh/0163.bmp
627.84	0.72	863	6	4	51	mem	lib	mod	mod	low	nt	ht	nh/0341_nh.bmp
628.56	0.72	864	6	2	64	per	con	low	mod	low	tg	ms	wh/0455.bmp
629.28	0.72	865	6	2	51	per	con	low	mod	low	tg	ms	wh/0205.bmp
630.00	0.72	866	1	2	112	mem	lib	low	low	mod	tg	ht	wh/0974.bmp
630.72	0.72	867	6	4	87	per	lib	mod	mod	mod	tg	ms	wh/0692.bmp
631.44	0.72	868	6	4	112	mem	con	mod	mod	low	tg	ht	wh/0597.bmp
632.16	0.72	869	6	1	39	mem	con	mod	mod	mod	nt	ms	nh/0698_nh.bmp
632.88	0.72	870	5	4	12	per	con	low	mod	low	tg	ms	wh/0514.bmp
633.60	0.72	871	6	4	8	per	con	low	mod	low	nt	cr	nh/0766_nh.bmp
634.32	0.72	872	6	3	47	mem	lib	mod	mod	mod	tg	ht	wh/0070.bmp
635.04	0.72	873	1	2	43	per	lib	mod	low	mod	nt	fa	nh/0550_nh.bmp
635.76	0.72	874	6	1	107	per	lib	mod	mod	mod	nt	cr	nh/0637_nh.bmp
636.48	0.72	875	6	4	106	mem	con	mod	mod	low	tg	ms	wh/0377.bmp
637.20	0.72	876	6	2	29	per	con	mod	mod	mod	nt	cr	nh/0959_nh.bmp
637.92	0.72	877	1	1	69	per	lib	low	low	low	tg	ms	wh/0533.bmp
638.64	0.72	878	6	4	6	per	con	low	mod	low	nt	cr	nh/0745_nh.bmp
639.36	0.72	879	6	1	90	mem	lib	mod	mod	mod	nt	ht	nh/0879_nh.bmp
640.08	0.72	880	6	1	99	per	lib	mod	mod	mod	tg	ms	wh/0750.bmp
640.80	0.72	881	6	2	92	mem	con	mod	mod	low	nt	ms	nh/0515_nh.bmp
641.52	0.72	882	1	1	19	mem	lib	low	low	low	tg	ht	wh/0159.bmp
642.24	0.72	883	6	4	127	per	lib	low	mod	low	tg	ms	wh/0624.bmp
642.96	0.72	884	6	4	90	per	lib	mod	mod	mod	tg	ht	wh/0098.bmp
643.68	0.72	885	5	2	11	mem	lib	mod	mod	low	nt	ht	nh/0014_nh.bmp
644.40	0.72	886	6	1	91	mem	lib	mod	mod	mod	nt	ht	nh/0596_nh.bmp
645.12	0.72	887	1	1	68	per	lib	low	low	low	nt	cr	nh/0006_nh.bmp
645.84	0.72	888	6	1	101	per	lib	mod	mod	mod	nt	fa	nh/0942_nh.bmp
646.56	0.72	889	6	3	42	mem	lib	mod	mod	mod	tg	ht	wh/0919.bmp
647.28	0.72	890	6	1	46	mem	con	mod	mod	mod	nt	ht	nh/0785_nh.bmp
648.00	0.72	891	5	2	61	per	con	low	mod	low	nt	cr	nh/0727_nh.bmp
648.72	0.72	892	6	4	118	per	lib	low	mod	low	nt	cr	nh/0472_nh.bmp
649.44	0.72	893	6	2	61	per	con	low	mod	low	nt	cr	nh/0727_nh.bmp
650.16	0.72	894	6	4	12	per	con	low	mod	low	tg	ms	wh/0514.bmp
650.88	0.72	895	6	2	11	mem	lib	mod	mod	low	nt	ht	nh/0014_nh.bmp
651.60	0.72	896	6	1	112	per	lib	mod	mod	mod	nt	cr	nh/0679_nh.bmp
