onset	duration	trial	pres	ts_blk	ts_trl	task	crit	disc	mem_disc	per_disc	per_type	accuracy	stim_file
7.20	0.72	1	1	8	27	per	lib	mod	mod	mod	nt	cr	nh/0805_nh.bmp
7.92	0.72	2	1	5	28	mem	lib	mod	mod	mod	nt	ht	nh/0396_nh.bmp
8.64	0.72	3	1	6	33	per	lib	mod	low	mod	tg	ht	wh/0129.bmp
9.36	0.72	4	1	5	40	per	con	low	mod	low	tg	ms	wh/0646.bmp
10.08	0.72	5	1	5	52	mem	con	mod	mod	low	nt	ht	nh/0123_nh.bmp
10.80	0.72	6	1	7	25	per	lib	low	mod	low	nt	cr	nh/0510_nh.bmp
11.52	0.72	7	2	5	40	per	con	low	mod	low	tg	ms	wh/0646.bmp
12.24	0.72	8	1	8	105	mem	lib	mod	mod	low	nt	ht	nh/0568_nh.bmp
12.96	0.72	9	1	5	47	per	con	low	mod	low	tg	ms	wh/0032.bmp
13.68	0.72	10	1	8	90	mem	lib	low	low	mod	tg	ht	wh/0059.bmp
14.40	0.72	11	1	6	105	mem	lib	mod	mod	low	tg	ht	wh/0074.bmp
15.12	0.72	12	1	6	108	mem	lib	mod	mod	low	nt	ht	nh/0238_nh.bmp
15.84	0.72	13	2	8	27	per	lib	mod	mod	mod	nt	cr	nh/0805_nh.bmp
16.56	0.72	14	1	7	114	per	con	low	low	low	nt	cr	nh/0088_nh.bmp
17.28	0.72	15	2	8	105	mem	lib	mod	mod	low	nt	ht	nh/0568_nh.bmp
18.00	0.72	16	1	5	21	mem	lib	mod	mod	mod	tg	ht	wh/0954.bmp
18.72	0.72	17	1	5	27	mem	lib	mod	mod	mod	nt	ms	nh/0588_nh.bmp
19.44	0.72	18	1	6	42	per	lib	mod	low	mod	tg	ht	wh/0718.bmp
20.16	0.72	19	1	5	81	per	lib	mod	mod	mod	nt	fa	nh/0199_nh.bmp
20.88	0.72	20	1	8	28	per	lib	mod	mod	mod	tg	ht	wh/0650.bmp
21.60	0.72	21	1	6	55	per	con	mod	mod	mod	nt	cr	nh/0446_nh.bmp
22.32	0.72	22	1	7	104	mem	con	mod	mod	mod	tg	ms	wh/0339.bmp
23.04	0.72	23	1	8	30	per	lib	mod	mod	mod	tg	ms	wh/0810.bmp
23.76	0.72	24	1	7	107	mem	con	mod	mod	mod	nt	ms	nh/0962_nh.bmp
24.48	0.72	25	1	8	67	per	con	low	mod	low	nt	cr	nh/0690_nh.bmp
25.20	0.72	26	1	5	73	per	lib	low	mod	low	nt	cr	nh/0730_nh.bmp
25.92	0.72	27	1	5	69	per	lib	low	mod	low	tg	ht	wh/0364.bmp
26.64	0.72	28	1	6	111	mem	lib	mod	mod	low	nt	ht	nh/0383_nh.bmp
27.36	0.72	29	1	6	59	per	con	mod	mod	mod	nt	cr	nh/0714_nh.bmp
28.08	0.72	30	2	8	30	per	lib	mod	mod	mod	tg	ms	wh/0810.bmp
28.80	0.72	31	1	8	109	mem	lib	mod	mod	low	tg	ht	wh/0619.bmp
29.52	0.72	32	1	6	9	mem	lib	low	low	low	nt	ht	nh/0206_nh.bmp
30.24	0.72	33	1	8	65	per	con	low	mod	low	tg	ht	wh/0036.bmp
30.96	0.72	34	1	5	79	per	lib	low	mod	low	nt	fa	nh/0404_nh.bmp
31.68	0.72	35	1	7	100	mem	con	mod	mod	mod	tg	ms	wh/0350.bmp
32.40	0.72	36	1	7	60	mem	lib	low	low	low	tg	ht	wh/0579.bmp
33.12	0.72	37	2	8	28	per	lib	mod	mod	mod	tg	ht	wh/0650.bmp
33.84	0.72	38	1	8	80	per	con	low	mod	low	tg	ms	wh/0232.bmp
34.56	0.72	39	1	5	36	per	con	low	mod	low	tg	ms	wh/0940.bmp
35.28	0.72	40	1	6	116	per	lib	low	low	low	tg	n/a	wh/0507.bmp
36.00	0.72	41	1	8	124	mem	con	mod	mod	low	tg	ht	wh/0150.bmp
36.72	0.72	42	2	8	124	mem	con	mod	mod	low	tg	ht	wh/0150.bmp
37.44	0.72	43	1	5	113	per	con	mod	low	mod	nt	cr	nh/0277_nh.bmp
38.16	0.72	44	1	5	65	per	lib	low	mod	low	nt	fa	nh/0355_nh.bmp
38.88	0.72	45	1	8	70	per	con	low	mod	low	nt	cr	nh/0760_nh.bmp
39.60	0.72	46	1	8	22	per	lib	mod	mod	mod	tg	ht	wh/0182.bmp
40.32	0.72	47	1	8	115	mem	con	mod	mod	low	nt	ms	nh/0802_nh.bmp
41.04	0.72	48	1	8	34	per	con	mod	low	mod	tg	ht	wh/0838.bmp
41.76	0.72	49	1	5	24	mem	lib	mod	mod	mod	tg	ht	wh/0095.bmp
42.48	0.72	50	1	8	62	per	lib	low	low	low	tg	ht	wh/0706.bmp
43.20	0.72	51	1	8	82	mem	lib	low	low	mod	nt	ms	nh/0782_nh.bmp
43.92	0.72	52	2	5	81	per	lib	mod	mod	mod	nt	fa	nh/0199_nh.bmp
44.64	0.72	53	1	8	103	mem	lib	mod	mod	low	tg	ht	wh/0489.bmp
45.36	0.72	54	1	5	19	mem	lib	mod	mod	mod	nt	ht	nh/0843_nh.bmp
46.08	0.72	55	1	5	125	per	con	mod	low	mod	nt	cr	nh/0572_nh.bmp
46.80	0.72	56	1	5	72	per	lib	low	mod	low	tg	ms	wh/0256.bmp
47.52	0.72	57	1	6	32	mem	con	mod	mod	mod	nt	ms	nh/0380_nh.bmp
48.24	0.72	58	1	5	23	mem	lib	mod	mod	mod	tg	ht	wh/0876.bmp
48.96	0.72	59	2	6	59	per	con	mod	mod	mod	nt	cr	nh/0714_nh.bmp
49.68	0.72	60	1	6	83	mem	con	low	low	low	tg	ms	wh/0439.bmp
50.40	0.72	61	1	5	90	per	lib	mod	mod	mod	tg	ms	wh/0855.bmp
51.12	0.72	62	1	8	125	mem	con	mod	mod	low	nt	ht	nh/0613_nh.bmp
51.84	0.72	63	1	8	76	per	con	low	mod	low	nt	cr	nh/0361_nh.bmp
52.56	0.72	64	1	6	7	mem	lib	low	low	low	tg	ht	wh/0710.bmp
53.28	0.72	65	1	6	107	mem	lib	mod	mod	low	tg	ht	wh/0075.bmp
54.00	0.72	66	1	8	110	mem	lib	mod	mod	low	nt	ht	nh/0508_nh.bmp
54.72	0.72	67	1	7	88	per	con	mod	mod	mod	tg	ht	wh/0716.bmp
55.44	0.72	68	2	7	25	per	lib	low	mod	low	nt	cr	nh/0510_nh.bmp
56.16	0.72	69	1	8	71	per	con	low	mod	low	nt	fa	nh/0443_nh.bmp
56.88	0.72	70	1	7	81	per	con	mod	mod	mod	nt	cr	nh/0803_nh.bmp
57.60	0.72	71	1	5	94	per	lib	mod	mod	mod	tg	ht	wh/0094.bmp
58.32	0.72	72	2	8	65	per	con	low	mod	low	tg	ht	wh/0036.bmp
59.04	0.72	73	1	5	121	per	con	mod	low	mod	nt	cr	nh/0092_nh.bmp
59.76	0.72	74	2	5	69	per	lib	low	mod	low	tg	ht	wh/0364.bmp
60.48	0.72	75	1	6	74	per	con	low	low	low	tg	ht	wh/0013.bmp
61.20	0.72	76	1	8	113	mem	con	mod	mod	low	nt	ht	nh/0417_nh.bmp
61.92	0.72	77	1	7	125	per	con	low	low	low	tg	ms	wh/0197.bmp
62.64	0.72	78	1	7	110	mem	con	mod	mod	mod	nt	ms	nh/0748_nh.bmp
63.36	0.72	79	1	6	25	mem	con	mod	mod	mod	tg	ms	wh/0328.bmp
64.08	0.72	80	1	5	30	mem	lib	mod	mod	mod	tg	ht	wh/0697.bmp
64.80	0.72	81	1	7	35	mem	lib	mod	mod	mod	tg	ht	wh/0973.bmp
65.52	0.72	82	1	7	48	mem	lib	mod	mod	mod	tg	ht	wh/0947.bmp
66.24	0.72	83	1	5	56	mem	con	mod	mod	low	nt	ht	nh/0493_nh.bmp
66.96	0.72	84	1	5	59	mem	con	mod	mod	low	tg	ms	wh/0608.bmp
67.68	0.72	85	1	7	21	per	lib	low	mod	low	tg	ms	wh/0284.bmp
68.40	0.72	86	1	7	101	mem	con	mod	mod	mod	nt	ms	nh/0946_nh.bmp
69.12	0.72	87	1	6	58	per	con	mod	mod	mod	nt	cr	nh/0099_nh.bmp
69.84	0.72	88	1	8	21	per	lib	mod	mod	mod	nt	cr	nh/0428_nh.bmp
70.56	0.72	89	2	5	19	mem	lib	mod	mod	mod	nt	ht	nh/0843_nh.bmp
71.28	0.72	90	2	5	27	mem	lib	mod	mod	mod	nt	ms	nh/0588_nh.bmp
72.00	0.72	91	1	5	95	per	lib	mod	mod	mod	nt	cr	nh/0222_nh.bmp
72.72	0.72	92	2	5	28	mem	lib	mod	mod	mod	nt	ht	nh/0396_nh.bmp
73.44	0.72	93	1	6	100	mem	lib	mod	mod	low	nt	ht	nh/0125_nh.bmp
74.16	0.72	94	2	8	71	per	con	low	mod	low	nt	fa	nh/0443_nh.bmp
74.88	0.72	95	2	8	22	per	lib	mod	mod	mod	tg	ht	wh/0182.bmp
75.60	0.72	96	1	6	17	mem	con	mod	mod	mod	tg	ms	wh/0591.bmp
76.32	0.72	97	1	5	42	per	con	low	mod	low	nt	cr	nh/0660_nh.bmp
77.04	0.72	98	1	5	122	per	con	mod	low	mod	tg	ht	wh/0699.bmp
77.76	0.72	99	1	5	98	mem	con	low	low	mod	tg	ms	wh/0096.bmp
78.48	0.72	100	1	5	77	per	lib	low	mod	low	nt	cr	nh/0744_nh.bmp
79.20	0.72	101	2	5	79	per	lib	low	mod	low	nt	fa	nh/0404_nh.bmp
79.92	0.72	102	2	5	30	mem	lib	mod	mod	mod	tg	ht	wh/0697.bmp
80.64	0.72	103	1	5	91	per	lib	mod	mod	mod	tg	ht	wh/0187.bmp
81.36	0.72	104	3	6	59	per	con	mod	mod	mod	nt	cr	nh/0714_nh.bmp
82.08	0.72	105	1	7	30	per	lib	low	mod	low	nt	fa	nh/0134_nh.bmp
82.80	0.72	106	2	7	30	per	lib	low	mod	low	nt	fa	nh/0134_nh.bmp
83.52	0.72	107	2	7	104	mem	con	mod	mod	mod	tg	ms	wh/0339.bmp
84.24	0.72	108	2	5	72	per	lib	low	mod	low	tg	ms	wh/0256.bmp
84.96	0.72	109	3	5	28	mem	lib	mod	mod	mod	nt	ht	nh/0396_nh.bmp
85.68	0.72	110	1	6	29	mem	con	mod	mod	mod	nt	ht	nh/0795_nh.bmp
86.40	0.72	111	3	5	69	per	lib	low	mod	low	tg	ht	wh/0364.bmp
87.12	0.72	112	1	5	43	per	con	low	mod	low	nt	cr	nh/0963_nh.bmp
87.84	0.72	113	1	6	115	per	lib	low	low	low	nt	cr	nh/0804_nh.bmp
88.56	0.72	114	1	6	34	per	lib	mod	low	mod	nt	cr	nh/0301_nh.bmp
89.28	0.72	115	3	8	105	mem	lib	mod	mod	low	nt	ht	nh/0568_nh.bmp
90.00	0.72	116	1	8	97	mem	lib	mod	mod	low	nt	ht	nh/0577_nh.bmp
90.72	0.72	117	1	6	87	mem	con	low	low	low	nt	ms	nh/0223_nh.bmp
91.44	0.72	118	1	6	13	mem	lib	low	low	low	tg	ht	wh/0113.bmp
92.16	0.72	119	1	8	106	mem	lib	mod	mod	low	tg	ht	wh/0029.bmp
92.88	0.72	120	1	7	115	per	con	low	low	low	tg	ms	wh/0053.bmp
93.60	0.72	121	1	8	24	per	lib	mod	mod	mod	nt	fa	nh/0273_nh.bmp
94.32	0.72	122	1	7	7	per	lib	mod	low	mod	nt	fa	nh/0936_nh.bmp
95.04	0.72	123	1	5	18	mem	lib	mod	mod	mod	nt	ht	nh/0497_nh.bmp
95.76	0.72	124	2	6	108	mem	lib	mod	mod	low	nt	ht	nh/0238_nh.bmp
96.48	0.72	125	2	5	65	per	lib	low	mod	low	nt	fa	nh/0355_nh.bmp
97.20	0.72	126	1	6	27	mem	con	mod	mod	mod	nt	ms	nh/0442_nh.bmp
97.92	0.72	127	1	7	71	mem	con	low	low	low	tg	ms	wh/0112.bmp
98.64	0.72	128	1	8	5	mem	con	low	low	mod	tg	ms	wh/0762.bmp
99.36	0.72	129	2	8	125	mem	con	mod	mod	low	nt	ht	nh/0613_nh.bmp
100.08	0.72	130	1	7	74	mem	con	low	low	low	tg	ms	wh/0999.bmp
100.80	0.72	131	3	5	27	mem	lib	mod	mod	mod	nt	ms	nh/0588_nh.bmp
101.52	0.72	132	1	6	24	mem	con	mod	mod	mod	nt	ms	nh/0684_nh.bmp
102.24	0.72	133	1	7	83	per	con	mod	mod	mod	nt	cr	nh/0909_nh.bmp
102.96	0.72	134	1	8	26	per	lib	mod	mod	mod	tg	ht	wh/0904.bmp
103.68	0.72	135	2	8	26	per	lib	mod	mod	mod	tg	ht	wh/0904.bmp
104.40	0.72	136	2	8	103	mem	lib	mod	mod	low	tg	ht	wh/0489.bmp
105.12	0.72	137	1	6	21	mem	con	mod	mod	mod	tg	ht	wh/0902.bmp
105.84	0.72	138	3	8	30	per	lib	mod	mod	mod	tg	ms	wh/0810.bmp
106.56	0.72	139	1	8	72	per	con	low	mod	low	tg	ms	wh/0818.bmp
107.28	0.72	140	2	5	52	mem	con	mod	mod	low	nt	ht	nh/0123_nh.bmp
108.00	0.72	141	2	8	80	per	con	low	mod	low	tg	ms	wh/0232.bmp
108.72	0.72	142	1	5	86	per	lib	mod	mod	mod	nt	fa	nh/0941_nh.bmp
109.44	0.72	143	2	7	88	per	con	mod	mod	mod	tg	ht	wh/0716.bmp
110.16	0.72	144	2	8	115	mem	con	mod	mod	low	nt	ms	nh/0802_nh.bmp
110.88	0.72	145	1	6	97	mem	lib	mod	mod	low	tg	ht	wh/0190.bmp
111.60	0.72	146	2	7	21	per	lib	low	mod	low	tg	ms	wh/0284.bmp
112.32	0.72	147	3	7	104	mem	con	mod	mod	mod	tg	ms	wh/0339.bmp
113.04	0.72	148	1	5	49	mem	con	mod	mod	low	tg	ht	wh/0635.bmp
113.76	0.72	149	1	8	60	per	lib	low	low	low	nt	cr	nh/0055_nh.bmp
114.48	0.72	150	1	6	60	per	con	mod	mod	mod	tg	ht	wh/0680.bmp
115.20	0.72	151	3	5	81	per	lib	mod	mod	mod	nt	fa	nh/0199_nh.bmp
115.92	0.72	152	2	8	70	per	con	low	mod	low	nt	cr	nh/0760_nh.bmp
116.64	0.72	153	3	8	22	per	lib	mod	mod	mod	tg	ht	wh/0182.bmp
117.36	0.72	154	1	5	128	per	con	mod	low	mod	tg	ms	wh/0025.bmp
118.08	0.72	155	2	5	91	per	lib	mod	mod	mod	tg	ht	wh/0187.bmp
118.80	0.72	156	1	7	40	mem	lib	mod	mod	mod	nt	ht	nh/0784_nh.bmp
119.52	0.72	157	3	7	30	per	lib	low	mod	low	nt	fa	nh/0134_nh.bmp
120.24	0.72	158	2	8	24	per	lib	mod	mod	mod	nt	fa	nh/0273_nh.bmp
120.96	0.72	159	2	8	72	per	con	low	mod	low	tg	ms	wh/0818.bmp
121.68	0.72	160	1	8	128	mem	con	mod	mod	low	tg	ht	wh/0451.bmp
122.40	0.72	161	2	5	42	per	con	low	mod	low	nt	cr	nh/0660_nh.bmp
123.12	0.72	162	1	7	28	per	lib	low	mod	low	tg	ht	wh/0329.bmp
123.84	0.72	163	2	5	95	per	lib	mod	mod	mod	nt	cr	nh/0222_nh.bmp
124.56	0.72	164	1	8	75	per	con	low	mod	low	tg	ms	wh/0077.bmp
125.28	0.72	165	4	6	59	per	con	mod	mod	mod	nt	cr	nh/0714_nh.bmp
126.00	0.72	166	2	8	109	mem	lib	mod	mod	low	tg	ht	wh/0619.bmp
126.72	0.72	167	1	6	65	per	con	low	low	low	nt	cr	nh/0437_nh.bmp
127.44	0.72	168	1	5	60	mem	con	mod	mod	low	nt	ms	nh/1023_nh.bmp
128.16	0.72	169	3	5	52	mem	con	mod	mod	low	nt	ht	nh/0123_nh.bmp
128.88	0.72	170	2	5	60	mem	con	mod	mod	low	nt	ms	nh/1023_nh.bmp
129.60	0.72	171	1	7	84	per	con	mod	mod	mod	tg	ms	wh/0772.bmp
130.32	0.72	172	1	7	14	per	lib	mod	low	mod	nt	cr	nh/0531_nh.bmp
131.04	0.72	173	2	7	83	per	con	mod	mod	mod	nt	cr	nh/0909_nh.bmp
131.76	0.72	174	3	5	40	per	con	low	mod	low	tg	ms	wh/0646.bmp
132.48	0.72	175	2	7	84	per	con	mod	mod	mod	tg	ms	wh/0772.bmp
133.20	0.72	176	1	7	93	per	con	mod	mod	mod	nt	cr	nh/0371_nh.bmp
133.92	0.72	177	1	8	35	per	con	mod	low	mod	tg	ms	wh/0781.bmp
134.64	0.72	178	3	8	80	per	con	low	mod	low	tg	ms	wh/0232.bmp
135.36	0.72	179	2	6	27	mem	con	mod	mod	mod	nt	ms	nh/0442_nh.bmp
136.08	0.72	180	2	8	97	mem	lib	mod	mod	low	nt	ht	nh/0577_nh.bmp
136.80	0.72	181	2	6	60	per	con	mod	mod	mod	tg	ht	wh/0680.bmp
137.52	0.72	182	2	6	107	mem	lib	mod	mod	low	tg	ht	wh/0075.bmp
138.24	0.72	183	4	8	22	per	lib	mod	mod	mod	tg	ht	wh/0182.bmp
138.96	0.72	184	1	8	6	mem	con	low	low	mod	tg	ms	wh/0419.bmp
139.68	0.72	185	1	7	42	mem	lib	mod	mod	mod	nt	ht	nh/0548_nh.bmp
140.40	0.72	186	2	8	21	per	lib	mod	mod	mod	nt	cr	nh/0428_nh.bmp
141.12	0.72	187	2	5	73	per	lib	low	mod	low	nt	cr	nh/0730_nh.bmp
141.84	0.72	188	2	8	110	mem	lib	mod	mod	low	nt	ht	nh/0508_nh.bmp
142.56	0.72	189	1	8	17	per	lib	mod	mod	mod	nt	fa	nh/0209_nh.bmp
143.28	0.72	190	1	5	114	per	con	mod	low	mod	tg	ht	wh/0220.bmp
144.00	0.72	191	1	8	127	mem	con	mod	mod	low	tg	ht	wh/0336.bmp
144.72	0.72	192	1	8	95	mem	lib	low	low	mod	tg	ht	wh/0598.bmp
145.44	0.72	193	1	7	46	mem	lib	mod	mod	mod	tg	ht	wh/0462.bmp
146.16	0.72	194	2	8	67	per	con	low	mod	low	nt	cr	nh/0690_nh.bmp
146.88	0.72	195	2	5	77	per	lib	low	mod	low	nt	cr	nh/0744_nh.bmp
147.60	0.72	196	1	7	52	mem	lib	low	low	low	nt	ht	nh/0370_nh.bmp
148.32	0.72	197	2	5	56	mem	con	mod	mod	low	nt	ht	nh/0493_nh.bmp
149.04	0.72	198	2	6	55	per	con	mod	mod	mod	nt	cr	nh/0446_nh.bmp
149.76	0.72	199	3	8	110	mem	lib	mod	mod	low	nt	ht	nh/0508_nh.bmp
150.48	0.72	200	2	6	100	mem	lib	mod	mod	low	nt	ht	nh/0125_nh.bmp
151.20	0.72	201	4	8	80	per	con	low	mod	low	tg	ms	wh/0232.bmp
151.92	0.72	202	1	5	71	per	lib	low	mod	low	tg	ht	wh/0351.bmp
152.64	0.72	203	1	5	66	per	lib	low	mod	low	tg	ms	wh/0758.bmp
153.36	0.72	204	1	5	38	per	con	low	mod	low	nt	cr	nh/0035_nh.bmp
154.08	0.72	205	1	5	105	mem	con	low	low	mod	nt	ms	nh/0044_nh.bmp
154.80	0.72	206	1	5	37	per	con	low	mod	low	tg	ht	wh/0080.bmp
155.52	0.72	207	1	7	32	per	lib	low	mod	low	tg	ht	wh/0382.bmp
156.24	0.72	208	1	5	63	mem	con	mod	mod	low	tg	ms	wh/0964.bmp
156.96	0.72	209	1	7	44	mem	lib	mod	mod	mod	nt	ht	nh/0447_nh.bmp
157.68	0.72	210	3	5	91	per	lib	mod	mod	mod	tg	ht	wh/0187.bmp
158.40	0.72	211	2	5	18	mem	lib	mod	mod	mod	nt	ht	nh/0497_nh.bmp
159.12	0.72	212	4	7	30	per	lib	low	mod	low	nt	fa	nh/0134_nh.bmp
159.84	0.72	213	2	7	48	mem	lib	mod	mod	mod	tg	ht	wh/0947.bmp
160.56	0.72	214	3	7	88	per	con	mod	mod	mod	tg	ht	wh/0716.bmp
161.28	0.72	215	2	8	17	per	lib	mod	mod	mod	nt	fa	nh/0209_nh.bmp
162.00	0.72	216	1	6	10	mem	lib	low	low	low	nt	ht	nh/0452_nh.bmp
162.72	0.72	217	4	5	52	mem	con	mod	mod	low	nt	ht	nh/0123_nh.bmp
163.44	0.72	218	2	7	28	per	lib	low	mod	low	tg	ht	wh/0329.bmp
164.16	0.72	219	2	5	21	mem	lib	mod	mod	mod	tg	ht	wh/0954.bmp
164.88	0.72	220	2	5	86	per	lib	mod	mod	mod	nt	fa	nh/0941_nh.bmp
165.60	0.72	221	2	6	17	mem	con	mod	mod	mod	tg	ms	wh/0591.bmp
166.32	0.72	222	2	5	23	mem	lib	mod	mod	mod	tg	ht	wh/0876.bmp
167.04	0.72	223	1	7	23	per	lib	low	mod	low	nt	cr	nh/0338_nh.bmp
167.76	0.72	224	2	5	47	per	con	low	mod	low	tg	ms	wh/0032.bmp
168.48	0.72	225	2	6	58	per	con	mod	mod	mod	nt	cr	nh/0099_nh.bmp
169.20	0.72	226	2	5	94	per	lib	mod	mod	mod	tg	ht	wh/0094.bmp
169.92	0.72	227	1	8	12	mem	con	low	low	mod	nt	ms	nh/0216_nh.bmp
170.64	0.72	228	1	7	97	mem	con	mod	mod	mod	tg	ms	wh/0593.bmp
171.36	0.72	229	1	7	79	mem	con	low	low	low	nt	ht	nh/0148_nh.bmp
172.08	0.72	230	5	5	52	mem	con	mod	mod	low	nt	ht	nh/0123_nh.bmp
172.80	0.72	231	1	6	54	per	con	mod	mod	mod	tg	ht	wh/0543.bmp
173.52	0.72	232	2	5	66	per	lib	low	mod	low	tg	ms	wh/0758.bmp
174.24	0.72	233	2	7	23	per	lib	low	mod	low	nt	cr	nh/0338_nh.bmp
174.96	0.72	234	2	7	107	mem	con	mod	mod	mod	nt	ms	nh/0962_nh.bmp
175.68	0.72	235	1	7	45	mem	lib	mod	mod	mod	tg	ht	wh/0397.bmp
176.40	0.72	236	3	8	97	mem	lib	mod	mod	low	nt	ht	nh/0577_nh.bmp
177.12	0.72	237	6	5	52	mem	con	mod	mod	low	nt	ht	nh/0123_nh.bmp
177.84	0.72	238	2	8	106	mem	lib	mod	mod	low	tg	ht	wh/0029.bmp
178.56	0.72	239	3	8	115	mem	con	mod	mod	low	nt	ms	nh/0802_nh.bmp
179.28	0.72	240	1	5	14	mem	lib	low	low	mod	tg	ht	wh/0774.bmp
180.00	0.72	241	4	5	81	per	lib	mod	mod	mod	nt	fa	nh/0199_nh.bmp
180.72	0.72	242	3	8	67	per	con	low	mod	low	nt	cr	nh/0690_nh.bmp
181.44	0.72	243	3	7	84	per	con	mod	mod	mod	tg	ms	wh/0772.bmp
182.16	0.72	244	2	8	76	per	con	low	mod	low	nt	cr	nh/0361_nh.bmp
182.88	0.72	245	2	6	21	mem	con	mod	mod	mod	tg	ht	wh/0902.bmp
183.60	0.72	246	3	7	107	mem	con	mod	mod	mod	nt	ms	nh/0962_nh.bmp
184.32	0.72	247	3	6	58	per	con	mod	mod	mod	nt	cr	nh/0099_nh.bmp
185.04	0.72	248	2	5	59	mem	con	mod	mod	low	tg	ms	wh/0608.bmp
185.76	0.72	249	3	5	86	per	lib	mod	mod	mod	nt	fa	nh/0941_nh.bmp
186.48	0.72	250	3	7	28	per	lib	low	mod	low	tg	ht	wh/0329.bmp
187.20	0.72	251	2	8	127	mem	con	mod	mod	low	tg	ht	wh/0336.bmp
187.92	0.72	252	1	7	90	per	con	mod	mod	mod	nt	cr	nh/0928_nh.bmp
188.64	0.72	253	3	6	21	mem	con	mod	mod	mod	tg	ht	wh/0902.bmp
189.36	0.72	254	1	6	90	mem	con	low	low	low	tg	ms	wh/0158.bmp
190.08	0.72	255	1	6	103	mem	lib	mod	mod	low	nt	ht	nh/0465_nh.bmp
190.80	0.72	256	3	5	60	mem	con	mod	mod	low	nt	ms	nh/1023_nh.bmp
191.52	0.72	257	2	7	40	mem	lib	mod	mod	mod	nt	ht	nh/0784_nh.bmp
192.24	0.72	258	3	5	47	per	con	low	mod	low	tg	ms	wh/0032.bmp
192.96	0.72	259	4	7	104	mem	con	mod	mod	mod	tg	ms	wh/0339.bmp
193.68	0.72	260	1	6	26	mem	con	mod	mod	mod	tg	ht	wh/0398.bmp
194.40	0.72	261	2	7	90	per	con	mod	mod	mod	nt	cr	nh/0928_nh.bmp
195.12	0.72	262	2	5	43	per	con	low	mod	low	nt	cr	nh/0963_nh.bmp
195.84	0.72	263	1	8	112	mem	lib	mod	mod	low	tg	ht	wh/0893.bmp
196.56	0.72	264	5	8	80	per	con	low	mod	low	tg	ms	wh/0232.bmp
197.28	0.72	265	3	8	21	per	lib	mod	mod	mod	nt	cr	nh/0428_nh.bmp
198.00	0.72	266	2	8	113	mem	con	mod	mod	low	nt	ht	nh/0417_nh.bmp
198.72	0.72	267	3	6	100	mem	lib	mod	mod	low	nt	ht	nh/0125_nh.bmp
199.44	0.72	268	3	8	71	per	con	low	mod	low	nt	fa	nh/0443_nh.bmp
200.16	0.72	269	3	5	72	per	lib	low	mod	low	tg	ms	wh/0256.bmp
200.88	0.72	270	1	6	68	per	con	low	low	low	nt	cr	nh/0731_nh.bmp
201.60	0.72	271	1	7	86	per	con	mod	mod	mod	tg	ms	wh/0540.bmp
202.32	0.72	272	1	5	58	mem	con	mod	mod	low	nt	ht	nh/0934_nh.bmp
203.04	0.72	273	2	7	45	mem	lib	mod	mod	mod	tg	ht	wh/0397.bmp
203.76	0.72	274	1	5	1	mem	lib	low	low	mod	nt	ht	nh/0652_nh.bmp
204.48	0.72	275	3	7	40	mem	lib	mod	mod	mod	nt	ht	nh/0784_nh.bmp
205.20	0.72	276	2	7	81	per	con	mod	mod	mod	nt	cr	nh/0803_nh.bmp
205.92	0.72	277	1	8	99	mem	lib	mod	mod	low	nt	ht	nh/0503_nh.bmp
206.64	0.72	278	1	7	113	per	con	low	low	low	tg	ms	wh/0090.bmp
207.36	0.72	279	1	7	94	per	con	mod	mod	mod	tg	ht	wh/0807.bmp
208.08	0.72	280	1	8	13	mem	con	low	low	mod	nt	ms	nh/0992_nh.bmp
208.80	0.72	281	1	7	17	per	lib	low	mod	low	tg	ht	wh/0299.bmp
209.52	0.72	282	1	6	79	per	con	low	low	low	tg	ht	wh/0881.bmp
210.24	0.72	283	3	8	109	mem	lib	mod	mod	low	tg	ht	wh/0619.bmp
210.96	0.72	284	1	7	63	mem	lib	low	low	low	nt	ht	nh/0930_nh.bmp
211.68	0.72	285	4	5	69	per	lib	low	mod	low	tg	ht	wh/0364.bmp
212.40	0.72	286	3	5	66	per	lib	low	mod	low	tg	ms	wh/0758.bmp
213.12	0.72	287	3	8	27	per	lib	mod	mod	mod	nt	cr	nh/0805_nh.bmp
213.84	0.72	288	3	5	65	per	lib	low	mod	low	nt	fa	nh/0355_nh.bmp
214.56	0.72	289	1	7	106	mem	con	mod	mod	mod	tg	ms	wh/0558.bmp
215.28	0.72	290	3	8	28	per	lib	mod	mod	mod	tg	ht	wh/0650.bmp
216.00	0.72	291	4	8	97	mem	lib	mod	mod	low	nt	ht	nh/0577_nh.bmp
216.72	0.72	292	1	7	31	per	lib	low	mod	low	nt	fa	nh/0345_nh.bmp
217.44	0.72	293	2	8	128	mem	con	mod	mod	low	tg	ht	wh/0451.bmp
218.16	0.72	294	3	8	17	per	lib	mod	mod	mod	nt	fa	nh/0209_nh.bmp
218.88	0.72	295	1	8	59	per	lib	low	low	low	tg	ht	wh/0845.bmp
219.60	0.72	296	3	6	17	mem	con	mod	mod	mod	tg	ms	wh/0591.bmp
220.32	0.72	297	3	8	124	mem	con	mod	mod	low	tg	ht	wh/0150.bmp
221.04	0.72	298	1	5	110	mem	con	low	low	mod	tg	ms	wh/0626.bmp
221.76	0.72	299	3	5	21	mem	lib	mod	mod	mod	tg	ht	wh/0954.bmp
222.48	0.72	300	4	5	21	mem	lib	mod	mod	mod	tg	ht	wh/0954.bmp
223.20	0.72	301	3	8	65	per	con	low	mod	low	tg	ht	wh/0036.bmp
223.92	0.72	302	3	7	48	mem	lib	mod	mod	mod	tg	ht	wh/0947.bmp
224.64	0.72	303	3	6	55	per	con	mod	mod	mod	nt	cr	nh/0446_nh.bmp
225.36	0.72	304	2	6	111	mem	lib	mod	mod	low	nt	ht	nh/0383_nh.bmp
226.08	0.72	305	4	8	27	per	lib	mod	mod	mod	nt	cr	nh/0805_nh.bmp
226.80	0.72	306	2	8	99	mem	lib	mod	mod	low	nt	ht	nh/0503_nh.bmp
227.52	0.72	307	2	5	63	mem	con	mod	mod	low	tg	ms	wh/0964.bmp
228.24	0.72	308	1	8	118	mem	con	mod	mod	low	nt	ms	nh/0153_nh.bmp
228.96	0.72	309	4	6	58	per	con	mod	mod	mod	nt	cr	nh/0099_nh.bmp
229.68	0.72	310	2	6	105	mem	lib	mod	mod	low	tg	ht	wh/0074.bmp
230.40	0.72	311	3	5	42	per	con	low	mod	low	nt	cr	nh/0660_nh.bmp
231.12	0.72	312	2	6	32	mem	con	mod	mod	mod	nt	ms	nh/0380_nh.bmp
231.84	0.72	313	4	6	100	mem	lib	mod	mod	low	nt	ht	nh/0125_nh.bmp
232.56	0.72	314	2	7	17	per	lib	low	mod	low	tg	ht	wh/0299.bmp
233.28	0.72	315	3	5	43	per	con	low	mod	low	nt	cr	nh/0963_nh.bmp
234.00	0.72	316	4	8	67	per	con	low	mod	low	nt	cr	nh/0690_nh.bmp
234.72	0.72	317	3	8	106	mem	lib	mod	mod	low	tg	ht	wh/0029.bmp
235.44	0.72	318	1	5	92	per	lib	mod	mod	mod	tg	ht	wh/0319.bmp
236.16	0.72	319	3	7	81	per	con	mod	mod	mod	nt	cr	nh/0803_nh.bmp
236.88	0.72	320	4	8	109	mem	lib	mod	mod	low	tg	ht	wh/0619.bmp
237.60	0.72	321	5	8	109	mem	lib	mod	mod	low	tg	ht	wh/0619.bmp
238.32	0.72	322	5	8	97	mem	lib	mod	mod	low	nt	ht	nh/0577_nh.bmp
239.04	0.72	323	1	6	44	per	lib	mod	low	mod	nt	fa	nh/0520_nh.bmp
239.76	0.72	324	1	7	76	mem	con	low	low	low	nt	ms	nh/0215_nh.bmp
240.48	0.72	325	4	5	66	per	lib	low	mod	low	tg	ms	wh/0758.bmp
241.20	0.72	326	3	7	45	mem	lib	mod	mod	mod	tg	ht	wh/0397.bmp
241.92	0.72	327	1	5	44	per	con	low	mod	low	nt	cr	nh/0194_nh.bmp
242.64	0.72	328	2	5	37	per	con	low	mod	low	tg	ht	wh/0080.bmp
243.36	0.72	329	1	6	57	per	con	mod	mod	mod	nt	cr	nh/0196_nh.bmp
244.08	0.72	330	1	7	75	mem	con	low	low	low	tg	ms	wh/0431.bmp
244.80	0.72	331	1	6	98	mem	lib	mod	mod	low	tg	ht	wh/0967.bmp
245.52	0.72	332	4	5	27	mem	lib	mod	mod	mod	nt	ms	nh/0588_nh.bmp
246.24	0.72	333	1	6	128	per	lib	low	low	low	nt	fa	nh/0956_nh.bmp
246.96	0.72	334	2	6	97	mem	lib	mod	mod	low	tg	ht	wh/0190.bmp
247.68	0.72	335	4	8	105	mem	lib	mod	mod	low	nt	ht	nh/0568_nh.bmp
248.40	0.72	336	1	7	36	mem	lib	mod	mod	mod	nt	ht	nh/0563_nh.bmp
249.12	0.72	337	3	6	105	mem	lib	mod	mod	low	tg	ht	wh/0074.bmp
249.84	0.72	338	4	5	60	mem	con	mod	mod	low	nt	ms	nh/1023_nh.bmp
250.56	0.72	339	2	7	93	per	con	mod	mod	mod	nt	cr	nh/0371_nh.bmp
251.28	0.72	340	5	7	104	mem	con	mod	mod	mod	tg	ms	wh/0339.bmp
252.00	0.72	341	2	7	44	mem	lib	mod	mod	mod	nt	ht	nh/0447_nh.bmp
252.72	0.72	342	2	5	38	per	con	low	mod	low	nt	cr	nh/0035_nh.bmp
253.44	0.72	343	1	8	44	per	con	mod	low	mod	nt	cr	nh/0461_nh.bmp
254.16	0.72	344	4	8	71	per	con	low	mod	low	nt	fa	nh/0443_nh.bmp
254.88	0.72	345	4	7	107	mem	con	mod	mod	mod	nt	ms	nh/0962_nh.bmp
255.60	0.72	346	1	6	67	per	con	low	low	low	tg	ms	wh/0460.bmp
256.32	0.72	347	3	5	38	per	con	low	mod	low	nt	cr	nh/0035_nh.bmp
257.04	0.72	348	3	6	111	mem	lib	mod	mod	low	nt	ht	nh/0383_nh.bmp
257.76	0.72	349	2	7	35	mem	lib	mod	mod	mod	tg	ht	wh/0973.bmp
258.48	0.72	350	1	8	94	mem	lib	low	low	mod	nt	ms	nh/0340_nh.bmp
259.20	0.72	351	1	8	126	mem	con	mod	mod	low	tg	ms	wh/0079.bmp
259.92	0.72	352	4	8	30	per	lib	mod	mod	mod	tg	ms	wh/0810.bmp
260.64	0.72	353	3	7	23	per	lib	low	mod	low	nt	cr	nh/0338_nh.bmp
261.36	0.72	354	3	8	72	per	con	low	mod	low	tg	ms	wh/0818.bmp
262.08	0.72	355	3	8	113	mem	con	mod	mod	low	nt	ht	nh/0417_nh.bmp
262.80	0.72	356	1	6	16	mem	lib	low	low	low	nt	ht	nh/0483_nh.bmp
263.52	0.72	357	1	7	68	mem	con	low	low	low	tg	ms	wh/1007.bmp
264.24	0.72	358	2	6	26	mem	con	mod	mod	mod	tg	ht	wh/0398.bmp
264.96	0.72	359	2	7	31	per	lib	low	mod	low	nt	fa	nh/0345_nh.bmp
265.68	0.72	360	1	6	52	per	con	mod	mod	mod	tg	ms	wh/0542.bmp
266.40	0.72	361	3	8	127	mem	con	mod	mod	low	tg	ht	wh/0336.bmp
267.12	0.72	362	5	8	71	per	con	low	mod	low	nt	fa	nh/0443_nh.bmp
267.84	0.72	363	3	8	125	mem	con	mod	mod	low	nt	ht	nh/0613_nh.bmp
268.56	0.72	364	3	7	93	per	con	mod	mod	mod	nt	cr	nh/0371_nh.bmp
269.28	0.72	365	1	6	69	per	con	low	low	low	tg	ms	wh/0434.bmp
270.00	0.72	366	2	7	46	mem	lib	mod	mod	mod	tg	ht	wh/0462.bmp
270.72	0.72	367	5	8	105	mem	lib	mod	mod	low	nt	ht	nh/0568_nh.bmp
271.44	0.72	368	4	8	21	per	lib	mod	mod	mod	nt	cr	nh/0428_nh.bmp
272.16	0.72	369	1	7	105	mem	con	mod	mod	mod	nt	ms	nh/0957_nh.bmp
272.88	0.72	370	3	5	94	per	lib	mod	mod	mod	tg	ht	wh/0094.bmp
273.60	0.72	371	3	5	77	per	lib	low	mod	low	nt	cr	nh/0744_nh.bmp
274.32	0.72	372	4	6	21	mem	con	mod	mod	mod	tg	ht	wh/0902.bmp
275.04	0.72	373	3	8	24	per	lib	mod	mod	mod	nt	fa	nh/0273_nh.bmp
275.76	0.72	374	2	5	36	per	con	low	mod	low	tg	ms	wh/0940.bmp
276.48	0.72	375	3	5	79	per	lib	low	mod	low	nt	fa	nh/0404_nh.bmp
277.20	0.72	376	1	6	50	per	con	mod	mod	mod	tg	ht	wh/0594.bmp
277.92	0.72	377	2	6	52	per	con	mod	mod	mod	tg	ms	wh/0542.bmp
278.64	0.72	378	1	5	123	per	con	mod	low	mod	tg	ms	wh/0870.bmp
279.36	0.72	379	5	5	27	mem	lib	mod	mod	mod	nt	ms	nh/0588_nh.bmp
280.08	0.72	380	3	6	60	per	con	mod	mod	mod	tg	ht	wh/0680.bmp
280.80	0.72	381	3	5	36	per	con	low	mod	low	tg	ms	wh/0940.bmp
281.52	0.72	382	3	7	31	per	lib	low	mod	low	nt	fa	nh/0345_nh.bmp
282.24	0.72	383	1	7	64	mem	lib	low	low	low	tg	ht	wh/0789.bmp
282.96	0.72	384	3	5	37	per	con	low	mod	low	tg	ht	wh/0080.bmp
283.68	0.72	385	3	6	97	mem	lib	mod	mod	low	tg	ht	wh/0190.bmp
284.40	0.72	386	2	6	29	mem	con	mod	mod	mod	nt	ht	nh/0795_nh.bmp
285.12	0.72	387	2	5	90	per	lib	mod	mod	mod	tg	ms	wh/0855.bmp
285.84	0.72	388	5	8	22	per	lib	mod	mod	mod	tg	ht	wh/0182.bmp
286.56	0.72	389	4	5	42	per	con	low	mod	low	nt	cr	nh/0660_nh.bmp
287.28	0.72	390	4	8	113	mem	con	mod	mod	low	nt	ht	nh/0417_nh.bmp
288.00	0.72	391	3	7	25	per	lib	low	mod	low	nt	cr	nh/0510_nh.bmp
288.72	0.72	392	4	8	124	mem	con	mod	mod	low	tg	ht	wh/0150.bmp
289.44	0.72	393	3	5	63	mem	con	mod	mod	low	tg	ms	wh/0964.bmp
290.16	0.72	394	5	6	100	mem	lib	mod	mod	low	nt	ht	nh/0125_nh.bmp
290.88	0.72	395	3	5	59	mem	con	mod	mod	low	tg	ms	wh/0608.bmp
291.60	0.72	396	3	6	32	mem	con	mod	mod	mod	nt	ms	nh/0380_nh.bmp
292.32	0.72	397	3	5	56	mem	con	mod	mod	low	nt	ht	nh/0493_nh.bmp
293.04	0.72	398	4	5	47	per	con	low	mod	low	tg	ms	wh/0032.bmp
293.76	0.72	399	4	7	40	mem	lib	mod	mod	mod	nt	ht	nh/0784_nh.bmp
294.48	0.72	400	4	8	125	mem	con	mod	mod	low	nt	ht	nh/0613_nh.bmp
295.20	0.72	401	1	7	8	per	lib	mod	low	mod	tg	ht	wh/0581.bmp
295.92	0.72	402	1	6	39	per	lib	mod	low	mod	nt	fa	nh/0927_nh.bmp
296.64	0.72	403	2	6	103	mem	lib	mod	mod	low	nt	ht	nh/0465_nh.bmp
297.36	0.72	404	1	7	67	mem	con	low	low	low	nt	ms	nh/0488_nh.bmp
298.08	0.72	405	5	5	66	per	lib	low	mod	low	tg	ms	wh/0758.bmp
298.80	0.72	406	4	5	91	per	lib	mod	mod	mod	tg	ht	wh/0187.bmp
299.52	0.72	407	2	8	75	per	con	low	mod	low	tg	ms	wh/0077.bmp
300.24	0.72	408	3	5	19	mem	lib	mod	mod	mod	nt	ht	nh/0843_nh.bmp
300.96	0.72	409	3	5	95	per	lib	mod	mod	mod	nt	cr	nh/0222_nh.bmp
301.68	0.72	410	2	6	25	mem	con	mod	mod	mod	tg	ms	wh/0328.bmp
302.40	0.72	411	5	8	21	per	lib	mod	mod	mod	nt	cr	nh/0428_nh.bmp
303.12	0.72	412	2	5	44	per	con	low	mod	low	nt	cr	nh/0194_nh.bmp
303.84	0.72	413	5	7	107	mem	con	mod	mod	mod	nt	ms	nh/0962_nh.bmp
304.56	0.72	414	2	6	54	per	con	mod	mod	mod	tg	ht	wh/0543.bmp
305.28	0.72	415	1	5	53	mem	con	mod	mod	low	tg	ht	wh/0082.bmp
306.00	0.72	416	1	5	16	mem	lib	low	low	mod	tg	ht	wh/0933.bmp
306.72	0.72	417	5	6	58	per	con	mod	mod	mod	nt	cr	nh/0099_nh.bmp
307.44	0.72	418	4	7	23	per	lib	low	mod	low	nt	cr	nh/0338_nh.bmp
308.16	0.72	419	4	5	36	per	con	low	mod	low	tg	ms	wh/0940.bmp
308.88	0.72	420	3	5	18	mem	lib	mod	mod	mod	nt	ht	nh/0497_nh.bmp
309.60	0.72	421	1	7	5	per	lib	mod	low	mod	tg	ht	wh/0860.bmp
310.32	0.72	422	2	7	100	mem	con	mod	mod	mod	tg	ms	wh/0350.bmp
311.04	0.72	423	2	7	86	per	con	mod	mod	mod	tg	ms	wh/0540.bmp
311.76	0.72	424	3	5	73	per	lib	low	mod	low	nt	cr	nh/0730_nh.bmp
312.48	0.72	425	5	7	40	mem	lib	mod	mod	mod	nt	ht	nh/0784_nh.bmp
313.20	0.72	426	2	7	110	mem	con	mod	mod	mod	nt	ms	nh/0748_nh.bmp
313.92	0.72	427	2	8	118	mem	con	mod	mod	low	nt	ms	nh/0153_nh.bmp
314.64	0.72	428	5	8	124	mem	con	mod	mod	low	tg	ht	wh/0150.bmp
315.36	0.72	429	4	5	19	mem	lib	mod	mod	mod	nt	ht	nh/0843_nh.bmp
316.08	0.72	430	3	7	17	per	lib	low	mod	low	tg	ht	wh/0299.bmp
316.80	0.72	431	4	8	24	per	lib	mod	mod	mod	nt	fa	nh/0273_nh.bmp
317.52	0.72	432	4	6	55	per	con	mod	mod	mod	nt	cr	nh/0446_nh.bmp
318.24	0.72	433	2	7	106	mem	con	mod	mod	mod	tg	ms	wh/0558.bmp
318.96	0.72	434	3	6	54	per	con	mod	mod	mod	tg	ht	wh/0543.bmp
319.68	0.72	435	2	7	94	per	con	mod	mod	mod	tg	ht	wh/0807.bmp
320.40	0.72	436	4	6	17	mem	con	mod	mod	mod	tg	ms	wh/0591.bmp
321.12	0.72	437	4	6	60	per	con	mod	mod	mod	tg	ht	wh/0680.bmp
321.84	0.72	438	4	5	43	per	con	low	mod	low	nt	cr	nh/0963_nh.bmp
322.56	0.72	439	1	5	100	mem	con	low	low	mod	nt	ms	nh/0729_nh.bmp
323.28	0.72	440	3	8	118	mem	con	mod	mod	low	nt	ms	nh/0153_nh.bmp
324.00	0.72	441	1	6	124	per	lib	low	low	low	tg	ht	wh/0998.bmp
324.72	0.72	442	3	6	25	mem	con	mod	mod	mod	tg	ms	wh/0328.bmp
325.44	0.72	443	4	7	45	mem	lib	mod	mod	mod	tg	ht	wh/0397.bmp
326.16	0.72	444	4	5	56	mem	con	mod	mod	low	nt	ht	nh/0493_nh.bmp
326.88	0.72	445	2	6	24	mem	con	mod	mod	mod	nt	ms	nh/0684_nh.bmp
327.60	0.72	446	3	8	128	mem	con	mod	mod	low	tg	ht	wh/0451.bmp
328.32	0.72	447	4	8	17	per	lib	mod	mod	mod	nt	fa	nh/0209_nh.bmp
329.04	0.72	448	4	5	18	mem	lib	mod	mod	mod	nt	ht	nh/0497_nh.bmp
329.76	0.72	449	3	6	103	mem	lib	mod	mod	low	nt	ht	nh/0465_nh.bmp
330.48	0.72	450	4	6	32	mem	con	mod	mod	mod	nt	ms	nh/0380_nh.bmp
331.20	0.72	451	3	8	70	per	con	low	mod	low	nt	cr	nh/0760_nh.bmp
331.92	0.72	452	2	8	112	mem	lib	mod	mod	low	tg	ht	wh/0893.bmp
332.64	0.72	453	5	5	56	mem	con	mod	mod	low	nt	ht	nh/0493_nh.bmp
333.36	0.72	454	1	8	54	per	lib	low	low	low	nt	cr	nh/0768_nh.bmp
334.08	0.72	455	4	8	65	per	con	low	mod	low	tg	ht	wh/0036.bmp
334.80	0.72	456	3	7	21	per	lib	low	mod	low	tg	ms	wh/0284.bmp
335.52	0.72	457	2	5	24	mem	lib	mod	mod	mod	tg	ht	wh/0095.bmp
336.24	0.72	458	2	7	36	mem	lib	mod	mod	mod	nt	ht	nh/0563_nh.bmp
336.96	0.72	459	4	8	70	per	con	low	mod	low	nt	cr	nh/0760_nh.bmp
337.68	0.72	460	1	8	51	per	lib	low	low	low	tg	ms	wh/0458.bmp
338.40	0.72	461	3	7	94	per	con	mod	mod	mod	tg	ht	wh/0807.bmp
339.12	0.72	462	5	6	55	per	con	mod	mod	mod	nt	cr	nh/0446_nh.bmp
339.84	0.72	463	2	6	98	mem	lib	mod	mod	low	tg	ht	wh/0967.bmp
340.56	0.72	464	3	7	110	mem	con	mod	mod	mod	nt	ms	nh/0748_nh.bmp
341.28	0.72	465	4	7	28	per	lib	low	mod	low	tg	ht	wh/0329.bmp
342.00	0.72	466	3	6	52	per	con	mod	mod	mod	tg	ms	wh/0542.bmp
342.72	0.72	467	6	5	66	per	lib	low	mod	low	tg	ms	wh/0758.bmp
343.44	0.72	468	3	5	30	mem	lib	mod	mod	mod	tg	ht	wh/0697.bmp
344.16	0.72	469	3	8	99	mem	lib	mod	mod	low	nt	ht	nh/0503_nh.bmp
344.88	0.72	470	3	7	35	mem	lib	mod	mod	mod	tg	ht	wh/0973.bmp
345.60	0.72	471	3	7	100	mem	con	mod	mod	mod	tg	ms	wh/0350.bmp
346.32	0.72	472	4	8	28	per	lib	mod	mod	mod	tg	ht	wh/0650.bmp
347.04	0.72	473	4	6	105	mem	lib	mod	mod	low	tg	ht	wh/0074.bmp
347.76	0.72	474	4	7	88	per	con	mod	mod	mod	tg	ht	wh/0716.bmp
348.48	0.72	475	2	7	32	per	lib	low	mod	low	tg	ht	wh/0382.bmp
349.20	0.72	476	5	5	21	mem	lib	mod	mod	mod	tg	ht	wh/0954.bmp
349.92	0.72	477	4	8	128	mem	con	mod	mod	low	tg	ht	wh/0451.bmp
350.64	0.72	478	2	5	92	per	lib	mod	mod	mod	tg	ht	wh/0319.bmp
351.36	0.72	479	2	5	71	per	lib	low	mod	low	tg	ht	wh/0351.bmp
352.08	0.72	480	3	6	108	mem	lib	mod	mod	low	nt	ht	nh/0238_nh.bmp
352.80	0.72	481	3	5	92	per	lib	mod	mod	mod	tg	ht	wh/0319.bmp
353.52	0.72	482	5	7	45	mem	lib	mod	mod	mod	tg	ht	wh/0397.bmp
354.24	0.72	483	4	8	127	mem	con	mod	mod	low	tg	ht	wh/0336.bmp
354.96	0.72	484	4	5	37	per	con	low	mod	low	tg	ht	wh/0080.bmp
355.68	0.72	485	3	8	103	mem	lib	mod	mod	low	tg	ht	wh/0489.bmp
356.40	0.72	486	2	7	97	mem	con	mod	mod	mod	tg	ms	wh/0593.bmp
357.12	0.72	487	4	5	92	per	lib	mod	mod	mod	tg	ht	wh/0319.bmp
357.84	0.72	488	4	5	72	per	lib	low	mod	low	tg	ms	wh/0256.bmp
358.56	0.72	489	4	5	28	mem	lib	mod	mod	mod	nt	ht	nh/0396_nh.bmp
359.28	0.72	490	4	7	31	per	lib	low	mod	low	nt	fa	nh/0345_nh.bmp
360.00	0.72	491	3	7	36	mem	lib	mod	mod	mod	nt	ht	nh/0563_nh.bmp
360.72	0.72	492	4	7	100	mem	con	mod	mod	mod	tg	ms	wh/0350.bmp
361.44	0.72	493	4	6	108	mem	lib	mod	mod	low	nt	ht	nh/0238_nh.bmp
362.16	0.72	494	4	6	52	per	con	mod	mod	mod	tg	ms	wh/0542.bmp
362.88	0.72	495	4	5	30	mem	lib	mod	mod	mod	tg	ht	wh/0697.bmp
363.60	0.72	496	3	8	76	per	con	low	mod	low	nt	cr	nh/0361_nh.bmp
364.32	0.72	497	3	5	90	per	lib	mod	mod	mod	tg	ms	wh/0855.bmp
365.04	0.72	498	1	7	57	mem	lib	low	low	low	tg	ht	wh/0185.bmp
365.76	0.72	499	2	7	101	mem	con	mod	mod	mod	nt	ms	nh/0946_nh.bmp
366.48	0.72	500	4	8	72	per	con	low	mod	low	tg	ms	wh/0818.bmp
367.20	0.72	501	3	6	107	mem	lib	mod	mod	low	tg	ht	wh/0075.bmp
367.92	0.72	502	1	5	10	mem	lib	low	low	mod	tg	ht	wh/0281.bmp
368.64	0.72	503	1	6	84	mem	con	low	low	low	tg	ms	wh/0655.bmp
369.36	0.72	504	1	6	94	mem	con	low	low	low	nt	ms	nh/0691_nh.bmp
370.08	0.72	505	1	7	122	per	con	low	low	low	nt	cr	nh/1009_nh.bmp
370.80	0.72	506	4	7	48	mem	lib	mod	mod	mod	tg	ht	wh/0947.bmp
371.52	0.72	507	4	8	103	mem	lib	mod	mod	low	tg	ht	wh/0489.bmp
372.24	0.72	508	5	8	24	per	lib	mod	mod	mod	nt	fa	nh/0273_nh.bmp
372.96	0.72	509	5	6	52	per	con	mod	mod	mod	tg	ms	wh/0542.bmp
373.68	0.72	510	3	6	26	mem	con	mod	mod	mod	tg	ht	wh/0398.bmp
374.40	0.72	511	5	5	37	per	con	low	mod	low	tg	ht	wh/0080.bmp
375.12	0.72	512	1	7	126	per	con	low	low	low	nt	cr	nh/0831_nh.bmp
375.84	0.72	513	3	7	46	mem	lib	mod	mod	mod	tg	ht	wh/0462.bmp
376.56	0.72	514	2	7	42	mem	lib	mod	mod	mod	nt	ht	nh/0548_nh.bmp
377.28	0.72	515	4	8	99	mem	lib	mod	mod	low	nt	ht	nh/0503_nh.bmp
378.00	0.72	516	1	7	3	per	lib	mod	low	mod	tg	ht	wh/0530.bmp
378.72	0.72	517	5	5	18	mem	lib	mod	mod	mod	nt	ht	nh/0497_nh.bmp
379.44	0.72	518	5	5	72	per	lib	low	mod	low	tg	ms	wh/0256.bmp
380.16	0.72	519	5	6	59	per	con	mod	mod	mod	nt	cr	nh/0714_nh.bmp
380.88	0.72	520	4	6	26	mem	con	mod	mod	mod	tg	ht	wh/0398.bmp
381.60	0.72	521	1	8	3	mem	con	low	low	mod	nt	ms	nh/0048_nh.bmp
382.32	0.72	522	5	6	108	mem	lib	mod	mod	low	nt	ht	nh/0238_nh.bmp
383.04	0.72	523	4	5	86	per	lib	mod	mod	mod	nt	fa	nh/0941_nh.bmp
383.76	0.72	524	1	7	50	mem	lib	low	low	low	tg	ms	wh/0815.bmp
384.48	0.72	525	3	7	44	mem	lib	mod	mod	mod	nt	ht	nh/0447_nh.bmp
385.20	0.72	526	3	7	90	per	con	mod	mod	mod	nt	cr	nh/0928_nh.bmp
385.92	0.72	527	1	8	45	per	con	mod	low	mod	tg	ht	wh/0736.bmp
386.64	0.72	528	4	6	25	mem	con	mod	mod	mod	tg	ms	wh/0328.bmp
387.36	0.72	529	5	8	30	per	lib	mod	mod	mod	tg	ms	wh/0810.bmp
388.08	0.72	530	4	7	110	mem	con	mod	mod	mod	nt	ms	nh/0748_nh.bmp
388.80	0.72	531	2	5	58	mem	con	mod	mod	low	nt	ht	nh/0934_nh.bmp
389.52	0.72	532	3	6	24	mem	con	mod	mod	mod	nt	ms	nh/0684_nh.bmp
390.24	0.72	533	3	5	58	mem	con	mod	mod	low	nt	ht	nh/0934_nh.bmp
390.96	0.72	534	6	8	71	per	con	low	mod	low	nt	fa	nh/0443_nh.bmp
391.68	0.72	535	3	7	106	mem	con	mod	mod	mod	tg	ms	wh/0558.bmp
392.40	0.72	536	4	6	103	mem	lib	mod	mod	low	nt	ht	nh/0465_nh.bmp
393.12	0.72	537	3	7	97	mem	con	mod	mod	mod	tg	ms	wh/0593.bmp
393.84	0.72	538	3	7	32	per	lib	low	mod	low	tg	ht	wh/0382.bmp
394.56	0.72	539	1	8	89	mem	lib	low	low	mod	nt	ht	nh/0708_nh.bmp
395.28	0.72	540	4	7	44	mem	lib	mod	mod	mod	nt	ht	nh/0447_nh.bmp
396.00	0.72	541	4	5	95	per	lib	mod	mod	mod	nt	cr	nh/0222_nh.bmp
396.72	0.72	542	5	8	125	mem	con	mod	mod	low	nt	ht	nh/0613_nh.bmp
397.44	0.72	543	1	7	127	per	con	low	low	low	tg	ms	wh/0711.bmp
398.16	0.72	544	5	6	21	mem	con	mod	mod	mod	tg	ht	wh/0902.bmp
398.88	0.72	545	5	8	127	mem	con	mod	mod	low	tg	ht	wh/0336.bmp
399.60	0.72	546	5	8	99	mem	lib	mod	mod	low	nt	ht	nh/0503_nh.bmp
400.32	0.72	547	4	7	17	per	lib	low	mod	low	tg	ht	wh/0299.bmp
401.04	0.72	548	1	5	102	mem	con	low	low	mod	nt	ms	nh/0693_nh.bmp
401.76	0.72	549	5	8	28	per	lib	mod	mod	mod	tg	ht	wh/0650.bmp
402.48	0.72	550	1	5	8	mem	lib	low	low	mod	tg	ht	wh/0900.bmp
403.20	0.72	551	4	7	32	per	lib	low	mod	low	tg	ht	wh/0382.bmp
403.92	0.72	552	5	8	70	per	con	low	mod	low	nt	cr	nh/0760_nh.bmp
404.64	0.72	553	5	5	69	per	lib	low	mod	low	tg	ht	wh/0364.bmp
405.36	0.72	554	1	7	13	per	lib	mod	low	mod	nt	fa	nh/0966_nh.bmp
406.08	0.72	555	2	5	53	mem	con	mod	mod	low	tg	ht	wh/0082.bmp
406.80	0.72	556	5	8	128	mem	con	mod	mod	low	tg	ht	wh/0451.bmp
407.52	0.72	557	2	5	49	mem	con	mod	mod	low	tg	ht	wh/0635.bmp
408.24	0.72	558	5	5	92	per	lib	mod	mod	mod	tg	ht	wh/0319.bmp
408.96	0.72	559	3	7	101	mem	con	mod	mod	mod	nt	ms	nh/0946_nh.bmp
409.68	0.72	560	6	5	56	mem	con	mod	mod	low	nt	ht	nh/0493_nh.bmp
410.40	0.72	561	1	5	84	per	lib	mod	mod	mod	nt	fa	nh/0874_nh.bmp
411.12	0.72	562	6	6	59	per	con	mod	mod	mod	nt	cr	nh/0714_nh.bmp
411.84	0.72	563	1	6	117	per	lib	low	low	low	tg	ht	wh/0823.bmp
412.56	0.72	564	6	6	58	per	con	mod	mod	mod	nt	cr	nh/0099_nh.bmp
413.28	0.72	565	4	5	65	per	lib	low	mod	low	nt	fa	nh/0355_nh.bmp
414.00	0.72	566	3	8	112	mem	lib	mod	mod	low	tg	ht	wh/0893.bmp
414.72	0.72	567	5	5	43	per	con	low	mod	low	nt	cr	nh/0963_nh.bmp
415.44	0.72	568	5	8	27	per	lib	mod	mod	mod	nt	cr	nh/0805_nh.bmp
416.16	0.72	569	4	7	21	per	lib	low	mod	low	tg	ms	wh/0284.bmp
416.88	0.72	570	3	7	86	per	con	mod	mod	mod	tg	ms	wh/0540.bmp
417.60	0.72	571	1	5	97	mem	con	low	low	mod	tg	ms	wh/0426.bmp
418.32	0.72	572	4	6	97	mem	lib	mod	mod	low	tg	ht	wh/0190.bmp
419.04	0.72	573	3	8	75	per	con	low	mod	low	tg	ms	wh/0077.bmp
419.76	0.72	574	3	5	44	per	con	low	mod	low	nt	cr	nh/0194_nh.bmp
420.48	0.72	575	5	7	100	mem	con	mod	mod	mod	tg	ms	wh/0350.bmp
421.20	0.72	576	1	6	37	per	lib	mod	low	mod	tg	ht	wh/0525.bmp
421.92	0.72	577	4	8	110	mem	lib	mod	mod	low	nt	ht	nh/0508_nh.bmp
422.64	0.72	578	4	6	111	mem	lib	mod	mod	low	nt	ht	nh/0383_nh.bmp
423.36	0.72	579	6	8	128	mem	con	mod	mod	low	tg	ht	wh/0451.bmp
424.08	0.72	580	1	7	54	mem	lib	low	low	low	nt	ht	nh/0701_nh.bmp
424.80	0.72	581	5	7	32	per	lib	low	mod	low	tg	ht	wh/0382.bmp
425.52	0.72	582	6	8	24	per	lib	mod	mod	mod	nt	fa	nh/0273_nh.bmp
426.24	0.72	583	5	6	105	mem	lib	mod	mod	low	tg	ht	wh/0074.bmp
426.96	0.72	584	5	5	30	mem	lib	mod	mod	mod	tg	ht	wh/0697.bmp
427.68	0.72	585	1	8	58	per	lib	low	low	low	nt	fa	nh/0261_nh.bmp
428.40	0.72	586	4	7	84	per	con	mod	mod	mod	tg	ms	wh/0772.bmp
429.12	0.72	587	4	5	94	per	lib	mod	mod	mod	tg	ht	wh/0094.bmp
429.84	0.72	588	5	7	21	per	lib	low	mod	low	tg	ms	wh/0284.bmp
430.56	0.72	589	4	5	90	per	lib	mod	mod	mod	tg	ms	wh/0855.bmp
431.28	0.72	590	4	7	35	mem	lib	mod	mod	mod	tg	ht	wh/0973.bmp
432.00	0.72	591	1	5	6	mem	lib	low	low	mod	nt	ht	nh/0038_nh.bmp
432.72	0.72	592	6	8	27	per	lib	mod	mod	mod	nt	cr	nh/0805_nh.bmp
433.44	0.72	593	4	7	90	per	con	mod	mod	mod	nt	cr	nh/0928_nh.bmp
434.16	0.72	594	3	8	26	per	lib	mod	mod	mod	tg	ht	wh/0904.bmp
434.88	0.72	595	3	7	42	mem	lib	mod	mod	mod	nt	ht	nh/0548_nh.bmp
435.60	0.72	596	2	8	126	mem	con	mod	mod	low	tg	ms	wh/0079.bmp
436.32	0.72	597	6	7	32	per	lib	low	mod	low	tg	ht	wh/0382.bmp
437.04	0.72	598	3	5	23	mem	lib	mod	mod	mod	tg	ht	wh/0876.bmp
437.76	0.72	599	1	6	72	per	con	low	low	low	nt	cr	nh/0225_nh.bmp
438.48	0.72	600	1	5	101	mem	con	low	low	mod	nt	ms	nh/0306_nh.bmp
439.20	0.72	601	5	5	91	per	lib	mod	mod	mod	tg	ht	wh/0187.bmp
439.92	0.72	602	5	6	103	mem	lib	mod	mod	low	nt	ht	nh/0465_nh.bmp
440.64	0.72	603	6	6	55	per	con	mod	mod	mod	nt	cr	nh/0446_nh.bmp
441.36	0.72	604	5	8	72	per	con	low	mod	low	tg	ms	wh/0818.bmp
442.08	0.72	605	5	6	25	mem	con	mod	mod	mod	tg	ms	wh/0328.bmp
442.80	0.72	606	6	5	27	mem	lib	mod	mod	mod	nt	ms	nh/0588_nh.bmp
443.52	0.72	607	3	7	83	per	con	mod	mod	mod	nt	cr	nh/0909_nh.bmp
444.24	0.72	608	4	8	118	mem	con	mod	mod	low	nt	ms	nh/0153_nh.bmp
444.96	0.72	609	4	6	107	mem	lib	mod	mod	low	tg	ht	wh/0075.bmp
445.68	0.72	610	4	5	59	mem	con	mod	mod	low	tg	ms	wh/0608.bmp
446.40	0.72	611	6	8	109	mem	lib	mod	mod	low	tg	ht	wh/0619.bmp
447.12	0.72	612	5	5	95	per	lib	mod	mod	mod	nt	cr	nh/0222_nh.bmp
447.84	0.72	613	5	6	107	mem	lib	mod	mod	low	tg	ht	wh/0075.bmp
448.56	0.72	614	4	5	38	per	con	low	mod	low	nt	cr	nh/0035_nh.bmp
449.28	0.72	615	6	5	18	mem	lib	mod	mod	mod	nt	ht	nh/0497_nh.bmp
450.00	0.72	616	5	5	90	per	lib	mod	mod	mod	tg	ms	wh/0855.bmp
450.72	0.72	617	6	7	100	mem	con	mod	mod	mod	tg	ms	wh/0350.bmp
451.44	0.72	618	4	5	79	per	lib	low	mod	low	nt	fa	nh/0404_nh.bmp
452.16	0.72	619	5	7	44	mem	lib	mod	mod	mod	nt	ht	nh/0447_nh.bmp
452.88	0.72	620	6	8	125	mem	con	mod	mod	low	nt	ht	nh/0613_nh.bmp
453.60	0.72	621	2	6	57	per	con	mod	mod	mod	nt	cr	nh/0196_nh.bmp
454.32	0.72	622	6	6	108	mem	lib	mod	mod	low	nt	ht	nh/0238_nh.bmp
455.04	0.72	623	3	5	49	mem	con	mod	mod	low	tg	ht	wh/0635.bmp
455.76	0.72	624	2	5	84	per	lib	mod	mod	mod	nt	fa	nh/0874_nh.bmp
456.48	0.72	625	5	7	17	per	lib	low	mod	low	tg	ht	wh/0299.bmp
457.20	0.72	626	1	7	10	per	lib	mod	low	mod	nt	fa	nh/0787_nh.bmp
457.92	0.72	627	4	7	94	per	con	mod	mod	mod	tg	ht	wh/0807.bmp
458.64	0.72	628	5	5	94	per	lib	mod	mod	mod	tg	ht	wh/0094.bmp
459.36	0.72	629	4	7	46	mem	lib	mod	mod	mod	tg	ht	wh/0462.bmp
460.08	0.72	630	4	5	40	per	con	low	mod	low	tg	ms	wh/0646.bmp
460.80	0.72	631	3	6	98	mem	lib	mod	mod	low	tg	ht	wh/0967.bmp
461.52	0.72	632	5	6	32	mem	con	mod	mod	mod	nt	ms	nh/0380_nh.bmp
462.24	0.72	633	5	7	88	per	con	mod	mod	mod	tg	ht	wh/0716.bmp
462.96	0.72	634	3	5	53	mem	con	mod	mod	low	tg	ht	wh/0082.bmp
463.68	0.72	635	5	8	17	per	lib	mod	mod	mod	nt	fa	nh/0209_nh.bmp
464.40	0.72	636	4	5	58	mem	con	mod	mod	low	nt	ht	nh/0934_nh.bmp
465.12	0.72	637	5	5	60	mem	con	mod	mod	low	nt	ms	nh/1023_nh.bmp
465.84	0.72	638	5	7	90	per	con	mod	mod	mod	nt	cr	nh/0928_nh.bmp
466.56	0.72	639	6	7	40	mem	lib	mod	mod	mod	nt	ht	nh/0784_nh.bmp
467.28	0.72	640	3	6	29	mem	con	mod	mod	mod	nt	ht	nh/0795_nh.bmp
468.00	0.72	641	3	5	24	mem	lib	mod	mod	mod	tg	ht	wh/0095.bmp
468.72	0.72	642	6	5	37	per	con	low	mod	low	tg	ht	wh/0080.bmp
469.44	0.72	643	4	8	76	per	con	low	mod	low	nt	cr	nh/0361_nh.bmp
470.16	0.72	644	5	7	110	mem	con	mod	mod	mod	nt	ms	nh/0748_nh.bmp
470.88	0.72	645	6	5	95	per	lib	mod	mod	mod	nt	cr	nh/0222_nh.bmp
471.60	0.72	646	4	6	29	mem	con	mod	mod	mod	nt	ht	nh/0795_nh.bmp
472.32	0.72	647	4	5	23	mem	lib	mod	mod	mod	tg	ht	wh/0876.bmp
473.04	0.72	648	3	8	126	mem	con	mod	mod	low	tg	ms	wh/0079.bmp
473.76	0.72	649	1	6	36	per	lib	mod	low	mod	nt	fa	nh/0278_nh.bmp
474.48	0.72	650	4	7	101	mem	con	mod	mod	mod	nt	ms	nh/0946_nh.bmp
475.20	0.72	651	5	7	28	per	lib	low	mod	low	tg	ht	wh/0329.bmp
475.92	0.72	652	4	6	98	mem	lib	mod	mod	low	tg	ht	wh/0967.bmp
476.64	0.72	653	6	7	17	per	lib	low	mod	low	tg	ht	wh/0299.bmp
477.36	0.72	654	3	6	27	mem	con	mod	mod	mod	nt	ms	nh/0442_nh.bmp
478.08	0.72	655	5	6	29	mem	con	mod	mod	mod	nt	ht	nh/0795_nh.bmp
478.80	0.72	656	5	8	65	per	con	low	mod	low	tg	ht	wh/0036.bmp
479.52	0.72	657	4	5	44	per	con	low	mod	low	nt	cr	nh/0194_nh.bmp
480.24	0.72	658	5	7	30	per	lib	low	mod	low	nt	fa	nh/0134_nh.bmp
480.96	0.72	659	5	5	86	per	lib	mod	mod	mod	nt	fa	nh/0941_nh.bmp
481.68	0.72	660	5	8	103	mem	lib	mod	mod	low	tg	ht	wh/0489.bmp
482.40	0.72	661	1	5	99	mem	con	low	low	mod	tg	ms	wh/0569.bmp
483.12	0.72	662	5	7	35	mem	lib	mod	mod	mod	tg	ht	wh/0973.bmp
483.84	0.72	663	5	8	110	mem	lib	mod	mod	low	nt	ht	nh/0508_nh.bmp
484.56	0.72	664	6	5	91	per	lib	mod	mod	mod	tg	ht	wh/0187.bmp
485.28	0.72	665	4	7	25	per	lib	low	mod	low	nt	cr	nh/0510_nh.bmp
486.00	0.72	666	5	5	58	mem	con	mod	mod	low	nt	ht	nh/0934_nh.bmp
486.72	0.72	667	5	7	101	mem	con	mod	mod	mod	nt	ms	nh/0946_nh.bmp
487.44	0.72	668	4	7	36	mem	lib	mod	mod	mod	nt	ht	nh/0563_nh.bmp
488.16	0.72	669	6	8	127	mem	con	mod	mod	low	tg	ht	wh/0336.bmp
488.88	0.72	670	4	5	63	mem	con	mod	mod	low	tg	ms	wh/0964.bmp
489.60	0.72	671	6	7	110	mem	con	mod	mod	mod	nt	ms	nh/0748_nh.bmp
490.32	0.72	672	6	8	28	per	lib	mod	mod	mod	tg	ht	wh/0650.bmp
491.04	0.72	673	1	6	96	mem	con	low	low	low	tg	ms	wh/0266.bmp
491.76	0.72	674	5	5	47	per	con	low	mod	low	tg	ms	wh/0032.bmp
492.48	0.72	675	4	7	42	mem	lib	mod	mod	mod	nt	ht	nh/0548_nh.bmp
493.20	0.72	676	4	5	49	mem	con	mod	mod	low	tg	ht	wh/0635.bmp
493.92	0.72	677	1	8	63	per	lib	low	low	low	tg	ht	wh/0513.bmp
494.64	0.72	678	1	6	127	per	lib	low	low	low	tg	ht	wh/0633.bmp
495.36	0.72	679	4	8	75	per	con	low	mod	low	tg	ms	wh/0077.bmp
496.08	0.72	680	2	6	50	per	con	mod	mod	mod	tg	ht	wh/0594.bmp
496.80	0.72	681	6	5	30	mem	lib	mod	mod	mod	tg	ht	wh/0697.bmp
497.52	0.72	682	4	8	112	mem	lib	mod	mod	low	tg	ht	wh/0893.bmp
498.24	0.72	683	2	7	105	mem	con	mod	mod	mod	nt	ms	nh/0957_nh.bmp
498.96	0.72	684	4	5	77	per	lib	low	mod	low	nt	cr	nh/0744_nh.bmp
499.68	0.72	685	5	8	112	mem	lib	mod	mod	low	tg	ht	wh/0893.bmp
500.40	0.72	686	6	5	21	mem	lib	mod	mod	mod	tg	ht	wh/0954.bmp
501.12	0.72	687	5	5	79	per	lib	low	mod	low	nt	fa	nh/0404_nh.bmp
501.84	0.72	688	4	6	24	mem	con	mod	mod	mod	nt	ms	nh/0684_nh.bmp
502.56	0.72	689	6	8	97	mem	lib	mod	mod	low	nt	ht	nh/0577_nh.bmp
503.28	0.72	690	6	5	86	per	lib	mod	mod	mod	nt	fa	nh/0941_nh.bmp
504.00	0.72	691	5	5	63	mem	con	mod	mod	low	tg	ms	wh/0964.bmp
504.72	0.72	692	4	7	97	mem	con	mod	mod	mod	tg	ms	wh/0593.bmp
505.44	0.72	693	4	7	81	per	con	mod	mod	mod	nt	cr	nh/0803_nh.bmp
506.16	0.72	694	1	6	5	mem	lib	low	low	low	tg	ht	wh/0571.bmp
506.88	0.72	695	3	6	57	per	con	mod	mod	mod	nt	cr	nh/0196_nh.bmp
507.60	0.72	696	6	6	105	mem	lib	mod	mod	low	tg	ht	wh/0074.bmp
508.32	0.72	697	6	6	107	mem	lib	mod	mod	low	tg	ht	wh/0075.bmp
509.04	0.72	698	4	7	106	mem	con	mod	mod	mod	tg	ms	wh/0558.bmp
509.76	0.72	699	5	5	44	per	con	low	mod	low	nt	cr	nh/0194_nh.bmp
510.48	0.72	700	5	8	76	per	con	low	mod	low	nt	cr	nh/0361_nh.bmp
511.20	0.72	701	5	5	81	per	lib	mod	mod	mod	nt	fa	nh/0199_nh.bmp
511.92	0.72	702	6	7	90	per	con	mod	mod	mod	nt	cr	nh/0928_nh.bmp
512.64	0.72	703	6	8	105	mem	lib	mod	mod	low	nt	ht	nh/0568_nh.bmp
513.36	0.72	704	3	6	50	per	con	mod	mod	mod	tg	ht	wh/0594.bmp
514.08	0.72	705	5	6	26	mem	con	mod	mod	mod	tg	ht	wh/0398.bmp
514.80	0.72	706	1	6	88	mem	con	low	low	low	nt	ht	nh/0536_nh.bmp
515.52	0.72	707	3	7	105	mem	con	mod	mod	mod	nt	ms	nh/0957_nh.bmp
516.24	0.72	708	1	5	117	per	con	mod	low	mod	nt	fa	nh/0267_nh.bmp
516.96	0.72	709	4	7	83	per	con	mod	mod	mod	nt	cr	nh/0909_nh.bmp
517.68	0.72	710	5	6	17	mem	con	mod	mod	mod	tg	ms	wh/0591.bmp
518.40	0.72	711	5	6	98	mem	lib	mod	mod	low	tg	ht	wh/0967.bmp
519.12	0.72	712	4	6	54	per	con	mod	mod	mod	tg	ht	wh/0543.bmp
519.84	0.72	713	6	7	44	mem	lib	mod	mod	mod	nt	ht	nh/0447_nh.bmp
520.56	0.72	714	6	7	45	mem	lib	mod	mod	mod	tg	ht	wh/0397.bmp
521.28	0.72	715	6	6	103	mem	lib	mod	mod	low	nt	ht	nh/0465_nh.bmp
522.00	0.72	716	5	7	42	mem	lib	mod	mod	mod	nt	ht	nh/0548_nh.bmp
522.72	0.72	717	5	8	75	per	con	low	mod	low	tg	ms	wh/0077.bmp
523.44	0.72	718	5	5	42	per	con	low	mod	low	nt	cr	nh/0660_nh.bmp
524.16	0.72	719	1	6	91	mem	con	low	low	low	nt	ms	nh/0237_nh.bmp
524.88	0.72	720	4	6	27	mem	con	mod	mod	mod	nt	ms	nh/0442_nh.bmp
525.60	0.72	721	5	5	59	mem	con	mod	mod	low	tg	ms	wh/0608.bmp
526.32	0.72	722	6	7	107	mem	con	mod	mod	mod	nt	ms	nh/0962_nh.bmp
527.04	0.72	723	1	8	43	per	con	mod	low	mod	tg	ht	wh/1018.bmp
527.76	0.72	724	5	5	38	per	con	low	mod	low	nt	cr	nh/0035_nh.bmp
528.48	0.72	725	1	8	83	mem	lib	low	low	mod	nt	ht	nh/0316_nh.bmp
529.20	0.72	726	5	5	40	per	con	low	mod	low	tg	ms	wh/0646.bmp
529.92	0.72	727	1	7	120	per	con	low	low	low	nt	cr	nh/0292_nh.bmp
530.64	0.72	728	4	8	115	mem	con	mod	mod	low	nt	ms	nh/0802_nh.bmp
531.36	0.72	729	6	5	38	per	con	low	mod	low	nt	cr	nh/0035_nh.bmp
532.08	0.72	730	6	5	94	per	lib	mod	mod	mod	tg	ht	wh/0094.bmp
532.80	0.72	731	5	5	65	per	lib	low	mod	low	nt	fa	nh/0355_nh.bmp
533.52	0.72	732	4	7	93	per	con	mod	mod	mod	nt	cr	nh/0371_nh.bmp
534.24	0.72	733	5	7	48	mem	lib	mod	mod	mod	tg	ht	wh/0947.bmp
534.96	0.72	734	5	7	46	mem	lib	mod	mod	mod	tg	ht	wh/0462.bmp
535.68	0.72	735	6	5	60	mem	con	mod	mod	low	nt	ms	nh/1023_nh.bmp
536.40	0.72	736	5	6	111	mem	lib	mod	mod	low	nt	ht	nh/0383_nh.bmp
537.12	0.72	737	1	7	56	mem	lib	low	low	low	nt	ht	nh/0864_nh.bmp
537.84	0.72	738	6	8	65	per	con	low	mod	low	tg	ht	wh/0036.bmp
538.56	0.72	739	6	5	44	per	con	low	mod	low	nt	cr	nh/0194_nh.bmp
539.28	0.72	740	4	6	50	per	con	mod	mod	mod	tg	ht	wh/0594.bmp
540.00	0.72	741	6	7	30	per	lib	low	mod	low	nt	fa	nh/0134_nh.bmp
540.72	0.72	742	5	7	81	per	con	mod	mod	mod	nt	cr	nh/0803_nh.bmp
541.44	0.72	743	1	8	1	mem	con	low	low	mod	tg	ms	wh/0923.bmp
542.16	0.72	744	5	7	94	per	con	mod	mod	mod	tg	ht	wh/0807.bmp
542.88	0.72	745	1	6	11	mem	lib	low	low	low	tg	ht	wh/0695.bmp
543.60	0.72	746	6	7	101	mem	con	mod	mod	mod	nt	ms	nh/0946_nh.bmp
544.32	0.72	747	5	5	49	mem	con	mod	mod	low	tg	ht	wh/0635.bmp
545.04	0.72	748	3	5	84	per	lib	mod	mod	mod	nt	fa	nh/0874_nh.bmp
545.76	0.72	749	1	5	13	mem	lib	low	low	mod	nt	ht	nh/0846_nh.bmp
546.48	0.72	750	5	5	77	per	lib	low	mod	low	nt	cr	nh/0744_nh.bmp
547.20	0.72	751	1	8	40	per	con	mod	low	mod	nt	cr	nh/0849_nh.bmp
547.92	0.72	752	5	7	31	per	lib	low	mod	low	nt	fa	nh/0345_nh.bmp
548.64	0.72	753	3	5	71	per	lib	low	mod	low	tg	ht	wh/0351.bmp
549.36	0.72	754	4	8	126	mem	con	mod	mod	low	tg	ms	wh/0079.bmp
550.08	0.72	755	6	7	35	mem	lib	mod	mod	mod	tg	ht	wh/0973.bmp
550.80	0.72	756	6	8	22	per	lib	mod	mod	mod	tg	ht	wh/0182.bmp
551.52	0.72	757	4	5	71	per	lib	low	mod	low	tg	ht	wh/0351.bmp
552.24	0.72	758	5	7	84	per	con	mod	mod	mod	tg	ms	wh/0772.bmp
552.96	0.72	759	4	7	105	mem	con	mod	mod	mod	nt	ms	nh/0957_nh.bmp
553.68	0.72	760	6	7	81	per	con	mod	mod	mod	nt	cr	nh/0803_nh.bmp
554.40	0.72	761	5	7	105	mem	con	mod	mod	mod	nt	ms	nh/0957_nh.bmp
555.12	0.72	762	5	6	24	mem	con	mod	mod	mod	nt	ms	nh/0684_nh.bmp
555.84	0.72	763	6	6	32	mem	con	mod	mod	mod	nt	ms	nh/0380_nh.bmp
556.56	0.72	764	5	6	60	per	con	mod	mod	mod	tg	ht	wh/0680.bmp
557.28	0.72	765	1	6	46	per	lib	mod	low	mod	tg	ht	wh/0890.bmp
558.00	0.72	766	6	8	112	mem	lib	mod	mod	low	tg	ht	wh/0893.bmp
558.72	0.72	767	6	5	42	per	con	low	mod	low	nt	cr	nh/0660_nh.bmp
559.44	0.72	768	5	6	27	mem	con	mod	mod	mod	nt	ms	nh/0442_nh.bmp
560.16	0.72	769	6	8	80	per	con	low	mod	low	tg	ms	wh/0232.bmp
560.88	0.72	770	6	7	48	mem	lib	mod	mod	mod	tg	ht	wh/0947.bmp
561.60	0.72	771	5	7	25	per	lib	low	mod	low	nt	cr	nh/0510_nh.bmp
562.32	0.72	772	6	5	92	per	lib	mod	mod	mod	tg	ht	wh/0319.bmp
563.04	0.72	773	6	7	105	mem	con	mod	mod	mod	nt	ms	nh/0957_nh.bmp
563.76	0.72	774	4	8	106	mem	lib	mod	mod	low	tg	ht	wh/0029.bmp
564.48	0.72	775	6	6	100	mem	lib	mod	mod	low	nt	ht	nh/0125_nh.bmp
565.20	0.72	776	5	7	93	per	con	mod	mod	mod	nt	cr	nh/0371_nh.bmp
565.92	0.72	777	6	7	42	mem	lib	mod	mod	mod	nt	ht	nh/0548_nh.bmp
566.64	0.72	778	5	5	71	per	lib	low	mod	low	tg	ht	wh/0351.bmp
567.36	0.72	779	1	6	122	per	lib	low	low	low	nt	fa	nh/0384_nh.bmp
568.08	0.72	780	1	7	70	mem	con	low	low	low	nt	ms	nh/0528_nh.bmp
568.80	0.72	781	5	8	118	mem	con	mod	mod	low	nt	ms	nh/0153_nh.bmp
569.52	0.72	782	4	5	53	mem	con	mod	mod	low	tg	ht	wh/0082.bmp
570.24	0.72	783	6	8	17	per	lib	mod	mod	mod	nt	fa	nh/0209_nh.bmp
570.96	0.72	784	6	7	25	per	lib	low	mod	low	nt	cr	nh/0510_nh.bmp
571.68	0.72	785	1	6	6	mem	lib	low	low	low	nt	ht	nh/0146_nh.bmp
572.40	0.72	786	5	7	36	mem	lib	mod	mod	mod	nt	ht	nh/0563_nh.bmp
573.12	0.72	787	6	7	31	per	lib	low	mod	low	nt	fa	nh/0345_nh.bmp
573.84	0.72	788	5	7	23	per	lib	low	mod	low	nt	cr	nh/0338_nh.bmp
574.56	0.72	789	5	5	36	per	con	low	mod	low	tg	ms	wh/0940.bmp
575.28	0.72	790	6	8	76	per	con	low	mod	low	nt	cr	nh/0361_nh.bmp
576.00	0.72	791	6	8	110	mem	lib	mod	mod	low	nt	ht	nh/0508_nh.bmp
576.72	0.72	792	4	8	26	per	lib	mod	mod	mod	tg	ht	wh/0904.bmp
577.44	0.72	793	4	5	24	mem	lib	mod	mod	mod	tg	ht	wh/0095.bmp
578.16	0.72	794	6	7	93	per	con	mod	mod	mod	nt	cr	nh/0371_nh.bmp
578.88	0.72	795	4	5	73	per	lib	low	mod	low	nt	cr	nh/0730_nh.bmp
579.60	0.72	796	5	8	26	per	lib	mod	mod	mod	tg	ht	wh/0904.bmp
580.32	0.72	797	4	7	86	per	con	mod	mod	mod	tg	ms	wh/0540.bmp
581.04	0.72	798	1	8	2	mem	con	low	low	mod	nt	ms	nh/0068_nh.bmp
581.76	0.72	799	6	5	63	mem	con	mod	mod	low	tg	ms	wh/0964.bmp
582.48	0.72	800	5	8	126	mem	con	mod	mod	low	tg	ms	wh/0079.bmp
583.20	0.72	801	6	7	46	mem	lib	mod	mod	mod	tg	ht	wh/0462.bmp
583.92	0.72	802	5	7	86	per	con	mod	mod	mod	tg	ms	wh/0540.bmp
584.64	0.72	803	6	6	52	per	con	mod	mod	mod	tg	ms	wh/0542.bmp
585.36	0.72	804	6	5	69	per	lib	low	mod	low	tg	ht	wh/0364.bmp
586.08	0.72	805	6	5	71	per	lib	low	mod	low	tg	ht	wh/0351.bmp
586.80	0.72	806	5	7	97	mem	con	mod	mod	mod	tg	ms	wh/0593.bmp
587.52	0.72	807	1	6	78	per	con	low	low	low	nt	cr	nh/0173_nh.bmp
588.24	0.72	808	4	5	84	per	lib	mod	mod	mod	nt	fa	nh/0874_nh.bmp
588.96	0.72	809	5	7	83	per	con	mod	mod	mod	nt	cr	nh/0909_nh.bmp
589.68	0.72	810	6	5	49	mem	con	mod	mod	low	tg	ht	wh/0635.bmp
590.40	0.72	811	6	5	81	per	lib	mod	mod	mod	nt	fa	nh/0199_nh.bmp
591.12	0.72	812	6	7	94	per	con	mod	mod	mod	tg	ht	wh/0807.bmp
591.84	0.72	813	1	8	57	per	lib	low	low	low	nt	cr	nh/0433_nh.bmp
592.56	0.72	814	6	5	36	per	con	low	mod	low	tg	ms	wh/0940.bmp
593.28	0.72	815	6	7	23	per	lib	low	mod	low	nt	cr	nh/0338_nh.bmp
594.00	0.72	816	6	8	26	per	lib	mod	mod	mod	tg	ht	wh/0904.bmp
594.72	0.72	817	6	5	72	per	lib	low	mod	low	tg	ms	wh/0256.bmp
595.44	0.72	818	6	6	111	mem	lib	mod	mod	low	nt	ht	nh/0383_nh.bmp
596.16	0.72	819	5	7	106	mem	con	mod	mod	mod	tg	ms	wh/0558.bmp
596.88	0.72	820	1	8	37	per	con	mod	low	mod	nt	cr	nh/1024_nh.bmp
597.60	0.72	821	6	6	60	per	con	mod	mod	mod	tg	ht	wh/0680.bmp
598.32	0.72	822	6	6	24	mem	con	mod	mod	mod	nt	ms	nh/0684_nh.bmp
599.04	0.72	823	5	5	23	mem	lib	mod	mod	mod	tg	ht	wh/0876.bmp
599.76	0.72	824	1	7	15	per	lib	mod	low	mod	tg	ht	wh/0584.bmp
600.48	0.72	825	6	5	23	mem	lib	mod	mod	mod	tg	ht	wh/0876.bmp
601.20	0.72	826	6	6	17	mem	con	mod	mod	mod	tg	ms	wh/0591.bmp
601.92	0.72	827	6	8	21	per	lib	mod	mod	mod	nt	cr	nh/0428_nh.bmp
602.64	0.72	828	1	5	15	mem	lib	low	low	mod	nt	ht	nh/0721_nh.bmp
603.36	0.72	829	5	6	97	mem	lib	mod	mod	low	tg	ht	wh/0190.bmp
604.08	0.72	830	6	7	97	mem	con	mod	mod	mod	tg	ms	wh/0593.bmp
604.80	0.72	831	6	8	30	per	lib	mod	mod	mod	tg	ms	wh/0810.bmp
605.52	0.72	832	1	8	85	mem	lib	low	low	mod	tg	ht	wh/0290.bmp
606.24	0.72	833	6	8	126	mem	con	mod	mod	low	tg	ms	wh/0079.bmp
606.96	0.72	834	6	5	90	per	lib	mod	mod	mod	tg	ms	wh/0855.bmp
607.68	0.72	835	6	6	25	mem	con	mod	mod	mod	tg	ms	wh/0328.bmp
608.40	0.72	836	6	8	72	per	con	low	mod	low	tg	ms	wh/0818.bmp
609.12	0.72	837	5	5	73	per	lib	low	mod	low	nt	cr	nh/0730_nh.bmp
609.84	0.72	838	5	6	50	per	con	mod	mod	mod	tg	ht	wh/0594.bmp
610.56	0.72	839	6	8	99	mem	lib	mod	mod	low	nt	ht	nh/0503_nh.bmp
611.28	0.72	840	6	5	77	per	lib	low	mod	low	nt	cr	nh/0744_nh.bmp
612.00	0.72	841	6	8	118	mem	con	mod	mod	low	nt	ms	nh/0153_nh.bmp
612.72	0.72	842	6	5	43	per	con	low	mod	low	nt	cr	nh/0963_nh.bmp
613.44	0.72	843	4	6	57	per	con	mod	mod	mod	nt	cr	nh/0196_nh.bmp
614.16	0.72	844	6	5	79	per	lib	low	mod	low	nt	fa	nh/0404_nh.bmp
614.88	0.72	845	5	6	57	per	con	mod	mod	mod	nt	cr	nh/0196_nh.bmp
615.60	0.72	846	6	5	73	per	lib	low	mod	low	nt	cr	nh/0730_nh.bmp
616.32	0.72	847	6	8	103	mem	lib	mod	mod	low	tg	ht	wh/0489.bmp
617.04	0.72	848	6	7	86	per	con	mod	mod	mod	tg	ms	wh/0540.bmp
617.76	0.72	849	6	6	50	per	con	mod	mod	mod	tg	ht	wh/0594.bmp
618.48	0.72	850	6	7	88	per	con	mod	mod	mod	tg	ht	wh/0716.bmp
619.20	0.72	851	6	8	124	mem	con	mod	mod	low	tg	ht	wh/0150.bmp
619.92	0.72	852	5	8	67	per	con	low	mod	low	nt	cr	nh/0690_nh.bmp
620.64	0.72	853	5	6	54	per	con	mod	mod	mod	tg	ht	wh/0543.bmp
621.36	0.72	854	5	5	84	per	lib	mod	mod	mod	nt	fa	nh/0874_nh.bmp
622.08	0.72	855	6	6	98	mem	lib	mod	mod	low	tg	ht	wh/0967.bmp
622.80	0.72	856	5	5	19	mem	lib	mod	mod	mod	nt	ht	nh/0843_nh.bmp
623.52	0.72	857	1	8	84	mem	lib	low	low	mod	tg	ht	wh/0669.bmp
624.24	0.72	858	6	5	19	mem	lib	mod	mod	mod	nt	ht	nh/0843_nh.bmp
624.96	0.72	859	5	8	115	mem	con	mod	mod	low	nt	ms	nh/0802_nh.bmp
625.68	0.72	860	6	8	70	per	con	low	mod	low	nt	cr	nh/0760_nh.bmp
626.40	0.72	861	5	5	28	mem	lib	mod	mod	mod	nt	ht	nh/0396_nh.bmp
627.12	0.72	862	5	5	24	mem	lib	mod	mod	mod	tg	ht	wh/0095.bmp
627.84	0.72	863	6	7	36	mem	lib	mod	mod	mod	nt	ht	nh/0563_nh.bmp
628.56	0.72	864	5	8	106	mem	lib	mod	mod	low	tg	ht	wh/0029.bmp
629.28	0.72	865	6	8	67	per	con	low	mod	low	nt	cr	nh/0690_nh.bmp
630.00	0.72	866	6	7	104	mem	con	mod	mod	mod	tg	ms	wh/0339.bmp
630.72	0.72	867	6	6	21	mem	con	mod	mod	mod	tg	ht	wh/0902.bmp
631.44	0.72	868	6	5	28	mem	lib	mod	mod	mod	nt	ht	nh/0396_nh.bmp
632.16	0.72	869	6	6	26	mem	con	mod	mod	mod	tg	ht	wh/0398.bmp
632.88	0.72	870	6	6	27	mem	con	mod	mod	mod	nt	ms	nh/0442_nh.bmp
633.60	0.72	871	6	8	115	mem	con	mod	mod	low	nt	ms	nh/0802_nh.bmp
634.32	0.72	872	6	7	83	per	con	mod	mod	mod	nt	cr	nh/0909_nh.bmp
635.04	0.72	873	5	5	53	mem	con	mod	mod	low	tg	ht	wh/0082.bmp
635.76	0.72	874	1	8	46	per	con	mod	low	mod	nt	cr	nh/0949_nh.bmp
636.48	0.72	875	6	5	40	per	con	low	mod	low	tg	ms	wh/0646.bmp
637.20	0.72	876	6	5	47	per	con	low	mod	low	tg	ms	wh/0032.bmp
637.92	0.72	877	5	8	113	mem	con	mod	mod	low	nt	ht	nh/0417_nh.bmp
638.64	0.72	878	6	5	24	mem	lib	mod	mod	mod	tg	ht	wh/0095.bmp
639.36	0.72	879	6	6	97	mem	lib	mod	mod	low	tg	ht	wh/0190.bmp
640.08	0.72	880	6	5	65	per	lib	low	mod	low	nt	fa	nh/0355_nh.bmp
640.80	0.72	881	6	6	29	mem	con	mod	mod	mod	nt	ht	nh/0795_nh.bmp
641.52	0.72	882	6	7	28	per	lib	low	mod	low	tg	ht	wh/0329.bmp
642.24	0.72	883	6	5	84	per	lib	mod	mod	mod	nt	fa	nh/0874_nh.bmp
642.96	0.72	884	6	8	113	mem	con	mod	mod	low	nt	ht	nh/0417_nh.bmp
643.68	0.72	885	1	6	121	per	lib	low	low	low	nt	fa	nh/0812_nh.bmp
644.40	0.72	886	6	6	54	per	con	mod	mod	mod	tg	ht	wh/0543.bmp
645.12	0.72	887	6	5	59	mem	con	mod	mod	low	tg	ms	wh/0608.bmp
645.84	0.72	888	6	8	75	per	con	low	mod	low	tg	ms	wh/0077.bmp
646.56	0.72	889	6	6	57	per	con	mod	mod	mod	nt	cr	nh/0196_nh.bmp
647.28	0.72	890	6	5	58	mem	con	mod	mod	low	nt	ht	nh/0934_nh.bmp
648.00	0.72	891	6	7	84	per	con	mod	mod	mod	tg	ms	wh/0772.bmp
648.72	0.72	892	6	8	106	mem	lib	mod	mod	low	tg	ht	wh/0029.bmp
649.44	0.72	893	1	8	15	mem	con	low	low	mod	tg	ms	wh/0469.bmp
650.16	0.72	894	6	5	53	mem	con	mod	mod	low	tg	ht	wh/0082.bmp
650.88	0.72	895	6	7	106	mem	con	mod	mod	mod	tg	ms	wh/0558.bmp
651.60	0.72	896	6	7	21	per	lib	low	mod	low	tg	ms	wh/0284.bmp
