onset	duration	block	trial	task	crit	disc	mem_disc	per_disc	trial_type	mem_type	per_type	left_option	resp_hand	response	accuracy	response_time	stim_file	pay	pay_tot
7.2	7.2	1	n/a	per	con	low	n/a	n/a	instructions	n/a	n/a	n/a	n/a	n/a	n/a	n/a	n/a	n/a	n/a
14.72	1.18892	1	1	per	con	low	mod	low	nt	tg	nt	nt	left	nt	cr	0.78892	nh/0024_nh.bmp	0.05	11.05
17.6	1.29987	1	2	per	con	low	mod	low	tg	tg	tg	tg	right	nt	ms	0.89987	wh/0253.bmp	0	11.05
20.48	1.4179	1	3	per	con	low	mod	low	nt	nt	nt	tg	right	nt	cr	1.0179	nh/0646_nh.bmp	0.05	11.1
23.36	1.38187	1	4	per	con	low	mod	low	nt	tg	nt	nt	left	nt	cr	0.98187	nh/0519_nh.bmp	0.05	11.15
27.68	1.4259	1	5	per	con	low	mod	low	nt	tg	nt	tg	right	nt	cr	1.0259	nh/0863_nh.bmp	0.05	11.2
30.56	1.4409	1	6	per	con	low	mod	low	nt	nt	nt	nt	left	nt	cr	1.0409	nh/0080_nh.bmp	0.05	11.25
34.88	1.31489	1	7	per	con	low	mod	low	tg	nt	tg	tg	right	nt	ms	0.91489	wh/0963.bmp	0	11.25
37.76	1.17691	1	8	per	con	low	mod	low	tg	tg	tg	nt	left	nt	ms	0.77691	wh/0297.bmp	0	11.25
40.64	1.7919	1	9	per	con	low	mod	low	tg	nt	tg	tg	right	nt	ms	1.3919	wh/0660.bmp	0	11.25
43.52	1.26588	1	10	per	con	low	mod	low	tg	nt	tg	tg	left	tg	ht	0.86588	wh/0194.bmp	0.05	11.3
47.12	1.19984	1	11	per	con	low	mod	low	nt	nt	nt	tg	right	nt	cr	0.79984	nh/0940_nh.bmp	0.05	11.35
50	1.20292	1	12	per	con	low	mod	low	nt	nt	nt	nt	left	nt	cr	0.80292	nh/0032_nh.bmp	0.05	11.4
54.32	2.1089	1	13	per	con	low	mod	low	tg	tg	tg	tg	right	nt	ms	1.7089	wh/0883.bmp	0	11.4
57.2	1.25488	1	14	per	con	low	mod	low	nt	tg	nt	nt	left	nt	cr	0.85488	nh/0612_nh.bmp	0.05	11.45
60.08	1.8849	1	15	per	con	low	mod	low	tg	tg	tg	nt	left	nt	ms	1.4849	wh/0157.bmp	0	11.45
63.68	1.18882	1	16	per	con	low	mod	low	tg	nt	tg	tg	right	nt	ms	0.78882	wh/0035.bmp	0	11.45
67.68	3.6	1	n/a	per	con	low	n/a	n/a	feedback	n/a	n/a	n/a	n/a	n/a	n/a	n/a	n/a	n/a	n/a
72	7.2	2	n/a	mem	lib	low	n/a	n/a	instructions	n/a	n/a	n/a	n/a	n/a	n/a	n/a	n/a	n/a	n/a
79.52	1.28982	2	17	mem	lib	low	low	mod	tg	tg	nt	nt	left	nt	ms	0.88982	nh/0688_nh.bmp	-0.1	11.35
82.4	1.7149	2	18	mem	lib	low	low	mod	tg	tg	tg	tg	left	tg	ht	1.3149	wh/0751.bmp	0.05	11.4
86.72	1.05115	2	19	mem	lib	low	low	mod	nt	nt	tg	nt	left	nt	cr	0.65115	wh/0846.bmp	0.05	11.45
91.04	1.02498	2	20	mem	lib	low	low	mod	nt	nt	nt	nt	left	nt	cr	0.62498	nh/0933_nh.bmp	0.05	11.5
93.92	1.22188	2	21	mem	lib	low	low	mod	nt	nt	tg	tg	left	tg	fa	0.82188	wh/0652.bmp	0	11.5
98.24	1.06667	2	22	mem	lib	low	low	mod	tg	tg	tg	nt	right	tg	ht	0.66667	wh/0402.bmp	0.05	11.55
101.12	1.604	2	23	mem	lib	low	low	mod	nt	nt	nt	nt	left	nt	cr	1.204	nh/0281_nh.bmp	0.05	11.6
105.44	1.4799	2	24	mem	lib	low	low	mod	nt	nt	tg	nt	left	nt	cr	1.0799	wh/0038.bmp	0.05	11.65
108.32	2.1079	2	25	mem	lib	low	low	mod	tg	tg	nt	tg	left	tg	ht	1.7079	nh/0945_nh.bmp	0.05	11.7
112.64	1.9139	2	26	mem	lib	low	low	mod	tg	tg	nt	tg	right	nt	ms	1.5139	nh/0980_nh.bmp	-0.1	11.6
116.96	1.02719	2	27	mem	lib	low	low	mod	tg	tg	nt	tg	left	tg	ht	0.62719	nh/0373_nh.bmp	0.05	11.65
119.84	1.06073	2	28	mem	lib	low	low	mod	nt	nt	nt	tg	left	tg	fa	0.66073	nh/0774_nh.bmp	0	11.65
123.44	1.18188	2	29	mem	lib	low	low	mod	nt	nt	tg	tg	left	tg	fa	0.78188	wh/0721.bmp	0	11.65
126.32	1.06331	2	30	mem	lib	low	low	mod	tg	tg	tg	tg	left	tg	ht	0.66331	wh/0622.bmp	0.05	11.7
129.92	1.32891	2	31	mem	lib	low	low	mod	tg	tg	tg	nt	right	tg	ht	0.92891	wh/1016.bmp	0.05	11.75
132.8	1.28493	2	32	mem	lib	low	low	mod	nt	nt	nt	tg	left	tg	fa	0.88493	nh/0900_nh.bmp	0	11.75
135.36	3.6	2	n/a	mem	lib	low	n/a	n/a	feedback	n/a	n/a	n/a	n/a	n/a	n/a	n/a	n/a	n/a	n/a
139.68	7.2	3	n/a	per	lib	low	n/a	n/a	instructions	n/a	n/a	n/a	n/a	n/a	n/a	n/a	n/a	n/a	n/a
148.64	2.0419	3	33	per	lib	low	mod	low	nt	tg	nt	nt	left	nt	cr	1.6419	nh/0176_nh.bmp	0.05	11.8
152.24	1.03261	3	34	per	lib	low	mod	low	tg	nt	tg	nt	left	nt	ms	0.63261	wh/0730.bmp	-0.1	11.7
156.56	1.5459	3	35	per	lib	low	mod	low	nt	tg	nt	tg	left	tg	fa	1.1459	nh/0814_nh.bmp	0	11.7
159.44	1.6889	3	36	per	lib	low	mod	low	tg	tg	tg	nt	right	tg	ht	1.2889	wh/0756.bmp	0.05	11.75
163.04	2.052	3	37	per	lib	low	mod	low	tg	nt	tg	tg	left	tg	ht	1.652	wh/0355.bmp	0.05	11.8
165.92	1.6158	3	38	per	lib	low	mod	low	tg	nt	tg	nt	right	tg	ht	1.2158	wh/0744.bmp	0.05	11.85
170.24	1.7238	3	39	per	lib	low	mod	low	nt	nt	nt	nt	left	nt	cr	1.3238	nh/0364_nh.bmp	0.05	11.9
173.84	1.4559	3	40	per	lib	low	mod	low	tg	tg	tg	tg	right	nt	ms	1.0559	wh/0401.bmp	-0.1	11.8
176.72	2.1869	3	41	per	lib	low	mod	low	nt	nt	nt	nt	right	tg	fa	1.7869	nh/0256_nh.bmp	0	11.8
181.04	1.5839	3	42	per	lib	low	mod	low	tg	tg	tg	nt	right	tg	ht	1.1839	wh/0394.bmp	0.05	11.85
183.92	2.4119	3	43	per	lib	low	mod	low	tg	nt	tg	nt	left	nt	ms	2.0119	wh/0404.bmp	-0.1	11.75
187.52	1.4258	3	44	per	lib	low	mod	low	nt	nt	nt	nt	right	tg	fa	1.0258	nh/0351_nh.bmp	0	11.75
190.4	1.6679	3	45	per	lib	low	mod	low	nt	nt	nt	nt	left	nt	cr	1.2679	nh/0758_nh.bmp	0.05	11.8
193.28	1.3178	3	46	per	lib	low	mod	low	nt	tg	nt	tg	left	tg	fa	0.9178	nh/0248_nh.bmp	0	11.8
196.16	1.22588	3	47	per	lib	low	mod	low	nt	tg	nt	tg	left	tg	fa	0.82588	nh/0114_nh.bmp	0	11.8
199.76	1.25094	3	48	per	lib	low	mod	low	tg	tg	tg	nt	right	tg	ht	0.85094	wh/0453.bmp	0.05	11.85
203.76	3.6	3	n/a	per	lib	low	n/a	n/a	feedback	n/a	n/a	n/a	n/a	n/a	n/a	n/a	n/a	n/a	n/a
207.36	7.2	4	n/a	per	con	mod	n/a	n/a	instructions	n/a	n/a	n/a	n/a	n/a	n/a	n/a	n/a	n/a	n/a
214.88	1.8729	4	49	per	con	mod	low	mod	tg	nt	tg	nt	right	tg	ht	1.4729	wh/0092.bmp	0.05	11.9
217.76	1.9679	4	50	per	con	mod	low	mod	nt	nt	nt	tg	right	nt	cr	1.5679	nh/0699_nh.bmp	0.05	11.95
220.64	1.18387	4	51	per	con	mod	low	mod	nt	tg	nt	tg	right	nt	cr	0.78387	nh/0673_nh.bmp	0.05	12
223.52	1.21691	4	52	per	con	mod	low	mod	tg	tg	tg	nt	right	tg	ht	0.81691	wh/0084.bmp	0.05	12.05
226.4	1.18089	4	53	per	con	mod	low	mod	nt	tg	nt	tg	right	nt	cr	0.78089	nh/0663_nh.bmp	0.05	12.1
230	1.742	4	54	per	con	mod	low	mod	nt	tg	nt	nt	right	tg	fa	1.342	nh/0732_nh.bmp	-0.1	12
232.88	1.429	4	55	per	con	mod	low	mod	tg	tg	tg	nt	right	tg	ht	1.029	wh/0416.bmp	0.05	12.05
235.76	1.26892	4	56	per	con	mod	low	mod	tg	nt	tg	tg	right	nt	ms	0.86892	wh/0277.bmp	0	12.05
239.36	1.7109	4	57	per	con	mod	low	mod	tg	tg	tg	tg	left	tg	ht	1.3109	wh/0091.bmp	0.05	12.1
242.96	1.5229	4	58	per	con	mod	low	mod	tg	tg	tg	tg	right	nt	ms	1.1229	wh/0342.bmp	0	12.1
246.56	1.36195	4	59	per	con	mod	low	mod	nt	nt	nt	tg	right	nt	cr	0.96195	nh/0220_nh.bmp	0.05	12.15
250.88	1.4339	4	60	per	con	mod	low	mod	nt	tg	nt	nt	left	nt	cr	1.0339	nh/0924_nh.bmp	0.05	12.2
254.48	1.21085	4	61	per	con	mod	low	mod	nt	nt	nt	tg	right	nt	cr	0.81085	nh/0025_nh.bmp	0.05	12.25
257.36	1.4899	4	62	per	con	mod	low	mod	nt	nt	nt	tg	right	nt	cr	1.0899	nh/0870_nh.bmp	0.05	12.3
260.96	1.5529	4	63	per	con	mod	low	mod	tg	nt	tg	tg	left	tg	ht	1.1529	wh/0572.bmp	0.05	12.35
263.84	1.4519	4	64	per	con	mod	low	mod	tg	nt	tg	nt	right	tg	ht	1.0519	wh/0267.bmp	0.05	12.4
266.4	3.6	4	n/a	per	con	mod	n/a	n/a	feedback	n/a	n/a	n/a	n/a	n/a	n/a	n/a	n/a	n/a	n/a
270.72	7.2	5	n/a	mem	con	mod	n/a	n/a	instructions	n/a	n/a	n/a	n/a	n/a	n/a	n/a	n/a	n/a	n/a
278.96	1.6799	5	65	mem	con	mod	mod	mod	nt	nt	tg	nt	left	nt	cr	1.2799	wh/0380.bmp	0.05	12.45
281.84	1.6838	5	66	mem	con	mod	mod	mod	tg	tg	nt	tg	right	nt	ms	1.2838	nh/0586_nh.bmp	0	12.45
284.72	1.8197	5	67	mem	con	mod	mod	mod	tg	tg	tg	nt	right	tg	ht	1.4197	wh/0544.bmp	0.05	12.5
289.04	1.08481	5	68	mem	con	mod	mod	mod	tg	tg	tg	nt	right	tg	ht	0.68481	wh/0552.bmp	0.05	12.55
292.64	1.4749	5	69	mem	con	mod	mod	mod	tg	tg	nt	tg	left	tg	ht	1.0749	nh/0852_nh.bmp	0.05	12.6
296.96	1.10877	5	70	mem	con	mod	mod	mod	tg	tg	tg	nt	right	tg	ht	0.70877	wh/0763.bmp	0.05	12.65
301.28	1.14089	5	71	mem	con	mod	mod	mod	tg	tg	nt	tg	left	tg	ht	0.74089	nh/0832_nh.bmp	0.05	12.7
304.16	2.1619	5	72	mem	con	mod	mod	mod	nt	nt	nt	nt	left	nt	cr	1.7619	nh/0398_nh.bmp	0.05	12.75
307.04	1.6059	5	73	mem	con	mod	mod	mod	nt	nt	tg	tg	right	nt	cr	1.2059	wh/0442.bmp	0.05	12.8
310.64	1.10968	5	74	mem	con	mod	mod	mod	tg	tg	nt	nt	right	tg	ht	0.70968	nh/0300_nh.bmp	0.05	12.85
314.96	2.0029	5	75	mem	con	mod	mod	mod	tg	tg	tg	nt	left	nt	ms	1.6029	wh/0978.bmp	0	12.85
318.56	1.7568	5	76	mem	con	mod	mod	mod	nt	nt	nt	nt	left	nt	cr	1.3568	nh/0902_nh.bmp	0.05	12.9
321.44	1.14286	5	77	mem	con	mod	mod	mod	nt	nt	nt	nt	left	nt	cr	0.74286	nh/0591_nh.bmp	0.05	12.95
324.32	1.6389	5	78	mem	con	mod	mod	mod	nt	nt	nt	tg	right	nt	cr	1.2389	nh/0328_nh.bmp	0.05	13
327.92	1.7979	5	79	mem	con	mod	mod	mod	nt	nt	tg	nt	left	nt	cr	1.3979	wh/0684.bmp	0.05	13.05
330.8	1.6279	5	80	mem	con	mod	mod	mod	nt	nt	tg	nt	right	tg	fa	1.2279	wh/0795.bmp	-0.1	12.95
333.36	3.6	5	n/a	mem	con	mod	n/a	n/a	feedback	n/a	n/a	n/a	n/a	n/a	n/a	n/a	n/a	n/a	n/a
336.96	7.2	6	n/a	per	lib	mod	n/a	n/a	instructions	n/a	n/a	n/a	n/a	n/a	n/a	n/a	n/a	n/a	n/a
344.48	1.4899	6	81	per	lib	mod	mod	mod	nt	nt	nt	nt	right	tg	fa	1.0899	nh/0855_nh.bmp	0	12.95
348.08	1.443	6	82	per	lib	mod	mod	mod	nt	nt	nt	tg	left	tg	fa	1.043	nh/0187_nh.bmp	0	12.95
350.96	1.36992	6	83	per	lib	mod	mod	mod	nt	tg	nt	nt	left	nt	cr	0.96992	nh/0318_nh.bmp	0.05	13
355.28	2.3979	6	84	per	lib	mod	mod	mod	nt	tg	nt	tg	left	tg	fa	1.9979	nh/0564_nh.bmp	0	13
358.88	1.27875	6	85	per	lib	mod	mod	mod	tg	nt	tg	tg	left	tg	ht	0.87875	wh/0941.bmp	0.05	13.05
363.2	1.6589	6	86	per	lib	mod	mod	mod	tg	tg	tg	nt	right	tg	ht	1.2589	wh/0735.bmp	0.05	13.1
367.52	1.4299	6	87	per	lib	mod	mod	mod	nt	nt	nt	nt	right	tg	fa	1.0299	nh/0319_nh.bmp	0	13.1
370.4	1.854	6	88	per	lib	mod	mod	mod	nt	nt	nt	nt	left	nt	cr	1.454	nh/0094_nh.bmp	0.05	13.15
374	2.284	6	89	per	lib	mod	mod	mod	tg	nt	tg	tg	left	tg	ht	1.884	wh/0222.bmp	0.05	13.2
376.88	1.05938	6	90	per	lib	mod	mod	mod	tg	nt	tg	nt	right	tg	ht	0.65938	wh/0874.bmp	0.05	13.25
379.76	1.12187	6	91	per	lib	mod	mod	mod	tg	nt	tg	nt	left	nt	ms	0.72187	wh/0199.bmp	-0.1	13.15
383.36	1.8499	6	92	per	lib	mod	mod	mod	nt	tg	nt	tg	left	tg	fa	1.4499	nh/0086_nh.bmp	0	13.15
386.96	1.19589	6	93	per	lib	mod	mod	mod	tg	tg	tg	nt	left	nt	ms	0.79589	wh/0399.bmp	-0.1	13.05
391.28	1.2529	6	94	per	lib	mod	mod	mod	tg	tg	tg	nt	right	tg	ht	0.8529	wh/0778.bmp	0.05	13.1
394.16	1.7649	6	95	per	lib	mod	mod	mod	nt	tg	nt	tg	right	nt	cr	1.3649	nh/0835_nh.bmp	0.05	13.15
397.76	1.4789	6	96	per	lib	mod	mod	mod	tg	tg	tg	nt	right	tg	ht	1.0789	wh/0385.bmp	0.05	13.2
401.04	3.6	6	n/a	per	lib	mod	n/a	n/a	feedback	n/a	n/a	n/a	n/a	n/a	n/a	n/a	n/a	n/a	n/a
404.64	7.2	7	n/a	mem	lib	mod	n/a	n/a	instructions	n/a	n/a	n/a	n/a	n/a	n/a	n/a	n/a	n/a	n/a
412.88	2.2849	7	97	mem	lib	mod	mod	mod	tg	tg	nt	nt	right	tg	ht	1.8849	nh/0827_nh.bmp	0.05	13.25
416.48	1.7259	7	98	mem	lib	mod	mod	mod	nt	nt	nt	nt	right	tg	fa	1.3259	nh/0095_nh.bmp	0	13.25
420.08	1.4129	7	99	mem	lib	mod	mod	mod	nt	nt	nt	tg	right	nt	cr	1.0129	nh/0954_nh.bmp	0.05	13.3
424.4	2.56	7	100	mem	lib	mod	mod	mod	nt	nt	tg	tg	n/a	n/a	n/a	n/a	wh/0497.bmp	0	13.3
428	1.30896	7	101	mem	lib	mod	mod	mod	nt	nt	tg	nt	left	nt	cr	0.90896	wh/0588.bmp	0.05	13.35
432.32	1.05591	7	102	mem	lib	mod	mod	mod	nt	nt	tg	nt	left	nt	cr	0.65591	wh/0843.bmp	0.05	13.4
435.92	1.33189	7	103	mem	lib	mod	mod	mod	nt	nt	tg	tg	left	tg	fa	0.93189	wh/0396.bmp	0	13.4
438.8	0.96487	7	104	mem	lib	mod	mod	mod	tg	tg	nt	tg	left	tg	ht	0.56487	nh/0968_nh.bmp	0.05	13.45
441.68	1.16283	7	105	mem	lib	mod	mod	mod	tg	tg	tg	tg	left	tg	ht	0.76283	wh/0821.bmp	0.05	13.5
444.56	1.19288	7	106	mem	lib	mod	mod	mod	tg	tg	nt	nt	right	tg	ht	0.79288	nh/0590_nh.bmp	0.05	13.55
447.44	1.35373	7	107	mem	lib	mod	mod	mod	tg	tg	tg	nt	right	tg	ht	0.95373	wh/0638.bmp	0.05	13.6
450.32	1.20886	7	108	mem	lib	mod	mod	mod	tg	tg	tg	nt	right	tg	ht	0.80886	wh/0666.bmp	0.05	13.65
453.2	1.4157	7	109	mem	lib	mod	mod	mod	tg	tg	tg	tg	left	tg	ht	1.0157	wh/0275.bmp	0.05	13.7
456.08	1.826	7	110	mem	lib	mod	mod	mod	nt	nt	nt	nt	right	tg	fa	1.426	nh/0876_nh.bmp	0	13.7
458.96	1.28791	7	111	mem	lib	mod	mod	mod	nt	nt	nt	tg	right	nt	cr	0.88791	nh/0697_nh.bmp	0.05	13.75
463.28	1.12289	7	112	mem	lib	mod	mod	mod	tg	tg	nt	tg	left	tg	ht	0.72289	nh/0915_nh.bmp	0.05	13.8
465.84	3.6	7	n/a	mem	lib	mod	n/a	n/a	feedback	n/a	n/a	n/a	n/a	n/a	n/a	n/a	n/a	n/a	n/a
470.88	7.2	8	n/a	mem	con	low	n/a	n/a	instructions	n/a	n/a	n/a	n/a	n/a	n/a	n/a	n/a	n/a	n/a
479.84	1.16788	8	113	mem	con	low	low	low	nt	nt	nt	nt	left	nt	cr	0.76788	nh/0655_nh.bmp	0.05	13.85
482.72	1.14784	8	114	mem	con	low	low	low	nt	nt	tg	nt	left	nt	cr	0.74784	wh/0223.bmp	0.05	13.9
485.6	1.9699	8	115	mem	con	low	low	low	tg	tg	tg	nt	left	nt	ms	1.5699	wh/1011.bmp	0	13.9
488.48	1.02347	8	116	mem	con	low	low	low	tg	tg	tg	nt	left	nt	ms	0.62347	wh/0202.bmp	0	13.9
492.8	1.791	8	117	mem	con	low	low	low	tg	tg	nt	tg	right	nt	ms	1.391	nh/0089_nh.bmp	0	13.9
495.68	1.07873	8	118	mem	con	low	low	low	nt	nt	tg	tg	left	tg	fa	0.67873	wh/0691.bmp	-0.1	13.8
498.56	1.06635	8	119	mem	con	low	low	low	nt	nt	nt	nt	right	tg	fa	0.66635	nh/0266_nh.bmp	-0.1	13.7
502.88	1.38693	8	120	mem	con	low	low	low	tg	tg	nt	nt	left	nt	ms	0.98693	nh/0506_nh.bmp	0	13.7
505.76	1.19692	8	121	mem	con	low	low	low	nt	nt	nt	tg	left	tg	fa	0.79692	nh/0439_nh.bmp	-0.1	13.6
509.36	1.08483	8	122	mem	con	low	low	low	tg	tg	tg	nt	left	nt	ms	0.68483	wh/0226.bmp	0	13.6
512.24	2.5569	8	123	mem	con	low	low	low	nt	nt	tg	tg	right	nt	cr	2.1569	wh/0536.bmp	0.05	13.65
516.56	1.24893	8	124	mem	con	low	low	low	tg	tg	nt	nt	left	nt	ms	0.84893	nh/0147_nh.bmp	0	13.65
519.44	1.37791	8	125	mem	con	low	low	low	tg	tg	tg	tg	right	nt	ms	0.97791	wh/0058.bmp	0	13.65
522.32	1.5879	8	126	mem	con	low	low	low	nt	nt	nt	nt	left	nt	cr	1.1879	nh/0158_nh.bmp	0.05	13.7
525.2	2.127	8	127	mem	con	low	low	low	tg	tg	nt	tg	right	nt	ms	1.727	nh/0587_nh.bmp	0	13.7
528.08	1.9739	8	128	mem	con	low	low	low	nt	nt	tg	nt	left	nt	cr	1.5739	wh/0237.bmp	0.05	13.75
531.36	3.6	8	n/a	mem	con	low	n/a	n/a	feedback	n/a	n/a	n/a	n/a	n/a	n/a	n/a	n/a	n/a	n/a
