onset	duration	trial	pres	ts_blk	ts_trl	task	crit	disc	mem_disc	per_disc	per_type	accuracy	stim_file
7.20	0.72	1	1	6	35	per	lib	low	mod	low	tg	ms	wh/0157.bmp
7.92	0.72	2	1	8	74	per	lib	low	mod	low	tg	ht	wh/0403.bmp
8.64	0.72	3	1	6	75	mem	con	mod	mod	mod	tg	ht	wh/0275.bmp
9.36	0.72	4	1	7	122	mem	lib	low	low	mod	nt	ht	nh/0051_nh.bmp
10.08	0.72	5	1	5	73	mem	con	mod	mod	low	tg	ht	wh/0108.bmp
10.80	0.72	6	1	7	27	per	lib	mod	mod	mod	nt	cr	nh/0715_nh.bmp
11.52	0.72	7	1	8	122	mem	lib	low	low	low	nt	ht	nh/0138_nh.bmp
12.24	0.72	8	1	6	47	per	lib	low	mod	low	nt	fa	nh/0024_nh.bmp
12.96	0.72	9	1	6	107	per	con	mod	mod	mod	tg	ms	wh/0399.bmp
13.68	0.72	10	1	7	86	per	con	low	mod	low	nt	fa	nh/0875_nh.bmp
14.40	0.72	11	1	7	112	mem	lib	mod	mod	low	nt	ht	nh/0111_nh.bmp
15.12	0.72	12	1	6	120	mem	lib	mod	mod	low	nt	ht	nh/0939_nh.bmp
15.84	0.72	13	1	5	102	per	lib	mod	mod	mod	tg	ht	wh/0546.bmp
16.56	0.72	14	1	7	92	per	con	low	mod	low	nt	cr	nh/0574_nh.bmp
17.28	0.72	15	1	7	43	per	lib	low	low	low	tg	ms	wh/0617.bmp
18.00	0.72	16	2	5	102	per	lib	mod	mod	mod	tg	ht	wh/0546.bmp
18.72	0.72	17	1	5	30	mem	lib	mod	mod	mod	nt	ms	nh/0586_nh.bmp
19.44	0.72	18	1	6	74	mem	con	mod	mod	mod	nt	ht	nh/0915_nh.bmp
20.16	0.72	19	2	6	75	mem	con	mod	mod	mod	tg	ht	wh/0275.bmp
20.88	0.72	20	1	7	64	per	con	mod	mod	mod	nt	cr	nh/0995_nh.bmp
21.60	0.72	21	2	8	74	per	lib	low	mod	low	tg	ht	wh/0403.bmp
22.32	0.72	22	1	7	125	mem	lib	low	low	mod	nt	ht	nh/0537_nh.bmp
23.04	0.72	23	1	6	70	mem	con	mod	mod	mod	nt	ms	nh/0590_nh.bmp
23.76	0.72	24	1	7	55	per	con	mod	mod	mod	nt	cr	nh/0623_nh.bmp
24.48	0.72	25	1	6	42	per	lib	low	mod	low	tg	ht	wh/0253.bmp
25.20	0.72	26	2	5	30	mem	lib	mod	mod	mod	nt	ms	nh/0586_nh.bmp
25.92	0.72	27	1	6	48	per	lib	low	mod	low	tg	ht	wh/0883.bmp
26.64	0.72	28	1	5	38	per	con	mod	low	mod	tg	ht	wh/0867.bmp
27.36	0.72	29	1	7	107	mem	lib	mod	mod	low	tg	ms	wh/0780.bmp
28.08	0.72	30	2	6	35	per	lib	low	mod	low	tg	ms	wh/0157.bmp
28.80	0.72	31	1	7	97	mem	lib	mod	mod	low	nt	ht	nh/0064_nh.bmp
29.52	0.72	32	1	7	91	per	con	low	mod	low	tg	ms	wh/0820.bmp
30.24	0.72	33	1	6	110	per	con	mod	mod	mod	nt	cr	nh/0086_nh.bmp
30.96	0.72	34	1	7	88	per	con	low	mod	low	tg	ms	wh/0073.bmp
31.68	0.72	35	1	8	106	mem	lib	mod	mod	mod	nt	ht	nh/0056_nh.bmp
32.40	0.72	36	1	5	66	mem	con	mod	mod	low	tg	ms	wh/0143.bmp
33.12	0.72	37	1	8	91	mem	con	mod	mod	mod	nt	ms	nh/0378_nh.bmp
33.84	0.72	38	1	7	52	per	con	mod	mod	mod	tg	ht	wh/0599.bmp
34.56	0.72	39	1	5	46	per	con	mod	low	mod	tg	ms	wh/0305.bmp
35.28	0.72	40	3	8	74	per	lib	low	mod	low	tg	ht	wh/0403.bmp
36.00	0.72	41	1	6	127	mem	lib	mod	mod	low	nt	ht	nh/0848_nh.bmp
36.72	0.72	42	1	6	125	mem	lib	mod	mod	low	tg	ht	wh/0172.bmp
37.44	0.72	43	1	7	62	per	con	mod	mod	mod	nt	cr	nh/0337_nh.bmp
38.16	0.72	44	1	5	75	mem	con	mod	mod	low	nt	ms	nh/0647_nh.bmp
38.88	0.72	45	1	6	77	mem	con	mod	mod	mod	nt	ht	nh/0827_nh.bmp
39.60	0.72	46	1	7	67	mem	con	mod	mod	low	nt	ms	nh/0618_nh.bmp
40.32	0.72	47	1	7	104	mem	lib	mod	mod	low	nt	ht	nh/1014_nh.bmp
41.04	0.72	48	1	7	93	per	con	low	mod	low	nt	cr	nh/1004_nh.bmp
41.76	0.72	49	1	6	128	mem	lib	mod	mod	low	nt	ht	nh/0042_nh.bmp
42.48	0.72	50	1	6	117	mem	lib	mod	mod	low	nt	ht	nh/0255_nh.bmp
43.20	0.72	51	1	6	7	per	con	low	mod	low	tg	ms	wh/0394.bmp
43.92	0.72	52	1	7	63	per	con	mod	mod	mod	tg	ms	wh/0408.bmp
44.64	0.72	53	1	7	31	per	lib	mod	mod	mod	tg	ht	wh/0602.bmp
45.36	0.72	54	1	7	17	per	lib	mod	mod	mod	tg	ht	wh/0609.bmp
46.08	0.72	55	1	6	101	per	con	mod	mod	mod	tg	ht	wh/0735.bmp
46.80	0.72	56	1	5	87	per	lib	low	low	low	nt	fa	nh/0043_nh.bmp
47.52	0.72	57	1	6	124	mem	lib	mod	mod	low	tg	ht	wh/0521.bmp
48.24	0.72	58	1	5	22	mem	lib	mod	mod	mod	tg	ht	wh/0763.bmp
48.96	0.72	59	2	5	75	mem	con	mod	mod	low	nt	ms	nh/0647_nh.bmp
49.68	0.72	60	1	6	33	per	lib	low	mod	low	nt	cr	nh/0863_nh.bmp
50.40	0.72	61	1	7	20	per	lib	mod	mod	mod	nt	cr	nh/0851_nh.bmp
51.12	0.72	62	1	6	12	per	con	low	mod	low	nt	cr	nh/0814_nh.bmp
51.84	0.72	63	1	7	71	mem	con	mod	mod	low	tg	ms	wh/0986.bmp
52.56	0.72	64	2	7	63	per	con	mod	mod	mod	tg	ms	wh/0408.bmp
53.28	0.72	65	2	7	104	mem	lib	mod	mod	low	nt	ht	nh/1014_nh.bmp
54.00	0.72	66	1	7	35	per	lib	low	low	low	nt	cr	nh/0570_nh.bmp
54.72	0.72	67	2	6	124	mem	lib	mod	mod	low	tg	ht	wh/0521.bmp
55.44	0.72	68	1	6	111	per	con	mod	mod	mod	nt	cr	nh/0564_nh.bmp
56.16	0.72	69	3	7	104	mem	lib	mod	mod	low	nt	ht	nh/1014_nh.bmp
56.88	0.72	70	1	5	68	mem	con	mod	mod	low	nt	ms	nh/0734_nh.bmp
57.60	0.72	71	1	7	127	mem	lib	low	low	mod	nt	ht	nh/0234_nh.bmp
58.32	0.72	72	2	7	88	per	con	low	mod	low	tg	ms	wh/0073.bmp
59.04	0.72	73	2	5	68	mem	con	mod	mod	low	nt	ms	nh/0734_nh.bmp
59.76	0.72	74	1	5	95	per	lib	low	low	low	nt	cr	nh/0994_nh.bmp
60.48	0.72	75	1	6	51	per	lib	mod	low	mod	nt	cr	nh/0924_nh.bmp
61.20	0.72	76	1	8	120	mem	lib	low	low	low	tg	ht	wh/0859.bmp
61.92	0.72	77	1	5	101	per	lib	mod	mod	mod	tg	ht	wh/0686.bmp
62.64	0.72	78	3	6	75	mem	con	mod	mod	mod	tg	ht	wh/0275.bmp
63.36	0.72	79	1	8	86	mem	con	mod	mod	mod	tg	ht	wh/0239.bmp
64.08	0.72	80	2	6	117	mem	lib	mod	mod	low	nt	ht	nh/0255_nh.bmp
64.80	0.72	81	1	6	71	mem	con	mod	mod	mod	tg	ms	wh/0666.bmp
65.52	0.72	82	1	6	9	per	con	low	mod	low	tg	ms	wh/0756.bmp
66.24	0.72	83	1	7	74	mem	con	mod	mod	low	nt	n/a	nh/0018_nh.bmp
66.96	0.72	84	1	7	95	per	con	low	mod	low	nt	cr	nh/0241_nh.bmp
67.68	0.72	85	1	7	105	mem	lib	mod	mod	low	tg	ht	wh/0254.bmp
68.40	0.72	86	1	7	6	mem	con	low	low	low	tg	ms	wh/0240.bmp
69.12	0.72	87	1	5	8	per	con	low	low	low	tg	ms	wh/0154.bmp
69.84	0.72	88	1	8	17	mem	con	low	low	mod	nt	ms	nh/0869_nh.bmp
70.56	0.72	89	1	6	10	per	con	low	mod	low	nt	cr	nh/0176_nh.bmp
71.28	0.72	90	1	8	81	mem	con	mod	mod	mod	nt	n/a	nh/0952_nh.bmp
72.00	0.72	91	1	6	41	per	lib	low	mod	low	nt	cr	nh/0519_nh.bmp
72.72	0.72	92	1	5	112	per	lib	mod	mod	mod	tg	ht	wh/0420.bmp
73.44	0.72	93	1	6	38	per	lib	low	mod	low	nt	fa	nh/0612_nh.bmp
74.16	0.72	94	2	6	125	mem	lib	mod	mod	low	tg	ht	wh/0172.bmp
74.88	0.72	95	2	8	106	mem	lib	mod	mod	mod	nt	ht	nh/0056_nh.bmp
75.60	0.72	96	2	8	91	mem	con	mod	mod	mod	nt	ms	nh/0378_nh.bmp
76.32	0.72	97	1	8	92	mem	con	mod	mod	mod	tg	ms	wh/0556.bmp
77.04	0.72	98	2	6	33	per	lib	low	mod	low	nt	cr	nh/0863_nh.bmp
77.76	0.72	99	2	5	66	mem	con	mod	mod	low	tg	ms	wh/0143.bmp
78.48	0.72	100	2	7	55	per	con	mod	mod	mod	nt	cr	nh/0623_nh.bmp
79.20	0.72	101	2	8	92	mem	con	mod	mod	mod	tg	ms	wh/0556.bmp
79.92	0.72	102	2	7	107	mem	lib	mod	mod	low	tg	ms	wh/0780.bmp
80.64	0.72	103	1	8	35	per	con	mod	low	mod	tg	ms	wh/0207.bmp
81.36	0.72	104	1	7	78	mem	con	mod	mod	low	tg	ms	wh/0892.bmp
82.08	0.72	105	2	7	105	mem	lib	mod	mod	low	tg	ht	wh/0254.bmp
82.80	0.72	106	2	7	62	per	con	mod	mod	mod	nt	cr	nh/0337_nh.bmp
83.52	0.72	107	2	6	48	per	lib	low	mod	low	tg	ht	wh/0883.bmp
84.24	0.72	108	3	7	107	mem	lib	mod	mod	low	tg	ms	wh/0780.bmp
84.96	0.72	109	1	5	72	mem	con	mod	mod	low	nt	ms	nh/0247_nh.bmp
85.68	0.72	110	2	7	86	per	con	low	mod	low	nt	fa	nh/0875_nh.bmp
86.40	0.72	111	1	6	72	mem	con	mod	mod	mod	tg	ht	wh/0638.bmp
87.12	0.72	112	3	5	30	mem	lib	mod	mod	mod	nt	ms	nh/0586_nh.bmp
87.84	0.72	113	1	6	73	mem	con	mod	mod	mod	tg	ht	wh/0821.bmp
88.56	0.72	114	1	8	4	per	con	low	low	low	tg	ms	wh/0352.bmp
89.28	0.72	115	1	8	47	per	con	mod	low	mod	tg	ht	wh/0948.bmp
90.00	0.72	116	1	5	105	per	lib	mod	mod	mod	nt	cr	nh/0060_nh.bmp
90.72	0.72	117	3	6	117	mem	lib	mod	mod	low	nt	ht	nh/0255_nh.bmp
91.44	0.72	118	3	5	66	mem	con	mod	mod	low	tg	ms	wh/0143.bmp
92.16	0.72	119	1	7	121	mem	lib	low	low	mod	nt	ht	nh/0625_nh.bmp
92.88	0.72	120	1	5	76	mem	con	mod	mod	low	nt	ms	nh/0164_nh.bmp
93.60	0.72	121	1	7	103	mem	lib	mod	mod	low	nt	ht	nh/0640_nh.bmp
94.32	0.72	122	1	8	70	per	lib	low	mod	low	tg	ms	wh/0746.bmp
95.04	0.72	123	2	6	7	per	con	low	mod	low	tg	ms	wh/0394.bmp
95.76	0.72	124	1	5	123	mem	con	low	low	mod	tg	ms	wh/0751.bmp
96.48	0.72	125	2	6	38	per	lib	low	mod	low	nt	fa	nh/0612_nh.bmp
97.20	0.72	126	3	8	106	mem	lib	mod	mod	mod	nt	ht	nh/0056_nh.bmp
97.92	0.72	127	1	7	22	per	lib	mod	mod	mod	tg	ms	wh/0269.bmp
98.64	0.72	128	1	8	68	per	lib	low	mod	low	tg	ms	wh/0118.bmp
99.36	0.72	129	1	8	107	mem	lib	mod	mod	mod	nt	ht	nh/0179_nh.bmp
100.08	0.72	130	1	5	115	mem	con	low	low	mod	tg	ms	wh/1016.bmp
100.80	0.72	131	1	6	106	per	con	mod	mod	mod	nt	cr	nh/0835_nh.bmp
101.52	0.72	132	1	5	20	mem	lib	mod	mod	mod	tg	ht	wh/0978.bmp
102.24	0.72	133	3	7	62	per	con	mod	mod	mod	nt	cr	nh/0337_nh.bmp
102.96	0.72	134	2	7	20	per	lib	mod	mod	mod	nt	cr	nh/0851_nh.bmp
103.68	0.72	135	2	6	74	mem	con	mod	mod	mod	nt	ht	nh/0915_nh.bmp
104.40	0.72	136	1	5	104	per	lib	mod	mod	mod	nt	cr	nh/0888_nh.bmp
105.12	0.72	137	1	7	10	mem	con	low	low	low	nt	ms	nh/0144_nh.bmp
105.84	0.72	138	2	7	103	mem	lib	mod	mod	low	nt	ht	nh/0640_nh.bmp
106.56	0.72	139	2	7	27	per	lib	mod	mod	mod	nt	cr	nh/0715_nh.bmp
107.28	0.72	140	1	6	118	mem	lib	mod	mod	low	tg	ht	wh/0450.bmp
108.00	0.72	141	2	7	22	per	lib	mod	mod	mod	tg	ms	wh/0269.bmp
108.72	0.72	142	3	7	103	mem	lib	mod	mod	low	nt	ht	nh/0640_nh.bmp
109.44	0.72	143	2	8	86	mem	con	mod	mod	mod	tg	ht	wh/0239.bmp
110.16	0.72	144	1	5	45	per	con	mod	low	mod	nt	cr	nh/1002_nh.bmp
110.88	0.72	145	2	6	10	per	con	low	mod	low	nt	cr	nh/0176_nh.bmp
111.60	0.72	146	1	6	80	mem	con	mod	mod	mod	nt	ms	nh/0968_nh.bmp
112.32	0.72	147	1	8	79	per	lib	low	mod	low	tg	ht	wh/0793.bmp
113.04	0.72	148	2	8	79	per	lib	low	mod	low	tg	ht	wh/0793.bmp
113.76	0.72	149	1	7	51	per	con	mod	mod	mod	tg	ms	wh/0833.bmp
114.48	0.72	150	3	7	86	per	con	low	mod	low	nt	fa	nh/0875_nh.bmp
115.20	0.72	151	1	6	115	mem	lib	mod	mod	low	tg	ht	wh/0388.bmp
115.92	0.72	152	1	6	108	per	con	mod	mod	mod	tg	ht	wh/0778.bmp
116.64	0.72	153	3	7	55	per	con	mod	mod	mod	nt	cr	nh/0623_nh.bmp
117.36	0.72	154	1	7	80	mem	con	mod	mod	low	tg	ms	wh/1019.bmp
118.08	0.72	155	2	7	17	per	lib	mod	mod	mod	tg	ht	wh/0609.bmp
118.80	0.72	156	1	8	100	mem	lib	mod	mod	mod	nt	ht	nh/0629_nh.bmp
119.52	0.72	157	1	7	37	per	lib	low	low	low	tg	ms	wh/0045.bmp
120.24	0.72	158	1	6	54	per	lib	mod	low	mod	tg	ht	wh/0084.bmp
120.96	0.72	159	1	5	31	mem	lib	mod	mod	mod	nt	ht	nh/0300_nh.bmp
121.68	0.72	160	4	8	106	mem	lib	mod	mod	mod	nt	ht	nh/0056_nh.bmp
122.40	0.72	161	1	5	70	mem	con	mod	mod	low	tg	ms	wh/0262.bmp
123.12	0.72	162	3	5	75	mem	con	mod	mod	low	nt	ms	nh/0647_nh.bmp
123.84	0.72	163	1	5	108	per	lib	mod	mod	mod	nt	fa	nh/0441_nh.bmp
124.56	0.72	164	2	5	108	per	lib	mod	mod	mod	nt	fa	nh/0441_nh.bmp
125.28	0.72	165	1	5	60	mem	lib	low	low	low	nt	ms	nh/0147_nh.bmp
126.00	0.72	166	1	7	28	per	lib	mod	mod	mod	tg	ht	wh/0871.bmp
126.72	0.72	167	2	6	108	per	con	mod	mod	mod	tg	ht	wh/0778.bmp
127.44	0.72	168	1	5	26	mem	lib	mod	mod	mod	tg	ht	wh/0552.bmp
128.16	0.72	169	1	5	9	per	con	low	low	low	nt	cr	nh/0468_nh.bmp
128.88	0.72	170	2	7	80	mem	con	mod	mod	low	tg	ms	wh/1019.bmp
129.60	0.72	171	2	6	71	mem	con	mod	mod	mod	tg	ms	wh/0666.bmp
130.32	0.72	172	3	6	35	per	lib	low	mod	low	tg	ms	wh/0157.bmp
131.04	0.72	173	1	7	108	mem	lib	mod	mod	low	tg	ht	wh/0012.bmp
131.76	0.72	174	2	8	68	per	lib	low	mod	low	tg	ms	wh/0118.bmp
132.48	0.72	175	3	8	92	mem	con	mod	mod	mod	tg	ms	wh/0556.bmp
133.20	0.72	176	3	7	105	mem	lib	mod	mod	low	tg	ht	wh/0254.bmp
133.92	0.72	177	1	7	16	mem	con	low	low	low	tg	ms	wh/0770.bmp
134.64	0.72	178	3	8	79	per	lib	low	mod	low	tg	ht	wh/0793.bmp
135.36	0.72	179	1	7	101	mem	lib	mod	mod	low	tg	ht	wh/0139.bmp
136.08	0.72	180	2	7	101	mem	lib	mod	mod	low	tg	ht	wh/0139.bmp
136.80	0.72	181	2	7	91	per	con	low	mod	low	tg	ms	wh/0820.bmp
137.52	0.72	182	1	5	1	per	con	low	low	low	nt	cr	nh/0136_nh.bmp
138.24	0.72	183	2	6	120	mem	lib	mod	mod	low	nt	ht	nh/0939_nh.bmp
138.96	0.72	184	1	8	101	mem	lib	mod	mod	mod	tg	ht	wh/0971.bmp
139.68	0.72	185	3	6	48	per	lib	low	mod	low	tg	ht	wh/0883.bmp
140.40	0.72	186	2	7	78	mem	con	mod	mod	low	tg	ms	wh/0892.bmp
141.12	0.72	187	3	7	22	per	lib	mod	mod	mod	tg	ms	wh/0269.bmp
141.84	0.72	188	2	5	76	mem	con	mod	mod	low	nt	ms	nh/0164_nh.bmp
142.56	0.72	189	1	6	11	per	con	low	mod	low	nt	fa	nh/0114_nh.bmp
143.28	0.72	190	1	8	109	mem	lib	mod	mod	mod	tg	ht	wh/0549.bmp
144.00	0.72	191	2	5	104	per	lib	mod	mod	mod	nt	cr	nh/0888_nh.bmp
144.72	0.72	192	1	8	73	per	lib	low	mod	low	nt	cr	nh/0193_nh.bmp
145.44	0.72	193	2	7	31	per	lib	mod	mod	mod	tg	ht	wh/0602.bmp
146.16	0.72	194	1	8	125	mem	lib	low	low	low	nt	ht	nh/0677_nh.bmp
146.88	0.72	195	2	5	22	mem	lib	mod	mod	mod	tg	ht	wh/0763.bmp
147.60	0.72	196	1	6	63	per	lib	mod	low	mod	tg	ht	wh/0342.bmp
148.32	0.72	197	2	7	51	per	con	mod	mod	mod	tg	ms	wh/0833.bmp
149.04	0.72	198	1	8	111	mem	lib	mod	mod	mod	nt	ht	nh/0366_nh.bmp
149.76	0.72	199	3	5	108	per	lib	mod	mod	mod	nt	fa	nh/0441_nh.bmp
150.48	0.72	200	1	5	91	per	lib	low	low	low	tg	ms	wh/0106.bmp
151.20	0.72	201	4	7	105	mem	lib	mod	mod	low	tg	ht	wh/0254.bmp
151.92	0.72	202	2	5	101	per	lib	mod	mod	mod	tg	ht	wh/0686.bmp
152.64	0.72	203	2	6	72	mem	con	mod	mod	mod	tg	ht	wh/0638.bmp
153.36	0.72	204	3	6	124	mem	lib	mod	mod	low	tg	ht	wh/0521.bmp
154.08	0.72	205	2	6	107	per	con	mod	mod	mod	tg	ms	wh/0399.bmp
154.80	0.72	206	1	8	52	per	lib	mod	low	mod	nt	cr	nh/0389_nh.bmp
155.52	0.72	207	2	8	109	mem	lib	mod	mod	mod	tg	ht	wh/0549.bmp
156.24	0.72	208	1	8	65	per	lib	low	mod	low	nt	fa	nh/0374_nh.bmp
156.96	0.72	209	2	6	77	mem	con	mod	mod	mod	nt	ht	nh/0827_nh.bmp
157.68	0.72	210	1	8	42	per	con	mod	low	mod	tg	ms	wh/0016.bmp
158.40	0.72	211	1	5	52	mem	lib	low	low	low	nt	ht	nh/0506_nh.bmp
159.12	0.72	212	2	6	80	mem	con	mod	mod	mod	nt	ms	nh/0968_nh.bmp
159.84	0.72	213	3	6	33	per	lib	low	mod	low	nt	cr	nh/0863_nh.bmp
160.56	0.72	214	1	7	113	mem	lib	low	low	mod	tg	ht	wh/0334.bmp
161.28	0.72	215	1	5	29	mem	lib	mod	mod	mod	nt	ht	nh/0832_nh.bmp
162.00	0.72	216	3	5	22	mem	lib	mod	mod	mod	tg	ht	wh/0763.bmp
162.72	0.72	217	1	8	110	mem	lib	mod	mod	mod	tg	ht	wh/0822.bmp
163.44	0.72	218	2	5	20	mem	lib	mod	mod	mod	tg	ht	wh/0978.bmp
164.16	0.72	219	1	7	56	per	con	mod	mod	mod	tg	ht	wh/0797.bmp
164.88	0.72	220	1	5	93	per	lib	low	low	low	nt	fa	nh/0034_nh.bmp
165.60	0.72	221	3	7	63	per	con	mod	mod	mod	tg	ms	wh/0408.bmp
166.32	0.72	222	3	6	80	mem	con	mod	mod	mod	nt	ms	nh/0968_nh.bmp
167.04	0.72	223	4	6	48	per	lib	low	mod	low	tg	ht	wh/0883.bmp
167.76	0.72	224	2	8	73	per	lib	low	mod	low	nt	cr	nh/0193_nh.bmp
168.48	0.72	225	2	8	111	mem	lib	mod	mod	mod	nt	ht	nh/0366_nh.bmp
169.20	0.72	226	2	5	72	mem	con	mod	mod	low	nt	ms	nh/0247_nh.bmp
169.92	0.72	227	2	5	70	mem	con	mod	mod	low	tg	ms	wh/0262.bmp
170.64	0.72	228	2	6	42	per	lib	low	mod	low	tg	ht	wh/0253.bmp
171.36	0.72	229	1	5	10	per	con	low	low	low	nt	cr	nh/0865_nh.bmp
172.08	0.72	230	1	7	70	mem	con	mod	mod	low	nt	ht	nh/0023_nh.bmp
172.80	0.72	231	1	8	93	mem	con	mod	mod	mod	tg	ms	wh/0603.bmp
173.52	0.72	232	3	7	101	mem	lib	mod	mod	low	tg	ht	wh/0139.bmp
174.24	0.72	233	3	8	91	mem	con	mod	mod	mod	nt	ms	nh/0378_nh.bmp
174.96	0.72	234	2	7	28	per	lib	mod	mod	mod	tg	ht	wh/0871.bmp
175.68	0.72	235	1	7	24	per	lib	mod	mod	mod	nt	cr	nh/0764_nh.bmp
176.40	0.72	236	1	8	77	per	lib	low	mod	low	nt	fa	nh/0165_nh.bmp
177.12	0.72	237	3	5	101	per	lib	mod	mod	mod	tg	ht	wh/0686.bmp
177.84	0.72	238	2	5	26	mem	lib	mod	mod	mod	tg	ht	wh/0552.bmp
178.56	0.72	239	1	8	12	per	con	low	low	low	tg	ms	wh/0376.bmp
179.28	0.72	240	4	6	33	per	lib	low	mod	low	nt	cr	nh/0863_nh.bmp
180.00	0.72	241	3	6	74	mem	con	mod	mod	mod	nt	ht	nh/0915_nh.bmp
180.72	0.72	242	1	7	69	mem	con	mod	mod	low	nt	ms	nh/0678_nh.bmp
181.44	0.72	243	1	6	97	per	con	mod	mod	mod	tg	ms	wh/0385.bmp
182.16	0.72	244	1	5	97	per	lib	mod	mod	mod	tg	ht	wh/0958.bmp
182.88	0.72	245	1	8	108	mem	lib	mod	mod	mod	tg	ht	wh/0436.bmp
183.60	0.72	246	1	8	55	per	lib	mod	low	mod	tg	ht	wh/0532.bmp
184.32	0.72	247	2	6	47	per	lib	low	mod	low	nt	fa	nh/0024_nh.bmp
185.04	0.72	248	1	8	48	per	con	mod	low	mod	tg	ms	wh/0837.bmp
185.76	0.72	249	3	6	10	per	con	low	mod	low	nt	cr	nh/0176_nh.bmp
186.48	0.72	250	3	8	109	mem	lib	mod	mod	mod	tg	ht	wh/0549.bmp
187.20	0.72	251	2	7	92	per	con	low	mod	low	nt	cr	nh/0574_nh.bmp
187.92	0.72	252	1	6	45	per	lib	low	mod	low	tg	ht	wh/0297.bmp
188.64	0.72	253	1	8	34	per	con	mod	low	mod	nt	cr	nh/0749_nh.bmp
189.36	0.72	254	3	6	107	per	con	mod	mod	mod	tg	ms	wh/0399.bmp
190.08	0.72	255	4	6	107	per	con	mod	mod	mod	tg	ms	wh/0399.bmp
190.80	0.72	256	1	7	117	mem	lib	low	low	mod	tg	ht	wh/0475.bmp
191.52	0.72	257	4	7	62	per	con	mod	mod	mod	nt	cr	nh/0337_nh.bmp
192.24	0.72	258	2	7	64	per	con	mod	mod	mod	nt	cr	nh/0995_nh.bmp
192.96	0.72	259	1	7	126	mem	lib	low	low	mod	tg	ht	wh/1005.bmp
193.68	0.72	260	2	8	65	per	lib	low	mod	low	nt	fa	nh/0374_nh.bmp
194.40	0.72	261	3	6	38	per	lib	low	mod	low	nt	fa	nh/0612_nh.bmp
195.12	0.72	262	1	8	82	mem	con	mod	mod	mod	tg	ms	wh/0694.bmp
195.84	0.72	263	1	6	15	per	con	low	mod	low	nt	cr	nh/0248_nh.bmp
196.56	0.72	264	3	6	120	mem	lib	mod	mod	low	nt	ht	nh/0939_nh.bmp
197.28	0.72	265	2	7	69	mem	con	mod	mod	low	nt	ms	nh/0678_nh.bmp
198.00	0.72	266	3	8	111	mem	lib	mod	mod	mod	nt	ht	nh/0366_nh.bmp
198.72	0.72	267	3	5	102	per	lib	mod	mod	mod	tg	ht	wh/0546.bmp
199.44	0.72	268	2	6	118	mem	lib	mod	mod	low	tg	ht	wh/0450.bmp
200.16	0.72	269	4	7	101	mem	lib	mod	mod	low	tg	ht	wh/0139.bmp
200.88	0.72	270	1	7	39	per	lib	low	low	low	nt	cr	nh/0929_nh.bmp
201.60	0.72	271	1	7	9	mem	con	low	low	low	nt	ms	nh/0639_nh.bmp
202.32	0.72	272	1	6	88	mem	con	low	low	low	tg	ms	wh/0737.bmp
203.04	0.72	273	3	8	65	per	lib	low	mod	low	nt	fa	nh/0374_nh.bmp
203.76	0.72	274	1	5	74	mem	con	mod	mod	low	tg	ms	wh/0249.bmp
204.48	0.72	275	2	5	74	mem	con	mod	mod	low	tg	ms	wh/0249.bmp
205.20	0.72	276	4	7	55	per	con	mod	mod	mod	nt	cr	nh/0623_nh.bmp
205.92	0.72	277	4	5	30	mem	lib	mod	mod	mod	nt	ms	nh/0586_nh.bmp
206.64	0.72	278	3	7	20	per	lib	mod	mod	mod	nt	cr	nh/0851_nh.bmp
207.36	0.72	279	1	5	24	mem	lib	mod	mod	mod	tg	ms	wh/0544.bmp
208.08	0.72	280	2	7	24	per	lib	mod	mod	mod	nt	cr	nh/0764_nh.bmp
208.80	0.72	281	1	5	12	per	con	low	low	low	tg	ms	wh/1015.bmp
209.52	0.72	282	1	5	114	mem	con	low	low	mod	nt	ms	nh/0980_nh.bmp
210.24	0.72	283	3	5	20	mem	lib	mod	mod	mod	tg	ht	wh/0978.bmp
210.96	0.72	284	1	8	36	per	con	mod	low	mod	nt	cr	nh/0545_nh.bmp
211.68	0.72	285	3	6	77	mem	con	mod	mod	mod	nt	ht	nh/0827_nh.bmp
212.40	0.72	286	2	8	93	mem	con	mod	mod	mod	tg	ms	wh/0603.bmp
213.12	0.72	287	1	7	49	per	con	mod	mod	mod	nt	cr	nh/0560_nh.bmp
213.84	0.72	288	2	8	81	mem	con	mod	mod	mod	nt	n/a	nh/0952_nh.bmp
214.56	0.72	289	3	7	27	per	lib	mod	mod	mod	nt	cr	nh/0715_nh.bmp
215.28	0.72	290	2	5	105	per	lib	mod	mod	mod	nt	cr	nh/0060_nh.bmp
216.00	0.72	291	4	7	103	mem	lib	mod	mod	low	nt	ht	nh/0640_nh.bmp
216.72	0.72	292	4	7	20	per	lib	mod	mod	mod	nt	cr	nh/0851_nh.bmp
217.44	0.72	293	3	7	24	per	lib	mod	mod	mod	nt	cr	nh/0764_nh.bmp
218.16	0.72	294	4	7	24	per	lib	mod	mod	mod	nt	cr	nh/0764_nh.bmp
218.88	0.72	295	3	8	73	per	lib	low	mod	low	nt	cr	nh/0193_nh.bmp
219.60	0.72	296	2	7	67	mem	con	mod	mod	low	nt	ms	nh/0618_nh.bmp
220.32	0.72	297	1	6	81	mem	con	low	low	low	tg	ms	wh/0516.bmp
221.04	0.72	298	1	8	50	per	lib	mod	low	mod	tg	ht	wh/0101.bmp
221.76	0.72	299	2	6	9	per	con	low	mod	low	tg	ms	wh/0756.bmp
222.48	0.72	300	3	7	67	mem	con	mod	mod	low	nt	ms	nh/0618_nh.bmp
223.20	0.72	301	4	8	74	per	lib	low	mod	low	tg	ht	wh/0403.bmp
223.92	0.72	302	4	8	111	mem	lib	mod	mod	mod	nt	ht	nh/0366_nh.bmp
224.64	0.72	303	1	7	30	per	lib	mod	mod	mod	nt	fa	nh/0495_nh.bmp
225.36	0.72	304	3	7	64	per	con	mod	mod	mod	nt	cr	nh/0995_nh.bmp
226.08	0.72	305	2	6	45	per	lib	low	mod	low	tg	ht	wh/0297.bmp
226.80	0.72	306	2	8	108	mem	lib	mod	mod	mod	tg	ht	wh/0436.bmp
227.52	0.72	307	1	7	77	mem	con	mod	mod	low	tg	ms	wh/0170.bmp
228.24	0.72	308	2	6	97	per	con	mod	mod	mod	tg	ms	wh/0385.bmp
228.96	0.72	309	3	7	88	per	con	low	mod	low	tg	ms	wh/0073.bmp
229.68	0.72	310	4	5	66	mem	con	mod	mod	low	tg	ms	wh/0143.bmp
230.40	0.72	311	1	6	17	mem	lib	low	low	mod	nt	ht	nh/0921_nh.bmp
231.12	0.72	312	1	8	76	per	lib	low	mod	low	nt	cr	nh/0578_nh.bmp
231.84	0.72	313	4	8	91	mem	con	mod	mod	mod	nt	ms	nh/0378_nh.bmp
232.56	0.72	314	2	7	74	mem	con	mod	mod	low	nt	n/a	nh/0018_nh.bmp
233.28	0.72	315	3	8	68	per	lib	low	mod	low	tg	ms	wh/0118.bmp
234.00	0.72	316	4	6	75	mem	con	mod	mod	mod	tg	ht	wh/0275.bmp
234.72	0.72	317	2	8	100	mem	lib	mod	mod	mod	nt	ht	nh/0629_nh.bmp
235.44	0.72	318	5	6	75	mem	con	mod	mod	mod	tg	ht	wh/0275.bmp
236.16	0.72	319	1	7	1	mem	con	low	low	low	nt	ms	nh/0005_nh.bmp
236.88	0.72	320	3	7	80	mem	con	mod	mod	low	tg	ms	wh/1019.bmp
237.60	0.72	321	3	6	42	per	lib	low	mod	low	tg	ht	wh/0253.bmp
238.32	0.72	322	2	8	76	per	lib	low	mod	low	nt	cr	nh/0578_nh.bmp
239.04	0.72	323	2	7	93	per	con	low	mod	low	nt	cr	nh/1004_nh.bmp
239.76	0.72	324	5	6	48	per	lib	low	mod	low	tg	ht	wh/0883.bmp
240.48	0.72	325	1	5	92	per	lib	low	low	low	tg	ht	wh/0636.bmp
241.20	0.72	326	2	6	101	per	con	mod	mod	mod	tg	ht	wh/0735.bmp
241.92	0.72	327	3	6	7	per	con	low	mod	low	tg	ms	wh/0394.bmp
242.64	0.72	328	3	6	118	mem	lib	mod	mod	low	tg	ht	wh/0450.bmp
243.36	0.72	329	2	7	112	mem	lib	mod	mod	low	nt	ht	nh/0111_nh.bmp
244.08	0.72	330	4	5	108	per	lib	mod	mod	mod	nt	fa	nh/0441_nh.bmp
244.80	0.72	331	2	6	110	per	con	mod	mod	mod	nt	cr	nh/0086_nh.bmp
245.52	0.72	332	3	7	78	mem	con	mod	mod	low	tg	ms	wh/0892.bmp
246.24	0.72	333	1	7	48	per	lib	low	low	low	nt	fa	nh/0880_nh.bmp
246.96	0.72	334	1	6	3	per	con	low	mod	low	tg	ht	wh/0453.bmp
247.68	0.72	335	3	7	69	mem	con	mod	mod	low	nt	ms	nh/0678_nh.bmp
248.40	0.72	336	2	5	97	per	lib	mod	mod	mod	tg	ht	wh/0958.bmp
249.12	0.72	337	2	5	31	mem	lib	mod	mod	mod	nt	ht	nh/0300_nh.bmp
249.84	0.72	338	4	5	101	per	lib	mod	mod	mod	tg	ht	wh/0686.bmp
250.56	0.72	339	2	6	111	per	con	mod	mod	mod	nt	cr	nh/0564_nh.bmp
251.28	0.72	340	4	8	109	mem	lib	mod	mod	mod	tg	ht	wh/0549.bmp
252.00	0.72	341	1	6	102	per	con	mod	mod	mod	nt	cr	nh/0318_nh.bmp
252.72	0.72	342	3	7	31	per	lib	mod	mod	mod	tg	ht	wh/0602.bmp
253.44	0.72	343	3	6	108	per	con	mod	mod	mod	tg	ht	wh/0778.bmp
254.16	0.72	344	2	6	115	mem	lib	mod	mod	low	tg	ht	wh/0388.bmp
254.88	0.72	345	2	6	15	per	con	low	mod	low	nt	cr	nh/0248_nh.bmp
255.60	0.72	346	2	7	30	per	lib	mod	mod	mod	nt	fa	nh/0495_nh.bmp
256.32	0.72	347	2	8	107	mem	lib	mod	mod	mod	nt	ht	nh/0179_nh.bmp
257.04	0.72	348	2	7	71	mem	con	mod	mod	low	tg	ms	wh/0986.bmp
257.76	0.72	349	1	7	83	per	con	low	mod	low	tg	ht	wh/0582.bmp
258.48	0.72	350	4	7	86	per	con	low	mod	low	nt	fa	nh/0875_nh.bmp
259.20	0.72	351	3	5	68	mem	con	mod	mod	low	nt	ms	nh/0734_nh.bmp
259.92	0.72	352	4	6	80	mem	con	mod	mod	mod	nt	ms	nh/0968_nh.bmp
260.64	0.72	353	3	7	28	per	lib	mod	mod	mod	tg	ht	wh/0871.bmp
261.36	0.72	354	5	7	86	per	con	low	mod	low	nt	fa	nh/0875_nh.bmp
262.08	0.72	355	1	5	27	mem	lib	mod	mod	mod	nt	ms	nh/0852_nh.bmp
262.80	0.72	356	1	8	24	mem	con	low	low	mod	nt	ms	nh/0779_nh.bmp
263.52	0.72	357	2	8	70	per	lib	low	mod	low	tg	ms	wh/0746.bmp
264.24	0.72	358	2	8	77	per	lib	low	mod	low	nt	fa	nh/0165_nh.bmp
264.96	0.72	359	3	5	26	mem	lib	mod	mod	mod	tg	ht	wh/0552.bmp
265.68	0.72	360	2	6	12	per	con	low	mod	low	nt	cr	nh/0814_nh.bmp
266.40	0.72	361	3	8	81	mem	con	mod	mod	mod	nt	n/a	nh/0952_nh.bmp
267.12	0.72	362	2	5	27	mem	lib	mod	mod	mod	nt	ms	nh/0852_nh.bmp
267.84	0.72	363	5	8	109	mem	lib	mod	mod	mod	tg	ht	wh/0549.bmp
268.56	0.72	364	2	6	127	mem	lib	mod	mod	low	nt	ht	nh/0848_nh.bmp
269.28	0.72	365	3	7	92	per	con	low	mod	low	nt	cr	nh/0574_nh.bmp
270.00	0.72	366	3	7	91	per	con	low	mod	low	tg	ms	wh/0820.bmp
270.72	0.72	367	4	5	22	mem	lib	mod	mod	mod	tg	ht	wh/0763.bmp
271.44	0.72	368	4	6	42	per	lib	low	mod	low	tg	ht	wh/0253.bmp
272.16	0.72	369	1	8	1	per	con	low	low	low	tg	ms	wh/0767.bmp
272.88	0.72	370	1	5	111	per	lib	mod	mod	mod	nt	cr	nh/0294_nh.bmp
273.60	0.72	371	1	5	36	per	con	mod	low	mod	tg	ht	wh/0221.bmp
274.32	0.72	372	2	7	108	mem	lib	mod	mod	low	tg	ht	wh/0012.bmp
275.04	0.72	373	3	8	108	mem	lib	mod	mod	mod	tg	ht	wh/0436.bmp
275.76	0.72	374	3	5	105	per	lib	mod	mod	mod	nt	cr	nh/0060_nh.bmp
276.48	0.72	375	1	6	55	per	lib	mod	low	mod	nt	fa	nh/0673_nh.bmp
277.20	0.72	376	3	7	17	per	lib	mod	mod	mod	tg	ht	wh/0609.bmp
277.92	0.72	377	3	6	125	mem	lib	mod	mod	low	tg	ht	wh/0172.bmp
278.64	0.72	378	1	8	26	mem	con	low	low	mod	tg	ms	wh/0093.bmp
279.36	0.72	379	1	6	6	per	con	low	mod	low	tg	ms	wh/0401.bmp
280.08	0.72	380	1	7	7	mem	con	low	low	low	tg	ms	wh/0224.bmp
280.80	0.72	381	3	7	71	mem	con	mod	mod	low	tg	ms	wh/0986.bmp
281.52	0.72	382	1	7	90	per	con	low	mod	low	tg	ms	wh/0491.bmp
282.24	0.72	383	4	6	120	mem	lib	mod	mod	low	nt	ht	nh/0939_nh.bmp
282.96	0.72	384	2	8	82	mem	con	mod	mod	mod	tg	ms	wh/0694.bmp
283.68	0.72	385	3	5	72	mem	con	mod	mod	low	nt	ms	nh/0247_nh.bmp
284.40	0.72	386	2	8	110	mem	lib	mod	mod	mod	tg	ht	wh/0822.bmp
285.12	0.72	387	3	5	97	per	lib	mod	mod	mod	tg	ht	wh/0958.bmp
285.84	0.72	388	3	8	76	per	lib	low	mod	low	nt	cr	nh/0578_nh.bmp
286.56	0.72	389	5	7	105	mem	lib	mod	mod	low	tg	ht	wh/0254.bmp
287.28	0.72	390	2	6	106	per	con	mod	mod	mod	nt	cr	nh/0835_nh.bmp
288.00	0.72	391	2	7	83	per	con	low	mod	low	tg	ht	wh/0582.bmp
288.72	0.72	392	2	5	29	mem	lib	mod	mod	mod	nt	ht	nh/0832_nh.bmp
289.44	0.72	393	1	6	64	per	lib	mod	low	mod	tg	ms	wh/0091.bmp
290.16	0.72	394	1	7	116	mem	lib	low	low	mod	tg	ht	wh/0037.bmp
290.88	0.72	395	1	5	4	per	con	low	low	low	nt	cr	nh/0285_nh.bmp
291.60	0.72	396	2	7	77	mem	con	mod	mod	low	tg	ms	wh/0170.bmp
292.32	0.72	397	3	6	9	per	con	low	mod	low	tg	ms	wh/0756.bmp
293.04	0.72	398	2	6	11	per	con	low	mod	low	nt	fa	nh/0114_nh.bmp
293.76	0.72	399	2	5	24	mem	lib	mod	mod	mod	tg	ms	wh/0544.bmp
294.48	0.72	400	4	7	88	per	con	low	mod	low	tg	ms	wh/0073.bmp
295.20	0.72	401	4	6	10	per	con	low	mod	low	nt	cr	nh/0176_nh.bmp
295.92	0.72	402	1	5	81	per	lib	low	low	low	tg	ht	wh/0728.bmp
296.64	0.72	403	3	7	83	per	con	low	mod	low	tg	ht	wh/0582.bmp
297.36	0.72	404	1	5	119	mem	con	low	low	mod	nt	ms	nh/0373_nh.bmp
298.08	0.72	405	3	8	100	mem	lib	mod	mod	mod	nt	ht	nh/0629_nh.bmp
298.80	0.72	406	1	5	62	mem	lib	low	low	low	nt	ms	nh/0587_nh.bmp
299.52	0.72	407	3	6	11	per	con	low	mod	low	nt	fa	nh/0114_nh.bmp
300.24	0.72	408	1	5	41	per	con	mod	low	mod	nt	cr	nh/0381_nh.bmp
300.96	0.72	409	3	8	93	mem	con	mod	mod	mod	tg	ms	wh/0603.bmp
301.68	0.72	410	1	8	51	per	lib	mod	low	mod	tg	ht	wh/0631.bmp
302.40	0.72	411	3	8	110	mem	lib	mod	mod	mod	tg	ht	wh/0822.bmp
303.12	0.72	412	1	6	58	per	lib	mod	low	mod	tg	ht	wh/0416.bmp
303.84	0.72	413	5	8	106	mem	lib	mod	mod	mod	nt	ht	nh/0056_nh.bmp
304.56	0.72	414	4	7	27	per	lib	mod	mod	mod	nt	cr	nh/0715_nh.bmp
305.28	0.72	415	2	8	101	mem	lib	mod	mod	mod	tg	ht	wh/0971.bmp
306.00	0.72	416	3	6	97	per	con	mod	mod	mod	tg	ms	wh/0385.bmp
306.72	0.72	417	3	6	72	mem	con	mod	mod	mod	tg	ht	wh/0638.bmp
307.44	0.72	418	2	5	112	per	lib	mod	mod	mod	tg	ht	wh/0420.bmp
308.16	0.72	419	4	7	69	mem	con	mod	mod	low	nt	ms	nh/0678_nh.bmp
308.88	0.72	420	3	6	12	per	con	low	mod	low	nt	cr	nh/0814_nh.bmp
309.60	0.72	421	1	6	19	mem	lib	low	low	mod	tg	ht	wh/0349.bmp
310.32	0.72	422	2	6	70	mem	con	mod	mod	mod	nt	ms	nh/0590_nh.bmp
311.04	0.72	423	4	7	80	mem	con	mod	mod	low	tg	ms	wh/1019.bmp
311.76	0.72	424	3	8	107	mem	lib	mod	mod	mod	nt	ht	nh/0179_nh.bmp
312.48	0.72	425	1	6	26	mem	lib	low	low	mod	nt	ht	nh/0046_nh.bmp
313.20	0.72	426	4	6	9	per	con	low	mod	low	tg	ms	wh/0756.bmp
313.92	0.72	427	1	8	117	mem	lib	low	low	low	nt	ht	nh/0175_nh.bmp
314.64	0.72	428	4	5	102	per	lib	mod	mod	mod	tg	ht	wh/0546.bmp
315.36	0.72	429	4	5	75	mem	con	mod	mod	low	nt	ms	nh/0647_nh.bmp
316.08	0.72	430	5	5	66	mem	con	mod	mod	low	tg	ms	wh/0143.bmp
316.80	0.72	431	4	8	81	mem	con	mod	mod	mod	nt	n/a	nh/0952_nh.bmp
317.52	0.72	432	4	7	31	per	lib	mod	mod	mod	tg	ht	wh/0602.bmp
318.24	0.72	433	6	7	105	mem	lib	mod	mod	low	tg	ht	wh/0254.bmp
318.96	0.72	434	3	6	47	per	lib	low	mod	low	nt	fa	nh/0024_nh.bmp
319.68	0.72	435	5	7	55	per	con	mod	mod	mod	nt	cr	nh/0623_nh.bmp
320.40	0.72	436	3	5	24	mem	lib	mod	mod	mod	tg	ms	wh/0544.bmp
321.12	0.72	437	4	8	79	per	lib	low	mod	low	tg	ht	wh/0793.bmp
321.84	0.72	438	4	6	124	mem	lib	mod	mod	low	tg	ht	wh/0521.bmp
322.56	0.72	439	2	7	97	mem	lib	mod	mod	low	nt	ht	nh/0064_nh.bmp
323.28	0.72	440	1	5	59	mem	lib	low	low	low	nt	ht	nh/0089_nh.bmp
324.00	0.72	441	4	6	72	mem	con	mod	mod	mod	tg	ht	wh/0638.bmp
324.72	0.72	442	3	5	31	mem	lib	mod	mod	mod	nt	ht	nh/0300_nh.bmp
325.44	0.72	443	5	5	75	mem	con	mod	mod	low	nt	ms	nh/0647_nh.bmp
326.16	0.72	444	1	5	50	mem	lib	low	low	low	tg	ht	wh/0202.bmp
326.88	0.72	445	3	6	111	per	con	mod	mod	mod	nt	cr	nh/0564_nh.bmp
327.60	0.72	446	6	7	86	per	con	low	mod	low	nt	fa	nh/0875_nh.bmp
328.32	0.72	447	5	6	80	mem	con	mod	mod	mod	nt	ms	nh/0968_nh.bmp
329.04	0.72	448	3	7	112	mem	lib	mod	mod	low	nt	ht	nh/0111_nh.bmp
329.76	0.72	449	4	6	11	per	con	low	mod	low	nt	fa	nh/0114_nh.bmp
330.48	0.72	450	5	5	101	per	lib	mod	mod	mod	tg	ht	wh/0686.bmp
331.20	0.72	451	4	8	65	per	lib	low	mod	low	nt	fa	nh/0374_nh.bmp
331.92	0.72	452	4	7	17	per	lib	mod	mod	mod	tg	ht	wh/0609.bmp
332.64	0.72	453	2	6	73	mem	con	mod	mod	mod	tg	ht	wh/0821.bmp
333.36	0.72	454	3	6	106	per	con	mod	mod	mod	nt	cr	nh/0835_nh.bmp
334.08	0.72	455	3	7	74	mem	con	mod	mod	low	nt	n/a	nh/0018_nh.bmp
334.80	0.72	456	4	5	24	mem	lib	mod	mod	mod	tg	ms	wh/0544.bmp
335.52	0.72	457	4	5	20	mem	lib	mod	mod	mod	tg	ht	wh/0978.bmp
336.24	0.72	458	5	7	88	per	con	low	mod	low	tg	ms	wh/0073.bmp
336.96	0.72	459	4	8	100	mem	lib	mod	mod	mod	nt	ht	nh/0629_nh.bmp
337.68	0.72	460	5	7	62	per	con	mod	mod	mod	nt	cr	nh/0337_nh.bmp
338.40	0.72	461	2	7	49	per	con	mod	mod	mod	nt	cr	nh/0560_nh.bmp
339.12	0.72	462	4	5	105	per	lib	mod	mod	mod	nt	cr	nh/0060_nh.bmp
339.84	0.72	463	1	6	92	mem	con	low	low	low	nt	ms	nh/0041_nh.bmp
340.56	0.72	464	1	8	88	mem	con	mod	mod	mod	nt	ms	nh/0020_nh.bmp
341.28	0.72	465	1	5	61	mem	lib	low	low	low	tg	ms	wh/0226.bmp
342.00	0.72	466	3	8	82	mem	con	mod	mod	mod	tg	ms	wh/0694.bmp
342.72	0.72	467	6	5	101	per	lib	mod	mod	mod	tg	ht	wh/0686.bmp
343.44	0.72	468	5	5	108	per	lib	mod	mod	mod	nt	fa	nh/0441_nh.bmp
344.16	0.72	469	4	6	111	per	con	mod	mod	mod	nt	cr	nh/0564_nh.bmp
344.88	0.72	470	4	8	107	mem	lib	mod	mod	mod	nt	ht	nh/0179_nh.bmp
345.60	0.72	471	5	8	100	mem	lib	mod	mod	mod	nt	ht	nh/0629_nh.bmp
346.32	0.72	472	3	8	86	mem	con	mod	mod	mod	tg	ht	wh/0239.bmp
347.04	0.72	473	3	5	112	per	lib	mod	mod	mod	tg	ht	wh/0420.bmp
347.76	0.72	474	3	7	93	per	con	low	mod	low	nt	cr	nh/1004_nh.bmp
348.48	0.72	475	3	6	110	per	con	mod	mod	mod	nt	cr	nh/0086_nh.bmp
349.20	0.72	476	4	5	68	mem	con	mod	mod	low	nt	ms	nh/0734_nh.bmp
349.92	0.72	477	5	6	33	per	lib	low	mod	low	nt	cr	nh/0863_nh.bmp
350.64	0.72	478	5	5	22	mem	lib	mod	mod	mod	tg	ht	wh/0763.bmp
351.36	0.72	479	4	8	93	mem	con	mod	mod	mod	tg	ms	wh/0603.bmp
352.08	0.72	480	3	7	97	mem	lib	mod	mod	low	nt	ht	nh/0064_nh.bmp
352.80	0.72	481	2	7	70	mem	con	mod	mod	low	nt	ht	nh/0023_nh.bmp
353.52	0.72	482	3	5	29	mem	lib	mod	mod	mod	nt	ht	nh/0832_nh.bmp
354.24	0.72	483	4	8	73	per	lib	low	mod	low	nt	cr	nh/0193_nh.bmp
354.96	0.72	484	1	5	14	per	con	low	low	low	tg	ms	wh/0482.bmp
355.68	0.72	485	2	8	88	mem	con	mod	mod	mod	nt	ms	nh/0020_nh.bmp
356.40	0.72	486	5	7	101	mem	lib	mod	mod	low	tg	ht	wh/0139.bmp
357.12	0.72	487	3	7	51	per	con	mod	mod	mod	tg	ms	wh/0833.bmp
357.84	0.72	488	1	8	29	mem	con	low	low	mod	tg	ms	wh/0418.bmp
358.56	0.72	489	2	6	102	per	con	mod	mod	mod	nt	cr	nh/0318_nh.bmp
359.28	0.72	490	3	6	115	mem	lib	mod	mod	low	tg	ht	wh/0388.bmp
360.00	0.72	491	4	5	112	per	lib	mod	mod	mod	tg	ht	wh/0420.bmp
360.72	0.72	492	1	7	15	mem	con	low	low	low	tg	ms	wh/0181.bmp
361.44	0.72	493	4	7	28	per	lib	mod	mod	mod	tg	ht	wh/0871.bmp
362.16	0.72	494	4	7	107	mem	lib	mod	mod	low	tg	ms	wh/0780.bmp
362.88	0.72	495	5	7	107	mem	lib	mod	mod	low	tg	ms	wh/0780.bmp
363.60	0.72	496	1	5	90	per	lib	low	low	low	nt	cr	nh/0657_nh.bmp
364.32	0.72	497	2	7	52	per	con	mod	mod	mod	tg	ht	wh/0599.bmp
365.04	0.72	498	2	6	128	mem	lib	mod	mod	low	nt	ht	nh/0042_nh.bmp
365.76	0.72	499	3	8	77	per	lib	low	mod	low	nt	fa	nh/0165_nh.bmp
366.48	0.72	500	2	5	73	mem	con	mod	mod	low	tg	ht	wh/0108.bmp
367.20	0.72	501	5	6	11	per	con	low	mod	low	nt	fa	nh/0114_nh.bmp
367.92	0.72	502	5	8	107	mem	lib	mod	mod	mod	nt	ht	nh/0179_nh.bmp
368.64	0.72	503	3	6	70	mem	con	mod	mod	mod	nt	ms	nh/0590_nh.bmp
369.36	0.72	504	6	5	108	per	lib	mod	mod	mod	nt	fa	nh/0441_nh.bmp
370.08	0.72	505	1	8	30	mem	con	low	low	mod	nt	ms	nh/0953_nh.bmp
370.80	0.72	506	5	7	28	per	lib	mod	mod	mod	tg	ht	wh/0871.bmp
371.52	0.72	507	4	7	91	per	con	low	mod	low	tg	ms	wh/0820.bmp
372.24	0.72	508	3	8	70	per	lib	low	mod	low	tg	ms	wh/0746.bmp
372.96	0.72	509	4	8	70	per	lib	low	mod	low	tg	ms	wh/0746.bmp
373.68	0.72	510	5	8	93	mem	con	mod	mod	mod	tg	ms	wh/0603.bmp
374.40	0.72	511	4	7	104	mem	lib	mod	mod	low	nt	ht	nh/1014_nh.bmp
375.12	0.72	512	4	6	74	mem	con	mod	mod	mod	nt	ht	nh/0915_nh.bmp
375.84	0.72	513	4	8	82	mem	con	mod	mod	mod	tg	ms	wh/0694.bmp
376.56	0.72	514	1	8	6	per	con	low	low	low	nt	cr	nh/0566_nh.bmp
377.28	0.72	515	5	7	80	mem	con	mod	mod	low	tg	ms	wh/1019.bmp
378.00	0.72	516	5	8	82	mem	con	mod	mod	mod	tg	ms	wh/0694.bmp
378.72	0.72	517	3	5	73	mem	con	mod	mod	low	tg	ht	wh/0108.bmp
379.44	0.72	518	3	7	49	per	con	mod	mod	mod	nt	cr	nh/0560_nh.bmp
380.16	0.72	519	5	6	9	per	con	low	mod	low	tg	ms	wh/0756.bmp
380.88	0.72	520	1	6	23	mem	lib	low	low	mod	tg	ht	wh/0839.bmp
381.60	0.72	521	6	8	100	mem	lib	mod	mod	mod	nt	ht	nh/0629_nh.bmp
382.32	0.72	522	2	7	95	per	con	low	mod	low	nt	cr	nh/0241_nh.bmp
383.04	0.72	523	5	8	74	per	lib	low	mod	low	tg	ht	wh/0403.bmp
383.76	0.72	524	2	7	56	per	con	mod	mod	mod	tg	ht	wh/0797.bmp
384.48	0.72	525	3	6	128	mem	lib	mod	mod	low	nt	ht	nh/0042_nh.bmp
385.20	0.72	526	1	6	86	mem	con	low	low	low	nt	ms	nh/0830_nh.bmp
385.92	0.72	527	5	7	69	mem	con	mod	mod	low	nt	ms	nh/0678_nh.bmp
386.64	0.72	528	3	6	73	mem	con	mod	mod	mod	tg	ht	wh/0821.bmp
387.36	0.72	529	4	5	97	per	lib	mod	mod	mod	tg	ht	wh/0958.bmp
388.08	0.72	530	6	6	48	per	lib	low	mod	low	tg	ht	wh/0883.bmp
388.80	0.72	531	3	7	30	per	lib	mod	mod	mod	nt	fa	nh/0495_nh.bmp
389.52	0.72	532	3	8	88	mem	con	mod	mod	mod	nt	ms	nh/0020_nh.bmp
390.24	0.72	533	5	6	10	per	con	low	mod	low	nt	cr	nh/0176_nh.bmp
390.96	0.72	534	1	8	89	mem	con	mod	mod	mod	nt	ms	nh/0717_nh.bmp
391.68	0.72	535	5	8	65	per	lib	low	mod	low	nt	fa	nh/0374_nh.bmp
392.40	0.72	536	5	7	91	per	con	low	mod	low	tg	ms	wh/0820.bmp
393.12	0.72	537	1	5	34	per	con	mod	low	mod	tg	ht	wh/0372.bmp
393.84	0.72	538	3	6	15	per	con	low	mod	low	nt	cr	nh/0248_nh.bmp
394.56	0.72	539	4	5	72	mem	con	mod	mod	low	nt	ms	nh/0247_nh.bmp
395.28	0.72	540	5	5	68	mem	con	mod	mod	low	nt	ms	nh/0734_nh.bmp
396.00	0.72	541	5	8	81	mem	con	mod	mod	mod	nt	n/a	nh/0952_nh.bmp
396.72	0.72	542	4	6	35	per	lib	low	mod	low	tg	ms	wh/0157.bmp
397.44	0.72	543	1	5	51	mem	lib	low	low	low	tg	ht	wh/1011.bmp
398.16	0.72	544	3	6	102	per	con	mod	mod	mod	nt	cr	nh/0318_nh.bmp
398.88	0.72	545	4	7	112	mem	lib	mod	mod	low	nt	ht	nh/0111_nh.bmp
399.60	0.72	546	3	7	108	mem	lib	mod	mod	low	tg	ht	wh/0012.bmp
400.32	0.72	547	5	5	97	per	lib	mod	mod	mod	tg	ht	wh/0958.bmp
401.04	0.72	548	4	5	31	mem	lib	mod	mod	mod	nt	ht	nh/0300_nh.bmp
401.76	0.72	549	4	6	77	mem	con	mod	mod	mod	nt	ht	nh/0827_nh.bmp
402.48	0.72	550	5	8	79	per	lib	low	mod	low	tg	ht	wh/0793.bmp
403.20	0.72	551	3	6	71	mem	con	mod	mod	mod	tg	ms	wh/0666.bmp
403.92	0.72	552	4	7	92	per	con	low	mod	low	nt	cr	nh/0574_nh.bmp
404.64	0.72	553	4	8	86	mem	con	mod	mod	mod	tg	ht	wh/0239.bmp
405.36	0.72	554	4	7	51	per	con	mod	mod	mod	tg	ms	wh/0833.bmp
406.08	0.72	555	4	7	49	per	con	mod	mod	mod	nt	cr	nh/0560_nh.bmp
406.80	0.72	556	3	5	104	per	lib	mod	mod	mod	nt	cr	nh/0888_nh.bmp
407.52	0.72	557	1	8	23	mem	con	low	low	mod	nt	ms	nh/0308_nh.bmp
408.24	0.72	558	5	5	30	mem	lib	mod	mod	mod	nt	ms	nh/0586_nh.bmp
408.96	0.72	559	3	5	70	mem	con	mod	mod	low	tg	ms	wh/0262.bmp
409.68	0.72	560	5	7	103	mem	lib	mod	mod	low	nt	ht	nh/0640_nh.bmp
410.40	0.72	561	6	8	65	per	lib	low	mod	low	nt	fa	nh/0374_nh.bmp
411.12	0.72	562	4	6	117	mem	lib	mod	mod	low	nt	ht	nh/0255_nh.bmp
411.84	0.72	563	5	7	51	per	con	mod	mod	mod	tg	ms	wh/0833.bmp
412.56	0.72	564	4	6	106	per	con	mod	mod	mod	nt	cr	nh/0835_nh.bmp
413.28	0.72	565	2	6	3	per	con	low	mod	low	tg	ht	wh/0453.bmp
414.00	0.72	566	6	6	33	per	lib	low	mod	low	nt	cr	nh/0863_nh.bmp
414.72	0.72	567	3	6	127	mem	lib	mod	mod	low	nt	ht	nh/0848_nh.bmp
415.44	0.72	568	1	8	124	mem	lib	low	low	low	nt	ht	nh/0825_nh.bmp
416.16	0.72	569	3	5	76	mem	con	mod	mod	low	nt	ms	nh/0164_nh.bmp
416.88	0.72	570	4	8	77	per	lib	low	mod	low	nt	fa	nh/0165_nh.bmp
417.60	0.72	571	4	6	110	per	con	mod	mod	mod	nt	cr	nh/0086_nh.bmp
418.32	0.72	572	1	7	3	mem	con	low	low	low	nt	ms	nh/0219_nh.bmp
419.04	0.72	573	4	7	83	per	con	low	mod	low	tg	ht	wh/0582.bmp
419.76	0.72	574	5	8	77	per	lib	low	mod	low	nt	fa	nh/0165_nh.bmp
420.48	0.72	575	4	8	110	mem	lib	mod	mod	mod	tg	ht	wh/0822.bmp
421.20	0.72	576	2	6	41	per	lib	low	mod	low	nt	cr	nh/0519_nh.bmp
421.92	0.72	577	2	6	6	per	con	low	mod	low	tg	ms	wh/0401.bmp
422.64	0.72	578	2	7	90	per	con	low	mod	low	tg	ms	wh/0491.bmp
423.36	0.72	579	3	7	52	per	con	mod	mod	mod	tg	ht	wh/0599.bmp
424.08	0.72	580	1	6	85	mem	con	low	low	low	nt	ms	nh/0198_nh.bmp
424.80	0.72	581	1	8	22	mem	con	low	low	mod	tg	ms	wh/0951.bmp
425.52	0.72	582	4	6	115	mem	lib	mod	mod	low	tg	ht	wh/0388.bmp
426.24	0.72	583	3	6	6	per	con	low	mod	low	tg	ms	wh/0401.bmp
426.96	0.72	584	6	8	109	mem	lib	mod	mod	mod	tg	ht	wh/0549.bmp
427.68	0.72	585	5	8	86	mem	con	mod	mod	mod	tg	ht	wh/0239.bmp
428.40	0.72	586	6	7	91	per	con	low	mod	low	tg	ms	wh/0820.bmp
429.12	0.72	587	5	5	31	mem	lib	mod	mod	mod	nt	ht	nh/0300_nh.bmp
429.84	0.72	588	4	7	78	mem	con	mod	mod	low	tg	ms	wh/0892.bmp
430.56	0.72	589	6	7	55	per	con	mod	mod	mod	nt	cr	nh/0623_nh.bmp
431.28	0.72	590	4	8	68	per	lib	low	mod	low	tg	ms	wh/0118.bmp
432.00	0.72	591	4	6	6	per	con	low	mod	low	tg	ms	wh/0401.bmp
432.72	0.72	592	5	7	78	mem	con	mod	mod	low	tg	ms	wh/0892.bmp
433.44	0.72	593	4	6	71	mem	con	mod	mod	mod	tg	ms	wh/0666.bmp
434.16	0.72	594	6	7	78	mem	con	mod	mod	low	tg	ms	wh/0892.bmp
434.88	0.72	595	4	6	125	mem	lib	mod	mod	low	tg	ht	wh/0172.bmp
435.60	0.72	596	3	7	90	per	con	low	mod	low	tg	ms	wh/0491.bmp
436.32	0.72	597	4	7	30	per	lib	mod	mod	mod	nt	fa	nh/0495_nh.bmp
437.04	0.72	598	1	8	44	per	con	mod	low	mod	nt	cr	nh/0907_nh.bmp
437.76	0.72	599	3	6	41	per	lib	low	mod	low	nt	cr	nh/0519_nh.bmp
438.48	0.72	600	4	6	12	per	con	low	mod	low	nt	cr	nh/0814_nh.bmp
439.20	0.72	601	3	6	45	per	lib	low	mod	low	tg	ht	wh/0297.bmp
439.92	0.72	602	1	6	24	mem	lib	low	low	mod	nt	ht	nh/0227_nh.bmp
440.64	0.72	603	5	5	112	per	lib	mod	mod	mod	tg	ht	wh/0420.bmp
441.36	0.72	604	6	7	80	mem	con	mod	mod	low	tg	ms	wh/1019.bmp
442.08	0.72	605	4	7	22	per	lib	mod	mod	mod	tg	ms	wh/0269.bmp
442.80	0.72	606	5	6	106	per	con	mod	mod	mod	nt	cr	nh/0835_nh.bmp
443.52	0.72	607	5	6	6	per	con	low	mod	low	tg	ms	wh/0401.bmp
444.24	0.72	608	4	6	128	mem	lib	mod	mod	low	nt	ht	nh/0042_nh.bmp
444.96	0.72	609	4	6	38	per	lib	low	mod	low	nt	fa	nh/0612_nh.bmp
445.68	0.72	610	5	7	24	per	lib	mod	mod	mod	nt	cr	nh/0764_nh.bmp
446.40	0.72	611	4	5	104	per	lib	mod	mod	mod	nt	cr	nh/0888_nh.bmp
447.12	0.72	612	4	7	67	mem	con	mod	mod	low	nt	ms	nh/0618_nh.bmp
447.84	0.72	613	1	8	49	per	lib	mod	low	mod	nt	fa	nh/0840_nh.bmp
448.56	0.72	614	1	6	49	per	lib	mod	low	mod	nt	cr	nh/0663_nh.bmp
449.28	0.72	615	5	7	67	mem	con	mod	mod	low	nt	ms	nh/0618_nh.bmp
450.00	0.72	616	5	6	124	mem	lib	mod	mod	low	tg	ht	wh/0521.bmp
450.72	0.72	617	2	5	111	per	lib	mod	mod	mod	nt	cr	nh/0294_nh.bmp
451.44	0.72	618	1	8	14	per	con	low	low	low	tg	ms	wh/0480.bmp
452.16	0.72	619	1	6	93	mem	con	low	low	low	tg	ms	wh/0990.bmp
452.88	0.72	620	5	7	49	per	con	mod	mod	mod	nt	cr	nh/0560_nh.bmp
453.60	0.72	621	4	6	41	per	lib	low	mod	low	nt	cr	nh/0519_nh.bmp
454.32	0.72	622	4	7	71	mem	con	mod	mod	low	tg	ms	wh/0986.bmp
455.04	0.72	623	5	6	74	mem	con	mod	mod	mod	nt	ht	nh/0915_nh.bmp
455.76	0.72	624	5	8	73	per	lib	low	mod	low	nt	cr	nh/0193_nh.bmp
456.48	0.72	625	4	6	97	per	con	mod	mod	mod	tg	ms	wh/0385.bmp
457.20	0.72	626	3	6	101	per	con	mod	mod	mod	tg	ht	wh/0735.bmp
457.92	0.72	627	1	5	64	mem	lib	low	low	low	tg	ht	wh/0058.bmp
458.64	0.72	628	3	5	74	mem	con	mod	mod	low	tg	ms	wh/0249.bmp
459.36	0.72	629	6	8	74	per	lib	low	mod	low	tg	ht	wh/0403.bmp
460.08	0.72	630	5	6	115	mem	lib	mod	mod	low	tg	ht	wh/0388.bmp
460.80	0.72	631	3	7	56	per	con	mod	mod	mod	tg	ht	wh/0797.bmp
461.52	0.72	632	6	5	97	per	lib	mod	mod	mod	tg	ht	wh/0958.bmp
462.24	0.72	633	4	7	97	mem	lib	mod	mod	low	nt	ht	nh/0064_nh.bmp
462.96	0.72	634	5	6	42	per	lib	low	mod	low	tg	ht	wh/0253.bmp
463.68	0.72	635	5	5	105	per	lib	mod	mod	mod	nt	cr	nh/0060_nh.bmp
464.40	0.72	636	3	7	70	mem	con	mod	mod	low	nt	ht	nh/0023_nh.bmp
465.12	0.72	637	4	5	70	mem	con	mod	mod	low	tg	ms	wh/0262.bmp
465.84	0.72	638	5	8	70	per	lib	low	mod	low	tg	ms	wh/0746.bmp
466.56	0.72	639	4	6	15	per	con	low	mod	low	nt	cr	nh/0248_nh.bmp
467.28	0.72	640	4	7	56	per	con	mod	mod	mod	tg	ht	wh/0797.bmp
468.00	0.72	641	4	5	26	mem	lib	mod	mod	mod	tg	ht	wh/0552.bmp
468.72	0.72	642	5	7	112	mem	lib	mod	mod	low	nt	ht	nh/0111_nh.bmp
469.44	0.72	643	6	7	112	mem	lib	mod	mod	low	nt	ht	nh/0111_nh.bmp
470.16	0.72	644	5	5	26	mem	lib	mod	mod	mod	tg	ht	wh/0552.bmp
470.88	0.72	645	5	7	71	mem	con	mod	mod	low	tg	ms	wh/0986.bmp
471.60	0.72	646	6	7	69	mem	con	mod	mod	low	nt	ms	nh/0678_nh.bmp
472.32	0.72	647	4	6	108	per	con	mod	mod	mod	tg	ht	wh/0778.bmp
473.04	0.72	648	3	7	77	mem	con	mod	mod	low	tg	ms	wh/0170.bmp
473.76	0.72	649	5	5	104	per	lib	mod	mod	mod	nt	cr	nh/0888_nh.bmp
474.48	0.72	650	5	6	35	per	lib	low	mod	low	tg	ms	wh/0157.bmp
475.20	0.72	651	5	7	56	per	con	mod	mod	mod	tg	ht	wh/0797.bmp
475.92	0.72	652	4	6	101	per	con	mod	mod	mod	tg	ht	wh/0735.bmp
476.64	0.72	653	4	6	70	mem	con	mod	mod	mod	nt	ms	nh/0590_nh.bmp
477.36	0.72	654	5	6	128	mem	lib	mod	mod	low	nt	ht	nh/0042_nh.bmp
478.08	0.72	655	4	7	64	per	con	mod	mod	mod	nt	cr	nh/0995_nh.bmp
478.80	0.72	656	6	7	51	per	con	mod	mod	mod	tg	ms	wh/0833.bmp
479.52	0.72	657	1	5	116	mem	con	low	low	mod	tg	ms	wh/0402.bmp
480.24	0.72	658	5	7	83	per	con	low	mod	low	tg	ht	wh/0582.bmp
480.96	0.72	659	5	7	22	per	lib	mod	mod	mod	tg	ms	wh/0269.bmp
481.68	0.72	660	6	8	82	mem	con	mod	mod	mod	tg	ms	wh/0694.bmp
482.40	0.72	661	1	8	115	mem	lib	low	low	low	tg	ms	wh/0842.bmp
483.12	0.72	662	2	8	89	mem	con	mod	mod	mod	nt	ms	nh/0717_nh.bmp
483.84	0.72	663	5	5	72	mem	con	mod	mod	low	nt	ms	nh/0247_nh.bmp
484.56	0.72	664	6	5	104	per	lib	mod	mod	mod	nt	cr	nh/0888_nh.bmp
485.28	0.72	665	4	7	77	mem	con	mod	mod	low	tg	ms	wh/0170.bmp
486.00	0.72	666	5	7	20	per	lib	mod	mod	mod	nt	cr	nh/0851_nh.bmp
486.72	0.72	667	4	8	92	mem	con	mod	mod	mod	tg	ms	wh/0556.bmp
487.44	0.72	668	5	7	27	per	lib	mod	mod	mod	nt	cr	nh/0715_nh.bmp
488.16	0.72	669	5	7	17	per	lib	mod	mod	mod	tg	ht	wh/0609.bmp
488.88	0.72	670	4	7	90	per	con	low	mod	low	tg	ms	wh/0491.bmp
489.60	0.72	671	5	6	125	mem	lib	mod	mod	low	tg	ht	wh/0172.bmp
490.32	0.72	672	6	5	26	mem	lib	mod	mod	mod	tg	ht	wh/0552.bmp
491.04	0.72	673	4	5	73	mem	con	mod	mod	low	tg	ht	wh/0108.bmp
491.76	0.72	674	4	7	74	mem	con	mod	mod	low	nt	n/a	nh/0018_nh.bmp
492.48	0.72	675	6	7	71	mem	con	mod	mod	low	tg	ms	wh/0986.bmp
493.20	0.72	676	4	7	108	mem	lib	mod	mod	low	tg	ht	wh/0012.bmp
493.92	0.72	677	4	6	45	per	lib	low	mod	low	tg	ht	wh/0297.bmp
494.64	0.72	678	6	7	49	per	con	mod	mod	mod	nt	cr	nh/0560_nh.bmp
495.36	0.72	679	4	6	7	per	con	low	mod	low	tg	ms	wh/0394.bmp
496.08	0.72	680	5	7	74	mem	con	mod	mod	low	nt	n/a	nh/0018_nh.bmp
496.80	0.72	681	6	6	42	per	lib	low	mod	low	tg	ht	wh/0253.bmp
497.52	0.72	682	5	8	68	per	lib	low	mod	low	tg	ms	wh/0118.bmp
498.24	0.72	683	5	5	102	per	lib	mod	mod	mod	tg	ht	wh/0546.bmp
498.96	0.72	684	3	7	95	per	con	low	mod	low	nt	cr	nh/0241_nh.bmp
499.68	0.72	685	5	6	120	mem	lib	mod	mod	low	nt	ht	nh/0939_nh.bmp
500.40	0.72	686	6	7	24	per	lib	mod	mod	mod	nt	cr	nh/0764_nh.bmp
501.12	0.72	687	6	7	107	mem	lib	mod	mod	low	tg	ms	wh/0780.bmp
501.84	0.72	688	5	6	101	per	con	mod	mod	mod	tg	ht	wh/0735.bmp
502.56	0.72	689	6	7	101	mem	lib	mod	mod	low	tg	ht	wh/0139.bmp
503.28	0.72	690	1	7	36	per	lib	low	low	low	tg	ms	wh/0244.bmp
504.00	0.72	691	3	8	89	mem	con	mod	mod	mod	nt	ms	nh/0717_nh.bmp
504.72	0.72	692	6	6	75	mem	con	mod	mod	mod	tg	ht	wh/0275.bmp
505.44	0.72	693	4	8	88	mem	con	mod	mod	mod	nt	ms	nh/0020_nh.bmp
506.16	0.72	694	6	7	62	per	con	mod	mod	mod	nt	cr	nh/0337_nh.bmp
506.88	0.72	695	6	5	31	mem	lib	mod	mod	mod	nt	ht	nh/0300_nh.bmp
507.60	0.72	696	1	6	62	per	lib	mod	low	mod	nt	cr	nh/0732_nh.bmp
508.32	0.72	697	4	7	63	per	con	mod	mod	mod	tg	ms	wh/0408.bmp
509.04	0.72	698	6	5	68	mem	con	mod	mod	low	nt	ms	nh/0734_nh.bmp
509.76	0.72	699	6	6	9	per	con	low	mod	low	tg	ms	wh/0756.bmp
510.48	0.72	700	5	6	77	mem	con	mod	mod	mod	nt	ht	nh/0827_nh.bmp
511.20	0.72	701	4	5	76	mem	con	mod	mod	low	nt	ms	nh/0164_nh.bmp
511.92	0.72	702	5	6	71	mem	con	mod	mod	mod	tg	ms	wh/0666.bmp
512.64	0.72	703	4	8	76	per	lib	low	mod	low	nt	cr	nh/0578_nh.bmp
513.36	0.72	704	6	7	17	per	lib	mod	mod	mod	tg	ht	wh/0609.bmp
514.08	0.72	705	6	8	70	per	lib	low	mod	low	tg	ms	wh/0746.bmp
514.80	0.72	706	6	8	93	mem	con	mod	mod	mod	tg	ms	wh/0603.bmp
515.52	0.72	707	1	8	21	mem	con	low	low	mod	tg	ms	wh/0188.bmp
516.24	0.72	708	3	8	101	mem	lib	mod	mod	mod	tg	ht	wh/0971.bmp
516.96	0.72	709	3	6	3	per	con	low	mod	low	tg	ht	wh/0453.bmp
517.68	0.72	710	5	7	63	per	con	mod	mod	mod	tg	ms	wh/0408.bmp
518.40	0.72	711	5	6	111	per	con	mod	mod	mod	nt	cr	nh/0564_nh.bmp
519.12	0.72	712	5	6	41	per	lib	low	mod	low	nt	cr	nh/0519_nh.bmp
519.84	0.72	713	6	6	10	per	con	low	mod	low	nt	cr	nh/0176_nh.bmp
520.56	0.72	714	6	8	107	mem	lib	mod	mod	mod	nt	ht	nh/0179_nh.bmp
521.28	0.72	715	6	7	20	per	lib	mod	mod	mod	nt	cr	nh/0851_nh.bmp
522.00	0.72	716	1	7	44	per	lib	low	low	low	nt	cr	nh/0280_nh.bmp
522.72	0.72	717	3	5	27	mem	lib	mod	mod	mod	nt	ms	nh/0852_nh.bmp
523.44	0.72	718	5	6	110	per	con	mod	mod	mod	nt	cr	nh/0086_nh.bmp
524.16	0.72	719	4	6	3	per	con	low	mod	low	tg	ht	wh/0453.bmp
524.88	0.72	720	6	5	30	mem	lib	mod	mod	mod	nt	ms	nh/0586_nh.bmp
525.60	0.72	721	5	8	110	mem	lib	mod	mod	mod	tg	ht	wh/0822.bmp
526.32	0.72	722	6	8	81	mem	con	mod	mod	mod	nt	n/a	nh/0952_nh.bmp
527.04	0.72	723	4	8	108	mem	lib	mod	mod	mod	tg	ht	wh/0436.bmp
527.76	0.72	724	5	8	92	mem	con	mod	mod	mod	tg	ms	wh/0556.bmp
528.48	0.72	725	4	5	74	mem	con	mod	mod	low	tg	ms	wh/0249.bmp
529.20	0.72	726	5	5	76	mem	con	mod	mod	low	nt	ms	nh/0164_nh.bmp
529.92	0.72	727	5	7	30	per	lib	mod	mod	mod	nt	fa	nh/0495_nh.bmp
530.64	0.72	728	4	5	27	mem	lib	mod	mod	mod	nt	ms	nh/0852_nh.bmp
531.36	0.72	729	5	7	97	mem	lib	mod	mod	low	nt	ht	nh/0064_nh.bmp
532.08	0.72	730	6	7	97	mem	lib	mod	mod	low	nt	ht	nh/0064_nh.bmp
532.80	0.72	731	5	8	108	mem	lib	mod	mod	mod	tg	ht	wh/0436.bmp
533.52	0.72	732	6	6	111	per	con	mod	mod	mod	nt	cr	nh/0564_nh.bmp
534.24	0.72	733	6	8	106	mem	lib	mod	mod	mod	nt	ht	nh/0056_nh.bmp
534.96	0.72	734	6	8	77	per	lib	low	mod	low	nt	fa	nh/0165_nh.bmp
535.68	0.72	735	4	7	95	per	con	low	mod	low	nt	cr	nh/0241_nh.bmp
536.40	0.72	736	5	5	20	mem	lib	mod	mod	mod	tg	ht	wh/0978.bmp
537.12	0.72	737	6	5	66	mem	con	mod	mod	low	tg	ms	wh/0143.bmp
537.84	0.72	738	5	6	45	per	lib	low	mod	low	tg	ht	wh/0297.bmp
538.56	0.72	739	1	5	125	mem	con	low	low	mod	tg	ms	wh/0622.bmp
539.28	0.72	740	5	6	15	per	con	low	mod	low	nt	cr	nh/0248_nh.bmp
540.00	0.72	741	4	8	101	mem	lib	mod	mod	mod	tg	ht	wh/0971.bmp
540.72	0.72	742	3	5	111	per	lib	mod	mod	mod	nt	cr	nh/0294_nh.bmp
541.44	0.72	743	5	6	97	per	con	mod	mod	mod	tg	ms	wh/0385.bmp
542.16	0.72	744	6	6	45	per	lib	low	mod	low	tg	ht	wh/0297.bmp
542.88	0.72	745	6	5	105	per	lib	mod	mod	mod	nt	cr	nh/0060_nh.bmp
543.60	0.72	746	4	5	29	mem	lib	mod	mod	mod	nt	ht	nh/0832_nh.bmp
544.32	0.72	747	4	7	70	mem	con	mod	mod	low	nt	ht	nh/0023_nh.bmp
545.04	0.72	748	5	6	12	per	con	low	mod	low	nt	cr	nh/0814_nh.bmp
545.76	0.72	749	5	6	38	per	lib	low	mod	low	nt	fa	nh/0612_nh.bmp
546.48	0.72	750	6	6	11	per	con	low	mod	low	nt	fa	nh/0114_nh.bmp
547.20	0.72	751	5	7	95	per	con	low	mod	low	nt	cr	nh/0241_nh.bmp
547.92	0.72	752	1	8	2	per	con	low	low	low	nt	cr	nh/0268_nh.bmp
548.64	0.72	753	5	6	72	mem	con	mod	mod	mod	tg	ht	wh/0638.bmp
549.36	0.72	754	6	6	41	per	lib	low	mod	low	nt	cr	nh/0519_nh.bmp
550.08	0.72	755	4	6	47	per	lib	low	mod	low	nt	fa	nh/0024_nh.bmp
550.80	0.72	756	5	8	111	mem	lib	mod	mod	mod	nt	ht	nh/0366_nh.bmp
551.52	0.72	757	1	6	82	mem	con	low	low	low	nt	ms	nh/0022_nh.bmp
552.24	0.72	758	4	6	73	mem	con	mod	mod	mod	tg	ht	wh/0821.bmp
552.96	0.72	759	5	6	73	mem	con	mod	mod	mod	tg	ht	wh/0821.bmp
553.68	0.72	760	6	8	92	mem	con	mod	mod	mod	tg	ms	wh/0556.bmp
554.40	0.72	761	5	5	24	mem	lib	mod	mod	mod	tg	ms	wh/0544.bmp
555.12	0.72	762	6	6	71	mem	con	mod	mod	mod	tg	ms	wh/0666.bmp
555.84	0.72	763	4	8	89	mem	con	mod	mod	mod	nt	ms	nh/0717_nh.bmp
556.56	0.72	764	4	6	127	mem	lib	mod	mod	low	nt	ht	nh/0848_nh.bmp
557.28	0.72	765	5	8	101	mem	lib	mod	mod	mod	tg	ht	wh/0971.bmp
558.00	0.72	766	6	7	88	per	con	low	mod	low	tg	ms	wh/0073.bmp
558.72	0.72	767	4	6	102	per	con	mod	mod	mod	nt	cr	nh/0318_nh.bmp
559.44	0.72	768	6	6	128	mem	lib	mod	mod	low	nt	ht	nh/0042_nh.bmp
560.16	0.72	769	6	7	95	per	con	low	mod	low	nt	cr	nh/0241_nh.bmp
560.88	0.72	770	6	7	22	per	lib	mod	mod	mod	tg	ms	wh/0269.bmp
561.60	0.72	771	1	6	83	mem	con	low	low	low	tg	ms	wh/0610.bmp
562.32	0.72	772	6	7	67	mem	con	mod	mod	low	nt	ms	nh/0618_nh.bmp
563.04	0.72	773	1	5	48	per	con	mod	low	mod	nt	cr	nh/0982_nh.bmp
563.76	0.72	774	6	6	101	per	con	mod	mod	mod	tg	ht	wh/0735.bmp
564.48	0.72	775	6	7	83	per	con	low	mod	low	tg	ht	wh/0582.bmp
565.20	0.72	776	1	8	57	per	lib	mod	low	mod	tg	ht	wh/0559.bmp
565.92	0.72	777	6	6	74	mem	con	mod	mod	mod	nt	ht	nh/0915_nh.bmp
566.64	0.72	778	6	7	103	mem	lib	mod	mod	low	nt	ht	nh/0640_nh.bmp
567.36	0.72	779	6	8	110	mem	lib	mod	mod	mod	tg	ht	wh/0822.bmp
568.08	0.72	780	6	5	112	per	lib	mod	mod	mod	tg	ht	wh/0420.bmp
568.80	0.72	781	6	8	101	mem	lib	mod	mod	mod	tg	ht	wh/0971.bmp
569.52	0.72	782	5	6	102	per	con	mod	mod	mod	nt	cr	nh/0318_nh.bmp
570.24	0.72	783	1	5	42	per	con	mod	low	mod	nt	cr	nh/0395_nh.bmp
570.96	0.72	784	5	6	70	mem	con	mod	mod	mod	nt	ms	nh/0590_nh.bmp
571.68	0.72	785	6	6	115	mem	lib	mod	mod	low	tg	ht	wh/0388.bmp
572.40	0.72	786	1	5	96	per	lib	low	low	low	tg	ms	wh/0518.bmp
573.12	0.72	787	6	8	108	mem	lib	mod	mod	mod	tg	ht	wh/0436.bmp
573.84	0.72	788	5	8	91	mem	con	mod	mod	mod	nt	ms	nh/0378_nh.bmp
574.56	0.72	789	5	6	127	mem	lib	mod	mod	low	nt	ht	nh/0848_nh.bmp
575.28	0.72	790	1	8	10	per	con	low	low	low	nt	fa	nh/0135_nh.bmp
576.00	0.72	791	5	5	74	mem	con	mod	mod	low	tg	ms	wh/0249.bmp
576.72	0.72	792	6	6	6	per	con	low	mod	low	tg	ms	wh/0401.bmp
577.44	0.72	793	5	7	64	per	con	mod	mod	mod	nt	cr	nh/0995_nh.bmp
578.16	0.72	794	5	7	104	mem	lib	mod	mod	low	nt	ht	nh/1014_nh.bmp
578.88	0.72	795	6	5	76	mem	con	mod	mod	low	nt	ms	nh/0164_nh.bmp
579.60	0.72	796	6	6	72	mem	con	mod	mod	mod	tg	ht	wh/0638.bmp
580.32	0.72	797	5	5	73	mem	con	mod	mod	low	tg	ht	wh/0108.bmp
581.04	0.72	798	5	6	7	per	con	low	mod	low	tg	ms	wh/0394.bmp
581.76	0.72	799	5	8	88	mem	con	mod	mod	mod	nt	ms	nh/0020_nh.bmp
582.48	0.72	800	1	5	3	per	con	low	low	low	tg	ms	wh/0258.bmp
583.20	0.72	801	6	5	73	mem	con	mod	mod	low	tg	ht	wh/0108.bmp
583.92	0.72	802	5	7	90	per	con	low	mod	low	tg	ms	wh/0491.bmp
584.64	0.72	803	6	7	56	per	con	mod	mod	mod	tg	ht	wh/0797.bmp
585.36	0.72	804	1	5	113	mem	con	low	low	mod	nt	ms	nh/0945_nh.bmp
586.08	0.72	805	6	6	127	mem	lib	mod	mod	low	nt	ht	nh/0848_nh.bmp
586.80	0.72	806	6	7	63	per	con	mod	mod	mod	tg	ms	wh/0408.bmp
587.52	0.72	807	5	6	3	per	con	low	mod	low	tg	ht	wh/0453.bmp
588.24	0.72	808	5	5	29	mem	lib	mod	mod	mod	nt	ht	nh/0832_nh.bmp
588.96	0.72	809	5	6	108	per	con	mod	mod	mod	tg	ht	wh/0778.bmp
589.68	0.72	810	6	6	77	mem	con	mod	mod	mod	nt	ht	nh/0827_nh.bmp
590.40	0.72	811	1	6	32	mem	lib	low	low	mod	nt	ht	nh/0347_nh.bmp
591.12	0.72	812	1	6	28	mem	lib	low	low	mod	tg	ht	wh/0611.bmp
591.84	0.72	813	5	8	89	mem	con	mod	mod	mod	nt	ms	nh/0717_nh.bmp
592.56	0.72	814	6	6	124	mem	lib	mod	mod	low	tg	ht	wh/0521.bmp
593.28	0.72	815	5	7	108	mem	lib	mod	mod	low	tg	ht	wh/0012.bmp
594.00	0.72	816	1	8	5	per	con	low	low	low	nt	cr	nh/0260_nh.bmp
594.72	0.72	817	6	6	102	per	con	mod	mod	mod	nt	cr	nh/0318_nh.bmp
595.44	0.72	818	5	5	70	mem	con	mod	mod	low	tg	ms	wh/0262.bmp
596.16	0.72	819	4	7	52	per	con	mod	mod	mod	tg	ht	wh/0599.bmp
596.88	0.72	820	1	8	59	per	lib	mod	low	mod	nt	cr	nh/1008_nh.bmp
597.60	0.72	821	6	7	28	per	lib	mod	mod	mod	tg	ht	wh/0871.bmp
598.32	0.72	822	4	7	93	per	con	low	mod	low	nt	cr	nh/1004_nh.bmp
599.04	0.72	823	6	7	27	per	lib	mod	mod	mod	nt	cr	nh/0715_nh.bmp
599.76	0.72	824	6	5	75	mem	con	mod	mod	low	nt	ms	nh/0647_nh.bmp
600.48	0.72	825	6	7	108	mem	lib	mod	mod	low	tg	ht	wh/0012.bmp
601.20	0.72	826	6	6	35	per	lib	low	mod	low	tg	ms	wh/0157.bmp
601.92	0.72	827	5	7	70	mem	con	mod	mod	low	nt	ht	nh/0023_nh.bmp
602.64	0.72	828	6	7	90	per	con	low	mod	low	tg	ms	wh/0491.bmp
603.36	0.72	829	6	6	97	per	con	mod	mod	mod	tg	ms	wh/0385.bmp
604.08	0.72	830	5	6	107	per	con	mod	mod	mod	tg	ms	wh/0399.bmp
604.80	0.72	831	5	7	93	per	con	low	mod	low	nt	cr	nh/1004_nh.bmp
605.52	0.72	832	6	6	106	per	con	mod	mod	mod	nt	cr	nh/0835_nh.bmp
606.24	0.72	833	6	7	93	per	con	low	mod	low	nt	cr	nh/1004_nh.bmp
606.96	0.72	834	6	6	107	per	con	mod	mod	mod	tg	ms	wh/0399.bmp
607.68	0.72	835	1	6	29	mem	lib	low	low	mod	tg	ht	wh/0186.bmp
608.40	0.72	836	1	8	37	per	con	mod	low	mod	nt	cr	nh/0180_nh.bmp
609.12	0.72	837	6	5	102	per	lib	mod	mod	mod	tg	ht	wh/0546.bmp
609.84	0.72	838	6	6	80	mem	con	mod	mod	mod	nt	ms	nh/0968_nh.bmp
610.56	0.72	839	6	5	70	mem	con	mod	mod	low	tg	ms	wh/0262.bmp
611.28	0.72	840	4	5	111	per	lib	mod	mod	mod	nt	cr	nh/0294_nh.bmp
612.00	0.72	841	5	8	76	per	lib	low	mod	low	nt	cr	nh/0578_nh.bmp
612.72	0.72	842	6	8	111	mem	lib	mod	mod	mod	nt	ht	nh/0366_nh.bmp
613.44	0.72	843	1	8	63	per	lib	mod	low	mod	nt	cr	nh/0668_nh.bmp
614.16	0.72	844	5	7	31	per	lib	mod	mod	mod	tg	ht	wh/0602.bmp
614.88	0.72	845	6	8	76	per	lib	low	mod	low	nt	cr	nh/0578_nh.bmp
615.60	0.72	846	6	5	29	mem	lib	mod	mod	mod	nt	ht	nh/0832_nh.bmp
616.32	0.72	847	4	6	118	mem	lib	mod	mod	low	tg	ht	wh/0450.bmp
617.04	0.72	848	5	6	47	per	lib	low	mod	low	nt	fa	nh/0024_nh.bmp
617.76	0.72	849	6	6	120	mem	lib	mod	mod	low	nt	ht	nh/0939_nh.bmp
618.48	0.72	850	6	6	70	mem	con	mod	mod	mod	nt	ms	nh/0590_nh.bmp
619.20	0.72	851	6	8	91	mem	con	mod	mod	mod	nt	ms	nh/0378_nh.bmp
619.92	0.72	852	6	8	79	per	lib	low	mod	low	tg	ht	wh/0793.bmp
620.64	0.72	853	6	6	73	mem	con	mod	mod	mod	tg	ht	wh/0821.bmp
621.36	0.72	854	6	5	24	mem	lib	mod	mod	mod	tg	ms	wh/0544.bmp
622.08	0.72	855	6	6	15	per	con	low	mod	low	nt	cr	nh/0248_nh.bmp
622.80	0.72	856	5	5	111	per	lib	mod	mod	mod	nt	cr	nh/0294_nh.bmp
623.52	0.72	857	5	7	77	mem	con	mod	mod	low	tg	ms	wh/0170.bmp
624.24	0.72	858	6	5	74	mem	con	mod	mod	low	tg	ms	wh/0249.bmp
624.96	0.72	859	6	6	110	per	con	mod	mod	mod	nt	cr	nh/0086_nh.bmp
625.68	0.72	860	5	5	27	mem	lib	mod	mod	mod	nt	ms	nh/0852_nh.bmp
626.40	0.72	861	6	5	20	mem	lib	mod	mod	mod	tg	ht	wh/0978.bmp
627.12	0.72	862	1	5	117	mem	con	low	low	mod	nt	ms	nh/0688_nh.bmp
627.84	0.72	863	1	8	121	mem	lib	low	low	low	tg	ht	wh/0360.bmp
628.56	0.72	864	6	6	7	per	con	low	mod	low	tg	ms	wh/0394.bmp
629.28	0.72	865	6	7	30	per	lib	mod	mod	mod	nt	fa	nh/0495_nh.bmp
630.00	0.72	866	6	5	27	mem	lib	mod	mod	mod	nt	ms	nh/0852_nh.bmp
630.72	0.72	867	6	7	104	mem	lib	mod	mod	low	nt	ht	nh/1014_nh.bmp
631.44	0.72	868	6	8	89	mem	con	mod	mod	mod	nt	ms	nh/0717_nh.bmp
632.16	0.72	869	6	7	64	per	con	mod	mod	mod	nt	cr	nh/0995_nh.bmp
632.88	0.72	870	5	6	118	mem	lib	mod	mod	low	tg	ht	wh/0450.bmp
633.60	0.72	871	6	5	22	mem	lib	mod	mod	mod	tg	ht	wh/0763.bmp
634.32	0.72	872	6	6	118	mem	lib	mod	mod	low	tg	ht	wh/0450.bmp
635.04	0.72	873	6	6	38	per	lib	low	mod	low	nt	fa	nh/0612_nh.bmp
635.76	0.72	874	6	6	125	mem	lib	mod	mod	low	tg	ht	wh/0172.bmp
636.48	0.72	875	5	6	117	mem	lib	mod	mod	low	nt	ht	nh/0255_nh.bmp
637.20	0.72	876	6	6	117	mem	lib	mod	mod	low	nt	ht	nh/0255_nh.bmp
637.92	0.72	877	6	7	70	mem	con	mod	mod	low	nt	ht	nh/0023_nh.bmp
638.64	0.72	878	5	7	92	per	con	low	mod	low	nt	cr	nh/0574_nh.bmp
639.36	0.72	879	6	6	3	per	con	low	mod	low	tg	ht	wh/0453.bmp
640.08	0.72	880	6	6	12	per	con	low	mod	low	nt	cr	nh/0814_nh.bmp
640.80	0.72	881	6	8	73	per	lib	low	mod	low	nt	cr	nh/0193_nh.bmp
641.52	0.72	882	6	5	72	mem	con	mod	mod	low	nt	ms	nh/0247_nh.bmp
642.24	0.72	883	6	7	92	per	con	low	mod	low	nt	cr	nh/0574_nh.bmp
642.96	0.72	884	1	7	40	per	lib	low	low	low	tg	ms	wh/0063.bmp
643.68	0.72	885	6	7	77	mem	con	mod	mod	low	tg	ms	wh/0170.bmp
644.40	0.72	886	5	7	52	per	con	mod	mod	mod	tg	ht	wh/0599.bmp
645.12	0.72	887	1	8	114	mem	lib	low	low	low	tg	ht	wh/0676.bmp
645.84	0.72	888	6	8	68	per	lib	low	mod	low	tg	ms	wh/0118.bmp
646.56	0.72	889	6	7	74	mem	con	mod	mod	low	nt	n/a	nh/0018_nh.bmp
647.28	0.72	890	6	6	47	per	lib	low	mod	low	nt	fa	nh/0024_nh.bmp
648.00	0.72	891	6	6	108	per	con	mod	mod	mod	tg	ht	wh/0778.bmp
648.72	0.72	892	6	5	111	per	lib	mod	mod	mod	nt	cr	nh/0294_nh.bmp
649.44	0.72	893	6	7	31	per	lib	mod	mod	mod	tg	ht	wh/0602.bmp
650.16	0.72	894	6	7	52	per	con	mod	mod	mod	tg	ht	wh/0599.bmp
650.88	0.72	895	6	8	86	mem	con	mod	mod	mod	tg	ht	wh/0239.bmp
651.60	0.72	896	6	8	88	mem	con	mod	mod	mod	nt	ms	nh/0020_nh.bmp
