onset	duration	trial	pres	ts_blk	ts_trl	task	crit	disc	mem_disc	per_disc	per_type	accuracy	stim_file
7.20	0.72	1	1	7	124	mem	lib	low	low	mod	nt	ht	nh/0721_nh.bmp
7.92	0.72	2	1	7	88	per	con	mod	mod	mod	tg	ht	wh/0680.bmp
8.64	0.72	3	1	7	54	mem	con	mod	mod	mod	nt	ms	nh/0442_nh.bmp
9.36	0.72	4	1	6	91	per	con	low	mod	low	tg	ms	wh/0818.bmp
10.08	0.72	5	1	7	100	mem	con	low	low	mod	nt	ht	nh/0729_nh.bmp
10.80	0.72	6	1	7	4	per	lib	mod	mod	mod	tg	ms	wh/0855.bmp
11.52	0.72	7	1	8	7	mem	lib	mod	mod	low	nt	ht	nh/0238_nh.bmp
12.24	0.72	8	1	8	6	mem	lib	mod	mod	low	nt	ht	nh/0465_nh.bmp
12.96	0.72	9	1	7	33	per	con	low	low	low	tg	ms	wh/0434.bmp
13.68	0.72	10	1	7	95	per	con	mod	mod	mod	nt	cr	nh/0196_nh.bmp
14.40	0.72	11	1	8	4	mem	lib	mod	mod	low	tg	ht	wh/0967.bmp
15.12	0.72	12	1	8	66	per	lib	low	mod	low	tg	ht	wh/0364.bmp
15.84	0.72	13	2	7	4	per	lib	mod	mod	mod	tg	ms	wh/0855.bmp
16.56	0.72	14	1	6	71	mem	con	mod	mod	low	nt	ht	nh/0802_nh.bmp
17.28	0.72	15	1	7	53	mem	con	mod	mod	mod	tg	ht	wh/0591.bmp
18.00	0.72	16	1	6	78	mem	con	mod	mod	low	nt	ht	nh/0613_nh.bmp
18.72	0.72	17	1	5	32	per	con	mod	mod	mod	nt	cr	nh/0371_nh.bmp
19.44	0.72	18	1	5	119	mem	con	mod	mod	mod	tg	ms	wh/0558.bmp
20.16	0.72	19	2	8	7	mem	lib	mod	mod	low	nt	ht	nh/0238_nh.bmp
20.88	0.72	20	1	8	64	per	con	low	mod	low	nt	cr	nh/0660_nh.bmp
21.60	0.72	21	1	7	86	per	con	mod	mod	mod	tg	ht	wh/0594.bmp
22.32	0.72	22	1	8	55	per	con	low	mod	low	tg	ms	wh/0940.bmp
23.04	0.72	23	1	8	97	mem	con	mod	mod	low	nt	ms	nh/0123_nh.bmp
23.76	0.72	24	1	6	37	per	lib	low	mod	low	tg	ms	wh/0382.bmp
24.48	0.72	25	1	8	74	per	lib	low	mod	low	tg	ms	wh/0351.bmp
25.20	0.72	26	3	8	7	mem	lib	mod	mod	low	nt	ht	nh/0238_nh.bmp
25.92	0.72	27	1	5	31	per	con	mod	mod	mod	nt	n/a	nh/0928_nh.bmp
26.64	0.72	28	2	7	86	per	con	mod	mod	mod	tg	ht	wh/0594.bmp
27.36	0.72	29	1	6	83	per	con	low	mod	low	tg	ms	wh/0077.bmp
28.08	0.72	30	1	5	128	mem	con	mod	mod	mod	nt	ht	nh/0957_nh.bmp
28.80	0.72	31	1	8	3	mem	lib	mod	mod	low	tg	ht	wh/0190.bmp
29.52	0.72	32	2	6	91	per	con	low	mod	low	tg	ms	wh/0818.bmp
30.24	0.72	33	2	8	55	per	con	low	mod	low	tg	ms	wh/0940.bmp
30.96	0.72	34	1	6	53	mem	lib	mod	mod	mod	nt	ms	nh/0447_nh.bmp
31.68	0.72	35	1	5	18	per	con	mod	mod	mod	tg	ht	wh/0540.bmp
32.40	0.72	36	1	5	96	mem	con	low	low	low	nt	ms	nh/0528_nh.bmp
33.12	0.72	37	1	6	44	per	lib	low	mod	low	nt	cr	nh/0510_nh.bmp
33.84	0.72	38	1	7	8	per	lib	mod	mod	mod	tg	ht	wh/0187.bmp
34.56	0.72	39	1	7	52	mem	con	mod	mod	mod	tg	ht	wh/0328.bmp
35.28	0.72	40	1	5	13	mem	lib	low	low	mod	tg	ht	wh/0669.bmp
36.00	0.72	41	1	6	74	mem	con	mod	mod	low	tg	ht	wh/0150.bmp
36.72	0.72	42	2	6	44	per	lib	low	mod	low	nt	cr	nh/0510_nh.bmp
37.44	0.72	43	1	6	102	per	lib	mod	mod	mod	tg	ht	wh/0904.bmp
38.16	0.72	44	1	5	57	per	con	low	low	low	tg	ms	wh/0711.bmp
38.88	0.72	45	1	5	123	mem	con	mod	mod	mod	nt	ms	nh/0946_nh.bmp
39.60	0.72	46	1	8	5	mem	lib	mod	mod	low	tg	ht	wh/0074.bmp
40.32	0.72	47	1	5	70	mem	lib	mod	mod	low	tg	ht	wh/0619.bmp
41.04	0.72	48	1	5	44	per	lib	mod	low	mod	tg	ht	wh/0860.bmp
41.76	0.72	49	1	6	107	per	lib	mod	mod	mod	tg	ms	wh/0810.bmp
42.48	0.72	50	1	5	51	per	con	low	low	low	tg	ms	wh/0053.bmp
43.20	0.72	51	1	6	108	per	lib	mod	mod	mod	tg	ht	wh/0182.bmp
43.92	0.72	52	1	7	91	per	con	mod	mod	mod	nt	cr	nh/0714_nh.bmp
44.64	0.72	53	1	7	112	mem	con	low	low	mod	tg	ht	wh/0569.bmp
45.36	0.72	54	1	6	72	mem	con	mod	mod	low	tg	ht	wh/0079.bmp
46.08	0.72	55	1	7	9	per	lib	mod	mod	mod	nt	cr	nh/0941_nh.bmp
46.80	0.72	56	2	6	37	per	lib	low	mod	low	tg	ms	wh/0382.bmp
47.52	0.72	57	1	8	62	per	con	low	mod	low	tg	ht	wh/0032.bmp
48.24	0.72	58	1	8	96	per	con	mod	low	mod	nt	cr	nh/0572_nh.bmp
48.96	0.72	59	2	8	62	per	con	low	mod	low	tg	ht	wh/0032.bmp
49.68	0.72	60	3	7	86	per	con	mod	mod	mod	tg	ht	wh/0594.bmp
50.40	0.72	61	1	6	57	mem	lib	mod	mod	mod	nt	ht	nh/0548_nh.bmp
51.12	0.72	62	2	5	70	mem	lib	mod	mod	low	tg	ht	wh/0619.bmp
51.84	0.72	63	1	7	63	mem	con	mod	mod	mod	tg	ht	wh/0902.bmp
52.56	0.72	64	1	7	12	per	lib	mod	mod	mod	nt	fa	nh/0199_nh.bmp
53.28	0.72	65	1	8	49	per	con	low	mod	low	nt	cr	nh/0963_nh.bmp
54.00	0.72	66	2	8	49	per	con	low	mod	low	nt	cr	nh/0963_nh.bmp
54.72	0.72	67	1	6	65	mem	con	mod	mod	low	nt	ht	nh/0417_nh.bmp
55.44	0.72	68	3	8	49	per	con	low	mod	low	nt	cr	nh/0963_nh.bmp
56.16	0.72	69	2	8	74	per	lib	low	mod	low	tg	ms	wh/0351.bmp
56.88	0.72	70	1	5	73	mem	lib	mod	mod	low	nt	ht	nh/0577_nh.bmp
57.60	0.72	71	1	8	13	mem	lib	mod	mod	low	nt	ht	nh/0125_nh.bmp
58.32	0.72	72	1	8	80	per	lib	low	mod	low	tg	ms	wh/0256.bmp
59.04	0.72	73	2	5	32	per	con	mod	mod	mod	nt	cr	nh/0371_nh.bmp
59.76	0.72	74	1	5	67	mem	lib	mod	mod	low	tg	ht	wh/0893.bmp
60.48	0.72	75	1	8	2	mem	lib	mod	mod	low	nt	ht	nh/0383_nh.bmp
61.20	0.72	76	2	6	71	mem	con	mod	mod	low	nt	ht	nh/0802_nh.bmp
61.92	0.72	77	3	5	32	per	con	mod	mod	mod	nt	cr	nh/0371_nh.bmp
62.64	0.72	78	1	7	79	mem	lib	mod	mod	mod	tg	ht	wh/0954.bmp
63.36	0.72	79	1	6	48	per	lib	low	mod	low	tg	ms	wh/0284.bmp
64.08	0.72	80	2	7	52	mem	con	mod	mod	mod	tg	ht	wh/0328.bmp
64.80	0.72	81	3	8	55	per	con	low	mod	low	tg	ms	wh/0940.bmp
65.52	0.72	82	1	6	120	mem	lib	low	low	low	nt	ht	nh/0930_nh.bmp
66.24	0.72	83	1	5	43	per	lib	mod	low	mod	nt	fa	nh/0787_nh.bmp
66.96	0.72	84	1	5	74	mem	lib	mod	mod	low	nt	ht	nh/0508_nh.bmp
67.68	0.72	85	1	7	94	per	con	mod	mod	mod	nt	cr	nh/0446_nh.bmp
68.40	0.72	86	3	6	91	per	con	low	mod	low	tg	ms	wh/0818.bmp
69.12	0.72	87	1	8	73	per	lib	low	mod	low	nt	cr	nh/0355_nh.bmp
69.84	0.72	88	1	8	99	mem	con	mod	mod	low	tg	ht	wh/0608.bmp
70.56	0.72	89	1	6	47	per	lib	low	mod	low	nt	fa	nh/0345_nh.bmp
71.28	0.72	90	1	8	56	per	con	low	mod	low	tg	ms	wh/0646.bmp
72.00	0.72	91	1	6	77	mem	con	mod	mod	low	tg	ht	wh/0336.bmp
72.72	0.72	92	1	7	115	mem	lib	low	low	mod	tg	ms	wh/0933.bmp
73.44	0.72	93	3	6	37	per	lib	low	mod	low	tg	ms	wh/0382.bmp
74.16	0.72	94	1	6	121	mem	lib	low	low	low	tg	ht	wh/0789.bmp
74.88	0.72	95	1	7	10	per	lib	mod	mod	mod	nt	cr	nh/0874_nh.bmp
75.60	0.72	96	1	6	86	per	con	low	mod	low	tg	ms	wh/0036.bmp
76.32	0.72	97	2	6	48	per	lib	low	mod	low	tg	ms	wh/0284.bmp
77.04	0.72	98	2	8	56	per	con	low	mod	low	tg	ms	wh/0646.bmp
77.76	0.72	99	1	7	26	per	lib	low	low	low	nt	cr	nh/0812_nh.bmp
78.48	0.72	100	1	6	81	per	con	low	mod	low	nt	cr	nh/0690_nh.bmp
79.20	0.72	101	2	6	83	per	con	low	mod	low	tg	ms	wh/0077.bmp
79.92	0.72	102	1	8	123	mem	lib	low	low	low	nt	ms	nh/0206_nh.bmp
80.64	0.72	103	1	7	80	mem	lib	mod	mod	mod	nt	ht	nh/0843_nh.bmp
81.36	0.72	104	2	8	80	per	lib	low	mod	low	tg	ms	wh/0256.bmp
82.08	0.72	105	3	6	71	mem	con	mod	mod	low	nt	ht	nh/0802_nh.bmp
82.80	0.72	106	1	7	41	per	con	low	low	low	tg	ht	wh/0881.bmp
83.52	0.72	107	1	7	67	mem	lib	mod	mod	mod	tg	ht	wh/0095.bmp
84.24	0.72	108	2	7	63	mem	con	mod	mod	mod	tg	ht	wh/0902.bmp
84.96	0.72	109	1	6	103	per	lib	mod	mod	mod	nt	cr	nh/0805_nh.bmp
85.68	0.72	110	2	6	53	mem	lib	mod	mod	mod	nt	ms	nh/0447_nh.bmp
86.40	0.72	111	1	8	102	mem	con	mod	mod	low	tg	ht	wh/0082.bmp
87.12	0.72	112	1	8	107	mem	con	mod	mod	low	nt	ms	nh/0934_nh.bmp
87.84	0.72	113	1	7	116	mem	lib	low	low	mod	tg	ht	wh/0281.bmp
88.56	0.72	114	2	5	119	mem	con	mod	mod	mod	tg	ms	wh/0558.bmp
89.28	0.72	115	3	8	62	per	con	low	mod	low	tg	ht	wh/0032.bmp
90.00	0.72	116	1	6	82	per	con	low	mod	low	tg	ms	wh/0232.bmp
90.72	0.72	117	3	6	44	per	lib	low	mod	low	nt	cr	nh/0510_nh.bmp
91.44	0.72	118	1	8	65	per	lib	low	mod	low	nt	fa	nh/0404_nh.bmp
92.16	0.72	119	4	8	62	per	con	low	mod	low	tg	ht	wh/0032.bmp
92.88	0.72	120	3	6	83	per	con	low	mod	low	tg	ms	wh/0077.bmp
93.60	0.72	121	1	6	46	per	lib	low	mod	low	nt	cr	nh/0134_nh.bmp
94.32	0.72	122	1	6	110	per	lib	mod	mod	mod	tg	ht	wh/0650.bmp
95.04	0.72	123	1	7	60	mem	con	mod	mod	mod	nt	ms	nh/0380_nh.bmp
95.76	0.72	124	1	8	106	mem	con	mod	mod	low	tg	ht	wh/0635.bmp
96.48	0.72	125	2	7	53	mem	con	mod	mod	mod	tg	ht	wh/0591.bmp
97.20	0.72	126	1	6	35	per	lib	low	mod	low	tg	ms	wh/0329.bmp
97.92	0.72	127	1	6	40	per	lib	low	mod	low	tg	ht	wh/0299.bmp
98.64	0.72	128	2	6	110	per	lib	mod	mod	mod	tg	ht	wh/0650.bmp
99.36	0.72	129	1	8	70	per	lib	low	mod	low	tg	ms	wh/0758.bmp
100.08	0.72	130	2	8	64	per	con	low	mod	low	nt	cr	nh/0660_nh.bmp
100.80	0.72	131	5	8	62	per	con	low	mod	low	tg	ht	wh/0032.bmp
101.52	0.72	132	1	5	11	mem	lib	low	low	mod	nt	ht	nh/0708_nh.bmp
102.24	0.72	133	2	7	94	per	con	mod	mod	mod	nt	cr	nh/0446_nh.bmp
102.96	0.72	134	1	6	93	per	con	low	mod	low	nt	cr	nh/0760_nh.bmp
103.68	0.72	135	2	8	70	per	lib	low	mod	low	tg	ms	wh/0758.bmp
104.40	0.72	136	1	8	53	per	con	low	mod	low	nt	fa	nh/0194_nh.bmp
105.12	0.72	137	2	6	72	mem	con	mod	mod	low	tg	ht	wh/0079.bmp
105.84	0.72	138	2	7	79	mem	lib	mod	mod	mod	tg	ht	wh/0954.bmp
106.56	0.72	139	1	8	77	per	lib	low	mod	low	nt	cr	nh/0730_nh.bmp
107.28	0.72	140	2	7	80	mem	lib	mod	mod	mod	nt	ht	nh/0843_nh.bmp
108.00	0.72	141	3	7	80	mem	lib	mod	mod	mod	nt	ht	nh/0843_nh.bmp
108.72	0.72	142	1	7	55	mem	con	mod	mod	mod	tg	ms	wh/0398.bmp
109.44	0.72	143	1	6	106	per	lib	mod	mod	mod	nt	fa	nh/0428_nh.bmp
110.16	0.72	144	1	8	104	mem	con	mod	mod	low	nt	ht	nh/1023_nh.bmp
110.88	0.72	145	1	6	90	per	con	low	mod	low	nt	cr	nh/0443_nh.bmp
111.60	0.72	146	1	8	112	mem	con	mod	mod	low	tg	ms	wh/0964.bmp
112.32	0.72	147	1	7	85	per	con	mod	mod	mod	tg	ht	wh/0542.bmp
113.04	0.72	148	2	7	60	mem	con	mod	mod	mod	nt	ms	nh/0380_nh.bmp
113.76	0.72	149	3	7	52	mem	con	mod	mod	mod	tg	ht	wh/0328.bmp
114.48	0.72	150	1	5	93	mem	con	low	low	low	nt	ms	nh/0215_nh.bmp
115.20	0.72	151	2	6	93	per	con	low	mod	low	nt	cr	nh/0760_nh.bmp
115.92	0.72	152	1	5	78	mem	lib	mod	mod	low	tg	ht	wh/0029.bmp
116.64	0.72	153	2	8	99	mem	con	mod	mod	low	tg	ht	wh/0608.bmp
117.36	0.72	154	1	5	102	per	lib	low	low	low	nt	fa	nh/0055_nh.bmp
118.08	0.72	155	1	6	38	per	lib	low	mod	low	nt	cr	nh/0338_nh.bmp
118.80	0.72	156	2	5	78	mem	lib	mod	mod	low	tg	ht	wh/0029.bmp
119.52	0.72	157	1	6	68	mem	con	mod	mod	low	tg	ht	wh/0451.bmp
120.24	0.72	158	4	8	7	mem	lib	mod	mod	low	nt	ht	nh/0238_nh.bmp
120.96	0.72	159	2	5	123	mem	con	mod	mod	mod	nt	ms	nh/0946_nh.bmp
121.68	0.72	160	2	6	38	per	lib	low	mod	low	nt	cr	nh/0338_nh.bmp
122.40	0.72	161	1	7	72	mem	lib	mod	mod	mod	nt	ht	nh/0497_nh.bmp
123.12	0.72	162	1	6	51	mem	lib	mod	mod	mod	tg	ht	wh/0462.bmp
123.84	0.72	163	4	8	55	per	con	low	mod	low	tg	ms	wh/0940.bmp
124.56	0.72	164	1	7	62	mem	con	mod	mod	mod	nt	ht	nh/0795_nh.bmp
125.28	0.72	165	1	7	103	mem	con	low	low	mod	tg	ht	wh/0626.bmp
126.00	0.72	166	2	6	68	mem	con	mod	mod	low	tg	ht	wh/0451.bmp
126.72	0.72	167	1	6	99	per	lib	mod	mod	mod	nt	fa	nh/0209_nh.bmp
127.44	0.72	168	1	7	113	mem	lib	low	low	mod	tg	ht	wh/0774.bmp
128.16	0.72	169	1	7	118	mem	lib	low	low	mod	nt	ht	nh/0846_nh.bmp
128.88	0.72	170	1	8	51	per	con	low	mod	low	nt	cr	nh/0035_nh.bmp
129.60	0.72	171	2	7	72	mem	lib	mod	mod	mod	nt	ht	nh/0497_nh.bmp
130.32	0.72	172	1	5	38	per	lib	mod	low	mod	tg	ht	wh/0581.bmp
131.04	0.72	173	3	6	38	per	lib	low	mod	low	nt	cr	nh/0338_nh.bmp
131.76	0.72	174	1	5	87	mem	con	low	low	low	tg	ht	wh/1007.bmp
132.48	0.72	175	1	5	19	per	con	mod	mod	mod	tg	ht	wh/0772.bmp
133.20	0.72	176	1	7	75	mem	lib	mod	mod	mod	tg	ht	wh/0697.bmp
133.92	0.72	177	4	6	91	per	con	low	mod	low	tg	ms	wh/0818.bmp
134.64	0.72	178	1	5	80	mem	lib	mod	mod	low	nt	ht	nh/0568_nh.bmp
135.36	0.72	179	3	8	99	mem	con	mod	mod	low	tg	ht	wh/0608.bmp
136.08	0.72	180	1	6	64	mem	lib	mod	mod	mod	tg	ht	wh/0947.bmp
136.80	0.72	181	1	7	6	per	lib	mod	mod	mod	nt	cr	nh/0222_nh.bmp
137.52	0.72	182	1	6	85	per	con	low	mod	low	nt	cr	nh/0361_nh.bmp
138.24	0.72	183	2	5	73	mem	lib	mod	mod	low	nt	ht	nh/0577_nh.bmp
138.96	0.72	184	2	7	88	per	con	mod	mod	mod	tg	ht	wh/0680.bmp
139.68	0.72	185	3	8	74	per	lib	low	mod	low	tg	ms	wh/0351.bmp
140.40	0.72	186	4	6	44	per	lib	low	mod	low	nt	cr	nh/0510_nh.bmp
141.12	0.72	187	2	6	108	per	lib	mod	mod	mod	tg	ht	wh/0182.bmp
141.84	0.72	188	2	7	95	per	con	mod	mod	mod	nt	cr	nh/0196_nh.bmp
142.56	0.72	189	4	7	80	mem	lib	mod	mod	mod	nt	ht	nh/0843_nh.bmp
143.28	0.72	190	1	8	90	per	con	mod	low	mod	tg	ms	wh/0220.bmp
144.00	0.72	191	1	5	116	mem	con	mod	mod	mod	tg	ht	wh/0350.bmp
144.72	0.72	192	1	7	87	per	con	mod	mod	mod	nt	cr	nh/0099_nh.bmp
145.44	0.72	193	2	7	87	per	con	mod	mod	mod	nt	cr	nh/0099_nh.bmp
146.16	0.72	194	1	8	71	per	lib	low	mod	low	nt	cr	nh/0744_nh.bmp
146.88	0.72	195	4	8	99	mem	con	mod	mod	low	tg	ht	wh/0608.bmp
147.60	0.72	196	2	5	19	per	con	mod	mod	mod	tg	ht	wh/0772.bmp
148.32	0.72	197	3	7	87	per	con	mod	mod	mod	nt	cr	nh/0099_nh.bmp
149.04	0.72	198	1	6	8	per	con	mod	low	mod	tg	ht	wh/0781.bmp
149.76	0.72	199	1	5	126	mem	con	mod	mod	mod	nt	ms	nh/0748_nh.bmp
150.48	0.72	200	3	5	19	per	con	mod	mod	mod	tg	ht	wh/0772.bmp
151.20	0.72	201	1	7	29	per	lib	low	low	low	tg	ht	wh/0507.bmp
151.92	0.72	202	1	5	69	mem	lib	mod	mod	low	nt	ht	nh/0503_nh.bmp
152.64	0.72	203	2	8	65	per	lib	low	mod	low	nt	fa	nh/0404_nh.bmp
153.36	0.72	204	1	7	16	per	lib	mod	mod	mod	tg	ht	wh/0319.bmp
154.08	0.72	205	1	7	128	mem	lib	low	low	mod	tg	ht	wh/0900.bmp
154.80	0.72	206	3	5	73	mem	lib	mod	mod	low	nt	ht	nh/0577_nh.bmp
155.52	0.72	207	1	7	68	mem	lib	mod	mod	mod	tg	ht	wh/0876.bmp
156.24	0.72	208	3	7	53	mem	con	mod	mod	mod	tg	ht	wh/0591.bmp
156.96	0.72	209	4	6	38	per	lib	low	mod	low	nt	cr	nh/0338_nh.bmp
157.68	0.72	210	2	6	99	per	lib	mod	mod	mod	nt	fa	nh/0209_nh.bmp
158.40	0.72	211	2	7	6	per	lib	mod	mod	mod	nt	cr	nh/0222_nh.bmp
159.12	0.72	212	2	7	54	mem	con	mod	mod	mod	nt	ms	nh/0442_nh.bmp
159.84	0.72	213	2	6	65	mem	con	mod	mod	low	nt	ht	nh/0417_nh.bmp
160.56	0.72	214	1	6	14	per	con	mod	low	mod	nt	cr	nh/0949_nh.bmp
161.28	0.72	215	2	6	102	per	lib	mod	mod	mod	tg	ht	wh/0904.bmp
162.00	0.72	216	2	7	91	per	con	mod	mod	mod	nt	cr	nh/0714_nh.bmp
162.72	0.72	217	2	6	74	mem	con	mod	mod	low	tg	ht	wh/0150.bmp
163.44	0.72	218	3	7	54	mem	con	mod	mod	mod	nt	ms	nh/0442_nh.bmp
164.16	0.72	219	1	8	48	per	lib	mod	low	mod	tg	ht	wh/0129.bmp
164.88	0.72	220	2	7	55	mem	con	mod	mod	mod	tg	ms	wh/0398.bmp
165.60	0.72	221	2	8	77	per	lib	low	mod	low	nt	cr	nh/0730_nh.bmp
166.32	0.72	222	2	8	97	mem	con	mod	mod	low	nt	ms	nh/0123_nh.bmp
167.04	0.72	223	2	6	57	mem	lib	mod	mod	mod	nt	ht	nh/0548_nh.bmp
167.76	0.72	224	2	6	107	per	lib	mod	mod	mod	tg	ms	wh/0810.bmp
168.48	0.72	225	1	8	61	per	con	low	mod	low	tg	ms	wh/0080.bmp
169.20	0.72	226	3	7	88	per	con	mod	mod	mod	tg	ht	wh/0680.bmp
169.92	0.72	227	1	8	32	mem	con	low	low	low	nt	ms	nh/0237_nh.bmp
170.64	0.72	228	3	6	48	per	lib	low	mod	low	tg	ms	wh/0284.bmp
171.36	0.72	229	2	6	85	per	con	low	mod	low	nt	cr	nh/0361_nh.bmp
172.08	0.72	230	2	8	2	mem	lib	mod	mod	low	nt	ht	nh/0383_nh.bmp
172.80	0.72	231	1	7	27	per	lib	low	low	low	tg	ms	wh/0998.bmp
173.52	0.72	232	2	8	61	per	con	low	mod	low	tg	ms	wh/0080.bmp
174.24	0.72	233	3	8	65	per	lib	low	mod	low	nt	fa	nh/0404_nh.bmp
174.96	0.72	234	4	7	54	mem	con	mod	mod	mod	nt	ms	nh/0442_nh.bmp
175.68	0.72	235	1	8	38	per	lib	mod	low	mod	nt	cr	nh/0278_nh.bmp
176.40	0.72	236	3	7	79	mem	lib	mod	mod	mod	tg	ht	wh/0954.bmp
177.12	0.72	237	1	7	37	per	con	low	low	low	nt	cr	nh/0173_nh.bmp
177.84	0.72	238	1	6	21	mem	con	low	low	mod	nt	ms	nh/0216_nh.bmp
178.56	0.72	239	3	6	108	per	lib	mod	mod	mod	tg	ht	wh/0182.bmp
179.28	0.72	240	2	8	71	per	lib	low	mod	low	nt	cr	nh/0744_nh.bmp
180.00	0.72	241	3	6	102	per	lib	mod	mod	mod	tg	ht	wh/0904.bmp
180.72	0.72	242	1	7	77	mem	lib	mod	mod	mod	nt	ms	nh/0588_nh.bmp
181.44	0.72	243	1	5	66	mem	lib	mod	mod	low	tg	ht	wh/0489.bmp
182.16	0.72	244	2	5	128	mem	con	mod	mod	mod	nt	ht	nh/0957_nh.bmp
182.88	0.72	245	1	5	84	mem	con	low	low	low	tg	ht	wh/0112.bmp
183.60	0.72	246	3	6	72	mem	con	mod	mod	low	tg	ht	wh/0079.bmp
184.32	0.72	247	5	7	54	mem	con	mod	mod	mod	nt	ms	nh/0442_nh.bmp
185.04	0.72	248	1	7	90	per	con	mod	mod	mod	tg	ht	wh/0543.bmp
185.76	0.72	249	3	7	55	mem	con	mod	mod	mod	tg	ms	wh/0398.bmp
186.48	0.72	250	1	8	22	mem	con	low	low	low	nt	ms	nh/0223_nh.bmp
187.20	0.72	251	2	7	16	per	lib	mod	mod	mod	tg	ht	wh/0319.bmp
187.92	0.72	252	1	7	119	mem	lib	low	low	mod	nt	ht	nh/0652_nh.bmp
188.64	0.72	253	4	7	86	per	con	mod	mod	mod	tg	ht	wh/0594.bmp
189.36	0.72	254	1	8	113	mem	lib	low	low	low	tg	ht	wh/0571.bmp
190.08	0.72	255	1	5	114	mem	con	mod	mod	mod	tg	ms	wh/0339.bmp
190.80	0.72	256	3	7	6	per	lib	mod	mod	mod	nt	cr	nh/0222_nh.bmp
191.52	0.72	257	2	7	10	per	lib	mod	mod	mod	nt	cr	nh/0874_nh.bmp
192.24	0.72	258	4	7	53	mem	con	mod	mod	mod	tg	ht	wh/0591.bmp
192.96	0.72	259	2	6	86	per	con	low	mod	low	tg	ms	wh/0036.bmp
193.68	0.72	260	1	6	125	mem	lib	low	low	low	nt	ht	nh/0864_nh.bmp
194.40	0.72	261	3	5	119	mem	con	mod	mod	mod	tg	ms	wh/0558.bmp
195.12	0.72	262	2	6	77	mem	con	mod	mod	low	tg	ht	wh/0336.bmp
195.84	0.72	263	5	8	7	mem	lib	mod	mod	low	nt	ht	nh/0238_nh.bmp
196.56	0.72	264	2	6	40	per	lib	low	mod	low	tg	ht	wh/0299.bmp
197.28	0.72	265	3	6	77	mem	con	mod	mod	low	tg	ht	wh/0336.bmp
198.00	0.72	266	1	5	125	mem	con	mod	mod	mod	tg	ht	wh/0593.bmp
198.72	0.72	267	3	8	2	mem	lib	mod	mod	low	nt	ht	nh/0383_nh.bmp
199.44	0.72	268	2	5	74	mem	lib	mod	mod	low	nt	ht	nh/0508_nh.bmp
200.16	0.72	269	1	8	82	per	con	mod	low	mod	nt	cr	nh/0277_nh.bmp
200.88	0.72	270	2	8	6	mem	lib	mod	mod	low	nt	ht	nh/0465_nh.bmp
201.60	0.72	271	2	7	85	per	con	mod	mod	mod	tg	ht	wh/0542.bmp
202.32	0.72	272	1	6	115	mem	lib	low	low	low	tg	ht	wh/0185.bmp
203.04	0.72	273	2	8	106	mem	con	mod	mod	low	tg	ht	wh/0635.bmp
203.76	0.72	274	1	6	111	per	lib	mod	mod	mod	nt	cr	nh/0273_nh.bmp
204.48	0.72	275	1	5	92	mem	con	low	low	low	tg	ht	wh/0431.bmp
205.20	0.72	276	3	7	72	mem	lib	mod	mod	mod	nt	ht	nh/0497_nh.bmp
205.92	0.72	277	3	7	4	per	lib	mod	mod	mod	tg	ms	wh/0855.bmp
206.64	0.72	278	3	7	95	per	con	mod	mod	mod	nt	cr	nh/0196_nh.bmp
207.36	0.72	279	4	5	32	per	con	mod	mod	mod	nt	cr	nh/0371_nh.bmp
208.08	0.72	280	3	6	40	per	lib	low	mod	low	tg	ht	wh/0299.bmp
208.80	0.72	281	2	7	67	mem	lib	mod	mod	mod	tg	ht	wh/0095.bmp
209.52	0.72	282	3	8	106	mem	con	mod	mod	low	tg	ht	wh/0635.bmp
210.24	0.72	283	2	5	125	mem	con	mod	mod	mod	tg	ht	wh/0593.bmp
210.96	0.72	284	4	6	83	per	con	low	mod	low	tg	ms	wh/0077.bmp
211.68	0.72	285	1	5	4	mem	lib	low	low	mod	nt	ht	nh/0316_nh.bmp
212.40	0.72	286	1	7	57	mem	con	mod	mod	mod	nt	ht	nh/0684_nh.bmp
213.12	0.72	287	2	5	66	mem	lib	mod	mod	low	tg	ht	wh/0489.bmp
213.84	0.72	288	1	6	62	mem	lib	mod	mod	mod	tg	ht	wh/0973.bmp
214.56	0.72	289	1	5	120	mem	con	mod	mod	mod	nt	ms	nh/0962_nh.bmp
215.28	0.72	290	4	6	48	per	lib	low	mod	low	tg	ms	wh/0284.bmp
216.00	0.72	291	2	7	75	mem	lib	mod	mod	mod	tg	ht	wh/0697.bmp
216.72	0.72	292	1	6	17	mem	con	low	low	mod	tg	ms	wh/0419.bmp
217.44	0.72	293	3	6	110	per	lib	mod	mod	mod	tg	ht	wh/0650.bmp
218.16	0.72	294	3	7	91	per	con	mod	mod	mod	nt	cr	nh/0714_nh.bmp
218.88	0.72	295	4	6	71	mem	con	mod	mod	low	nt	ht	nh/0802_nh.bmp
219.60	0.72	296	4	5	119	mem	con	mod	mod	mod	tg	ms	wh/0558.bmp
220.32	0.72	297	3	6	86	per	con	low	mod	low	tg	ms	wh/0036.bmp
221.04	0.72	298	2	8	53	per	con	low	mod	low	nt	fa	nh/0194_nh.bmp
221.76	0.72	299	2	8	102	mem	con	mod	mod	low	tg	ht	wh/0082.bmp
222.48	0.72	300	2	8	73	per	lib	low	mod	low	nt	cr	nh/0355_nh.bmp
223.20	0.72	301	3	5	66	mem	lib	mod	mod	low	tg	ht	wh/0489.bmp
223.92	0.72	302	1	7	24	per	lib	low	low	low	tg	ht	wh/0823.bmp
224.64	0.72	303	4	7	52	mem	con	mod	mod	mod	tg	ht	wh/0328.bmp
225.36	0.72	304	2	6	78	mem	con	mod	mod	low	nt	ht	nh/0613_nh.bmp
226.08	0.72	305	2	8	107	mem	con	mod	mod	low	nt	ms	nh/0934_nh.bmp
226.80	0.72	306	3	5	123	mem	con	mod	mod	mod	nt	ms	nh/0946_nh.bmp
227.52	0.72	307	2	7	12	per	lib	mod	mod	mod	nt	fa	nh/0199_nh.bmp
228.24	0.72	308	3	6	93	per	con	low	mod	low	nt	cr	nh/0760_nh.bmp
228.96	0.72	309	1	8	41	per	lib	mod	low	mod	tg	ht	wh/0718.bmp
229.68	0.72	310	3	8	61	per	con	low	mod	low	tg	ms	wh/0080.bmp
230.40	0.72	311	3	7	16	per	lib	mod	mod	mod	tg	ht	wh/0319.bmp
231.12	0.72	312	4	6	72	mem	con	mod	mod	low	tg	ht	wh/0079.bmp
231.84	0.72	313	4	5	73	mem	lib	mod	mod	low	nt	ht	nh/0577_nh.bmp
232.56	0.72	314	2	5	31	per	con	mod	mod	mod	nt	n/a	nh/0928_nh.bmp
233.28	0.72	315	3	7	67	mem	lib	mod	mod	mod	tg	ht	wh/0095.bmp
234.00	0.72	316	4	7	91	per	con	mod	mod	mod	nt	cr	nh/0714_nh.bmp
234.72	0.72	317	3	8	53	per	con	low	mod	low	nt	fa	nh/0194_nh.bmp
235.44	0.72	318	1	7	76	mem	lib	mod	mod	mod	nt	ht	nh/0396_nh.bmp
236.16	0.72	319	2	7	62	mem	con	mod	mod	mod	nt	ht	nh/0795_nh.bmp
236.88	0.72	320	2	7	68	mem	lib	mod	mod	mod	tg	ht	wh/0876.bmp
237.60	0.72	321	2	6	106	per	lib	mod	mod	mod	nt	fa	nh/0428_nh.bmp
238.32	0.72	322	2	7	77	mem	lib	mod	mod	mod	nt	ms	nh/0588_nh.bmp
239.04	0.72	323	3	7	68	mem	lib	mod	mod	mod	tg	ht	wh/0876.bmp
239.76	0.72	324	2	8	112	mem	con	mod	mod	low	tg	ms	wh/0964.bmp
240.48	0.72	325	2	6	81	per	con	low	mod	low	nt	cr	nh/0690_nh.bmp
241.20	0.72	326	3	6	65	mem	con	mod	mod	low	nt	ht	nh/0417_nh.bmp
241.92	0.72	327	3	7	75	mem	lib	mod	mod	mod	tg	ht	wh/0697.bmp
242.64	0.72	328	2	8	5	mem	lib	mod	mod	low	tg	ht	wh/0074.bmp
243.36	0.72	329	1	5	17	per	con	mod	mod	mod	nt	cr	nh/0803_nh.bmp
244.08	0.72	330	3	8	56	per	con	low	mod	low	tg	ms	wh/0646.bmp
244.80	0.72	331	2	5	80	mem	lib	mod	mod	low	nt	ht	nh/0568_nh.bmp
245.52	0.72	332	4	7	75	mem	lib	mod	mod	mod	tg	ht	wh/0697.bmp
246.24	0.72	333	3	5	70	mem	lib	mod	mod	low	tg	ht	wh/0619.bmp
246.96	0.72	334	1	5	40	per	lib	mod	low	mod	tg	ht	wh/0584.bmp
247.68	0.72	335	1	5	81	mem	con	low	low	low	tg	ms	wh/0999.bmp
248.40	0.72	336	3	8	97	mem	con	mod	mod	low	nt	ms	nh/0123_nh.bmp
249.12	0.72	337	4	6	65	mem	con	mod	mod	low	nt	ht	nh/0417_nh.bmp
249.84	0.72	338	4	7	68	mem	lib	mod	mod	mod	tg	ht	wh/0876.bmp
250.56	0.72	339	3	5	128	mem	con	mod	mod	mod	nt	ht	nh/0957_nh.bmp
251.28	0.72	340	4	5	128	mem	con	mod	mod	mod	nt	ht	nh/0957_nh.bmp
252.00	0.72	341	5	6	65	mem	con	mod	mod	low	nt	ht	nh/0417_nh.bmp
252.72	0.72	342	1	6	54	mem	lib	mod	mod	mod	nt	ht	nh/0784_nh.bmp
253.44	0.72	343	1	6	56	mem	lib	mod	mod	mod	tg	ht	wh/0397.bmp
254.16	0.72	344	2	7	57	mem	con	mod	mod	mod	nt	ht	nh/0684_nh.bmp
254.88	0.72	345	1	5	28	per	con	mod	mod	mod	nt	cr	nh/0909_nh.bmp
255.60	0.72	346	3	6	85	per	con	low	mod	low	nt	cr	nh/0361_nh.bmp
256.32	0.72	347	3	7	85	per	con	mod	mod	mod	tg	ht	wh/0542.bmp
257.04	0.72	348	2	5	67	mem	lib	mod	mod	low	tg	ht	wh/0893.bmp
257.76	0.72	349	1	6	69	mem	con	mod	mod	low	nt	ms	nh/0153_nh.bmp
258.48	0.72	350	4	7	55	mem	con	mod	mod	mod	tg	ms	wh/0398.bmp
259.20	0.72	351	1	7	48	per	con	low	low	low	nt	cr	nh/0225_nh.bmp
259.92	0.72	352	2	6	47	per	lib	low	mod	low	nt	fa	nh/0345_nh.bmp
260.64	0.72	353	3	8	64	per	con	low	mod	low	nt	cr	nh/0660_nh.bmp
261.36	0.72	354	5	6	44	per	lib	low	mod	low	nt	cr	nh/0510_nh.bmp
262.08	0.72	355	1	5	21	per	con	mod	mod	mod	tg	ht	wh/0716.bmp
262.80	0.72	356	3	6	74	mem	con	mod	mod	low	tg	ht	wh/0150.bmp
263.52	0.72	357	1	7	3	per	lib	mod	mod	mod	tg	ht	wh/0094.bmp
264.24	0.72	358	3	5	80	mem	lib	mod	mod	low	nt	ht	nh/0568_nh.bmp
264.96	0.72	359	4	6	86	per	con	low	mod	low	tg	ms	wh/0036.bmp
265.68	0.72	360	2	7	90	per	con	mod	mod	mod	tg	ht	wh/0543.bmp
266.40	0.72	361	2	5	120	mem	con	mod	mod	mod	nt	ms	nh/0962_nh.bmp
267.12	0.72	362	3	6	81	per	con	low	mod	low	nt	cr	nh/0690_nh.bmp
267.84	0.72	363	6	7	54	mem	con	mod	mod	mod	nt	ms	nh/0442_nh.bmp
268.56	0.72	364	2	6	46	per	lib	low	mod	low	nt	cr	nh/0134_nh.bmp
269.28	0.72	365	1	6	25	mem	con	low	low	mod	tg	ms	wh/0469.bmp
270.00	0.72	366	1	5	9	mem	lib	low	low	mod	nt	ht	nh/0340_nh.bmp
270.72	0.72	367	5	8	99	mem	con	mod	mod	low	tg	ht	wh/0608.bmp
271.44	0.72	368	2	6	90	per	con	low	mod	low	nt	cr	nh/0443_nh.bmp
272.16	0.72	369	3	7	10	per	lib	mod	mod	mod	nt	cr	nh/0874_nh.bmp
272.88	0.72	370	4	6	108	per	lib	mod	mod	mod	tg	ht	wh/0182.bmp
273.60	0.72	371	3	7	57	mem	con	mod	mod	mod	nt	ht	nh/0684_nh.bmp
274.32	0.72	372	2	5	126	mem	con	mod	mod	mod	nt	ms	nh/0748_nh.bmp
275.04	0.72	373	2	6	64	mem	lib	mod	mod	mod	tg	ht	wh/0947.bmp
275.76	0.72	374	4	7	85	per	con	mod	mod	mod	tg	ht	wh/0542.bmp
276.48	0.72	375	1	6	61	mem	lib	mod	mod	mod	nt	ht	nh/0563_nh.bmp
277.20	0.72	376	3	8	5	mem	lib	mod	mod	low	tg	ht	wh/0074.bmp
277.92	0.72	377	3	6	47	per	lib	low	mod	low	nt	fa	nh/0345_nh.bmp
278.64	0.72	378	3	6	107	per	lib	mod	mod	mod	tg	ms	wh/0810.bmp
279.36	0.72	379	3	5	125	mem	con	mod	mod	mod	tg	ht	wh/0593.bmp
280.08	0.72	380	3	6	68	mem	con	mod	mod	low	tg	ht	wh/0451.bmp
280.80	0.72	381	3	8	102	mem	con	mod	mod	low	tg	ht	wh/0082.bmp
281.52	0.72	382	4	7	57	mem	con	mod	mod	mod	nt	ht	nh/0684_nh.bmp
282.24	0.72	383	1	8	125	mem	lib	low	low	low	tg	ht	wh/0113.bmp
282.96	0.72	384	4	6	81	per	con	low	mod	low	nt	cr	nh/0690_nh.bmp
283.68	0.72	385	5	5	73	mem	lib	mod	mod	low	nt	ht	nh/0577_nh.bmp
284.40	0.72	386	2	6	35	per	lib	low	mod	low	tg	ms	wh/0329.bmp
285.12	0.72	387	5	6	38	per	lib	low	mod	low	nt	cr	nh/0338_nh.bmp
285.84	0.72	388	4	5	66	mem	lib	mod	mod	low	tg	ht	wh/0489.bmp
286.56	0.72	389	4	5	70	mem	lib	mod	mod	low	tg	ht	wh/0619.bmp
287.28	0.72	390	2	6	51	mem	lib	mod	mod	mod	tg	ht	wh/0462.bmp
288.00	0.72	391	3	6	99	per	lib	mod	mod	mod	nt	fa	nh/0209_nh.bmp
288.72	0.72	392	2	5	18	per	con	mod	mod	mod	tg	ht	wh/0540.bmp
289.44	0.72	393	1	8	24	mem	con	low	low	low	tg	ms	wh/0655.bmp
290.16	0.72	394	6	5	73	mem	lib	mod	mod	low	nt	ht	nh/0577_nh.bmp
290.88	0.72	395	4	8	74	per	lib	low	mod	low	tg	ms	wh/0351.bmp
291.60	0.72	396	4	7	87	per	con	mod	mod	mod	nt	cr	nh/0099_nh.bmp
292.32	0.72	397	2	8	51	per	con	low	mod	low	nt	cr	nh/0035_nh.bmp
293.04	0.72	398	3	7	60	mem	con	mod	mod	mod	nt	ms	nh/0380_nh.bmp
293.76	0.72	399	4	7	6	per	lib	mod	mod	mod	nt	cr	nh/0222_nh.bmp
294.48	0.72	400	2	6	111	per	lib	mod	mod	mod	nt	cr	nh/0273_nh.bmp
295.20	0.72	401	5	6	108	per	lib	mod	mod	mod	tg	ht	wh/0182.bmp
295.92	0.72	402	4	6	93	per	con	low	mod	low	nt	cr	nh/0760_nh.bmp
296.64	0.72	403	4	7	88	per	con	mod	mod	mod	tg	ht	wh/0680.bmp
297.36	0.72	404	1	6	9	per	con	mod	low	mod	tg	ht	wh/0736.bmp
298.08	0.72	405	2	8	104	mem	con	mod	mod	low	nt	ht	nh/1023_nh.bmp
298.80	0.72	406	3	8	104	mem	con	mod	mod	low	nt	ht	nh/1023_nh.bmp
299.52	0.72	407	3	6	46	per	lib	low	mod	low	nt	cr	nh/0134_nh.bmp
300.24	0.72	408	3	5	126	mem	con	mod	mod	mod	nt	ms	nh/0748_nh.bmp
300.96	0.72	409	3	8	112	mem	con	mod	mod	low	tg	ms	wh/0964.bmp
301.68	0.72	410	1	5	99	per	lib	low	low	low	tg	ht	wh/0845.bmp
302.40	0.72	411	2	5	69	mem	lib	mod	mod	low	nt	ht	nh/0503_nh.bmp
303.12	0.72	412	4	6	68	mem	con	mod	mod	low	tg	ht	wh/0451.bmp
303.84	0.72	413	1	6	127	mem	lib	low	low	low	nt	ht	nh/0701_nh.bmp
304.56	0.72	414	5	7	53	mem	con	mod	mod	mod	tg	ht	wh/0591.bmp
305.28	0.72	415	2	6	62	mem	lib	mod	mod	mod	tg	ht	wh/0973.bmp
306.00	0.72	416	3	6	51	mem	lib	mod	mod	mod	tg	ht	wh/0462.bmp
306.72	0.72	417	3	6	35	per	lib	low	mod	low	tg	ms	wh/0329.bmp
307.44	0.72	418	4	8	106	mem	con	mod	mod	low	tg	ht	wh/0635.bmp
308.16	0.72	419	3	8	70	per	lib	low	mod	low	tg	ms	wh/0758.bmp
308.88	0.72	420	4	6	107	per	lib	mod	mod	mod	tg	ms	wh/0810.bmp
309.60	0.72	421	5	6	107	per	lib	mod	mod	mod	tg	ms	wh/0810.bmp
310.32	0.72	422	2	7	76	mem	lib	mod	mod	mod	nt	ht	nh/0396_nh.bmp
311.04	0.72	423	1	6	31	mem	con	low	low	mod	nt	ms	nh/0068_nh.bmp
311.76	0.72	424	2	6	82	per	con	low	mod	low	tg	ms	wh/0232.bmp
312.48	0.72	425	2	8	4	mem	lib	mod	mod	low	tg	ht	wh/0967.bmp
313.20	0.72	426	3	6	64	mem	lib	mod	mod	mod	tg	ht	wh/0947.bmp
313.92	0.72	427	5	5	128	mem	con	mod	mod	mod	nt	ht	nh/0957_nh.bmp
314.64	0.72	428	5	5	32	per	con	mod	mod	mod	nt	cr	nh/0371_nh.bmp
315.36	0.72	429	3	5	18	per	con	mod	mod	mod	tg	ht	wh/0540.bmp
316.08	0.72	430	1	8	39	per	lib	mod	low	mod	nt	cr	nh/0301_nh.bmp
316.80	0.72	431	4	8	97	mem	con	mod	mod	low	nt	ms	nh/0123_nh.bmp
317.52	0.72	432	3	7	12	per	lib	mod	mod	mod	nt	fa	nh/0199_nh.bmp
318.24	0.72	433	3	7	63	mem	con	mod	mod	mod	tg	ht	wh/0902.bmp
318.96	0.72	434	1	8	110	mem	con	mod	mod	low	nt	ht	nh/0493_nh.bmp
319.68	0.72	435	5	7	80	mem	lib	mod	mod	mod	nt	ht	nh/0843_nh.bmp
320.40	0.72	436	1	6	4	per	con	mod	low	mod	nt	cr	nh/0461_nh.bmp
321.12	0.72	437	3	7	94	per	con	mod	mod	mod	nt	cr	nh/0446_nh.bmp
321.84	0.72	438	2	5	21	per	con	mod	mod	mod	tg	ht	wh/0716.bmp
322.56	0.72	439	1	5	58	per	con	low	low	low	nt	fa	nh/1009_nh.bmp
323.28	0.72	440	4	5	80	mem	lib	mod	mod	low	nt	ht	nh/0568_nh.bmp
324.00	0.72	441	3	8	73	per	lib	low	mod	low	nt	cr	nh/0355_nh.bmp
324.72	0.72	442	1	8	93	per	con	mod	low	mod	tg	ms	wh/0025.bmp
325.44	0.72	443	3	5	120	mem	con	mod	mod	mod	nt	ms	nh/0962_nh.bmp
326.16	0.72	444	3	7	77	mem	lib	mod	mod	mod	nt	ms	nh/0588_nh.bmp
326.88	0.72	445	1	5	95	mem	con	low	low	low	nt	ms	nh/0148_nh.bmp
327.60	0.72	446	3	6	62	mem	lib	mod	mod	mod	tg	ht	wh/0973.bmp
328.32	0.72	447	4	6	35	per	lib	low	mod	low	tg	ms	wh/0329.bmp
329.04	0.72	448	1	6	32	mem	con	low	low	mod	nt	ms	nh/0992_nh.bmp
329.76	0.72	449	1	5	30	per	con	mod	mod	mod	tg	ht	wh/0807.bmp
330.48	0.72	450	5	7	88	per	con	mod	mod	mod	tg	ht	wh/0680.bmp
331.20	0.72	451	1	5	1	mem	lib	low	low	mod	tg	ht	wh/0059.bmp
331.92	0.72	452	2	8	3	mem	lib	mod	mod	low	tg	ht	wh/0190.bmp
332.64	0.72	453	1	5	110	per	lib	low	low	low	tg	ht	wh/0706.bmp
333.36	0.72	454	2	7	9	per	lib	mod	mod	mod	nt	cr	nh/0941_nh.bmp
334.08	0.72	455	1	5	63	per	con	low	low	low	nt	cr	nh/0831_nh.bmp
334.80	0.72	456	5	5	119	mem	con	mod	mod	mod	tg	ms	wh/0558.bmp
335.52	0.72	457	4	7	77	mem	lib	mod	mod	mod	nt	ms	nh/0588_nh.bmp
336.24	0.72	458	2	5	28	per	con	mod	mod	mod	nt	cr	nh/0909_nh.bmp
336.96	0.72	459	3	5	31	per	con	mod	mod	mod	nt	n/a	nh/0928_nh.bmp
337.68	0.72	460	3	8	107	mem	con	mod	mod	low	nt	ms	nh/0934_nh.bmp
338.40	0.72	461	1	8	45	per	lib	mod	low	mod	tg	ms	wh/0525.bmp
339.12	0.72	462	5	7	77	mem	lib	mod	mod	mod	nt	ms	nh/0588_nh.bmp
339.84	0.72	463	3	5	69	mem	lib	mod	mod	low	nt	ht	nh/0503_nh.bmp
340.56	0.72	464	1	6	16	per	con	mod	low	mod	nt	cr	nh/0849_nh.bmp
341.28	0.72	465	4	6	46	per	lib	low	mod	low	nt	cr	nh/0134_nh.bmp
342.00	0.72	466	1	6	1	per	con	mod	low	mod	tg	ht	wh/0838.bmp
342.72	0.72	467	5	7	52	mem	con	mod	mod	mod	tg	ht	wh/0328.bmp
343.44	0.72	468	2	6	103	per	lib	mod	mod	mod	nt	cr	nh/0805_nh.bmp
344.16	0.72	469	3	6	103	per	lib	mod	mod	mod	nt	cr	nh/0805_nh.bmp
344.88	0.72	470	3	6	82	per	con	low	mod	low	tg	ms	wh/0232.bmp
345.60	0.72	471	4	8	5	mem	lib	mod	mod	low	tg	ht	wh/0074.bmp
346.32	0.72	472	4	8	65	per	lib	low	mod	low	nt	fa	nh/0404_nh.bmp
347.04	0.72	473	6	6	108	per	lib	mod	mod	mod	tg	ht	wh/0182.bmp
347.76	0.72	474	1	8	12	mem	lib	mod	mod	low	tg	ht	wh/0075.bmp
348.48	0.72	475	4	6	47	per	lib	low	mod	low	nt	fa	nh/0345_nh.bmp
349.20	0.72	476	4	8	73	per	lib	low	mod	low	nt	cr	nh/0355_nh.bmp
349.92	0.72	477	3	5	78	mem	lib	mod	mod	low	tg	ht	wh/0029.bmp
350.64	0.72	478	4	7	67	mem	lib	mod	mod	mod	tg	ht	wh/0095.bmp
351.36	0.72	479	2	8	66	per	lib	low	mod	low	tg	ht	wh/0364.bmp
352.08	0.72	480	2	7	8	per	lib	mod	mod	mod	tg	ht	wh/0187.bmp
352.80	0.72	481	3	7	8	per	lib	mod	mod	mod	tg	ht	wh/0187.bmp
353.52	0.72	482	4	5	125	mem	con	mod	mod	mod	tg	ht	wh/0593.bmp
354.24	0.72	483	5	6	46	per	lib	low	mod	low	nt	cr	nh/0134_nh.bmp
354.96	0.72	484	4	7	4	per	lib	mod	mod	mod	tg	ms	wh/0855.bmp
355.68	0.72	485	3	8	80	per	lib	low	mod	low	tg	ms	wh/0256.bmp
356.40	0.72	486	5	7	57	mem	con	mod	mod	mod	nt	ht	nh/0684_nh.bmp
357.12	0.72	487	5	8	73	per	lib	low	mod	low	nt	cr	nh/0355_nh.bmp
357.84	0.72	488	4	8	104	mem	con	mod	mod	low	nt	ht	nh/1023_nh.bmp
358.56	0.72	489	1	5	54	per	con	low	low	low	nt	cr	nh/0088_nh.bmp
359.28	0.72	490	4	8	102	mem	con	mod	mod	low	tg	ht	wh/0082.bmp
360.00	0.72	491	1	8	114	mem	lib	low	low	low	nt	ms	nh/0146_nh.bmp
360.72	0.72	492	4	6	37	per	lib	low	mod	low	tg	ms	wh/0382.bmp
361.44	0.72	493	4	5	31	per	con	mod	mod	mod	nt	n/a	nh/0928_nh.bmp
362.16	0.72	494	2	7	3	per	lib	mod	mod	mod	tg	ht	wh/0094.bmp
362.88	0.72	495	5	6	35	per	lib	low	mod	low	tg	ms	wh/0329.bmp
363.60	0.72	496	3	6	111	per	lib	mod	mod	mod	nt	cr	nh/0273_nh.bmp
364.32	0.72	497	2	5	30	per	con	mod	mod	mod	tg	ht	wh/0807.bmp
365.04	0.72	498	4	6	111	per	lib	mod	mod	mod	nt	cr	nh/0273_nh.bmp
365.76	0.72	499	5	7	86	per	con	mod	mod	mod	tg	ht	wh/0594.bmp
366.48	0.72	500	5	6	47	per	lib	low	mod	low	nt	fa	nh/0345_nh.bmp
367.20	0.72	501	5	6	91	per	con	low	mod	low	tg	ms	wh/0818.bmp
367.92	0.72	502	1	6	15	per	con	mod	low	mod	nt	cr	nh/1024_nh.bmp
368.64	0.72	503	2	6	61	mem	lib	mod	mod	mod	nt	ht	nh/0563_nh.bmp
369.36	0.72	504	4	8	53	per	con	low	mod	low	nt	fa	nh/0194_nh.bmp
370.08	0.72	505	4	5	120	mem	con	mod	mod	mod	nt	ms	nh/0962_nh.bmp
370.80	0.72	506	3	6	90	per	con	low	mod	low	nt	cr	nh/0443_nh.bmp
371.52	0.72	507	3	6	78	mem	con	mod	mod	low	nt	ht	nh/0613_nh.bmp
372.24	0.72	508	4	5	123	mem	con	mod	mod	mod	nt	ms	nh/0946_nh.bmp
372.96	0.72	509	4	7	12	per	lib	mod	mod	mod	nt	fa	nh/0199_nh.bmp
373.68	0.72	510	3	8	3	mem	lib	mod	mod	low	tg	ht	wh/0190.bmp
374.40	0.72	511	4	5	78	mem	lib	mod	mod	low	tg	ht	wh/0029.bmp
375.12	0.72	512	5	7	67	mem	lib	mod	mod	mod	tg	ht	wh/0095.bmp
375.84	0.72	513	4	6	102	per	lib	mod	mod	mod	tg	ht	wh/0904.bmp
376.56	0.72	514	3	7	90	per	con	mod	mod	mod	tg	ht	wh/0543.bmp
377.28	0.72	515	5	7	55	mem	con	mod	mod	mod	tg	ms	wh/0398.bmp
378.00	0.72	516	3	6	57	mem	lib	mod	mod	mod	nt	ht	nh/0548_nh.bmp
378.72	0.72	517	4	7	79	mem	lib	mod	mod	mod	tg	ht	wh/0954.bmp
379.44	0.72	518	2	8	12	mem	lib	mod	mod	low	tg	ht	wh/0075.bmp
380.16	0.72	519	4	6	64	mem	lib	mod	mod	mod	tg	ht	wh/0947.bmp
380.88	0.72	520	5	5	66	mem	lib	mod	mod	low	tg	ht	wh/0489.bmp
381.60	0.72	521	2	6	56	mem	lib	mod	mod	mod	tg	ht	wh/0397.bmp
382.32	0.72	522	1	5	60	per	con	low	low	low	nt	cr	nh/0292_nh.bmp
383.04	0.72	523	4	6	99	per	lib	mod	mod	mod	nt	fa	nh/0209_nh.bmp
383.76	0.72	524	4	7	72	mem	lib	mod	mod	mod	nt	ht	nh/0497_nh.bmp
384.48	0.72	525	3	5	21	per	con	mod	mod	mod	tg	ht	wh/0716.bmp
385.20	0.72	526	1	7	25	per	lib	low	low	low	nt	cr	nh/0804_nh.bmp
385.92	0.72	527	3	7	3	per	lib	mod	mod	mod	tg	ht	wh/0094.bmp
386.64	0.72	528	1	5	3	mem	lib	low	low	mod	tg	ht	wh/0598.bmp
387.36	0.72	529	4	6	78	mem	con	mod	mod	low	nt	ht	nh/0613_nh.bmp
388.08	0.72	530	5	8	65	per	lib	low	mod	low	nt	fa	nh/0404_nh.bmp
388.80	0.72	531	1	7	111	mem	con	low	low	mod	nt	ms	nh/0044_nh.bmp
389.52	0.72	532	5	6	37	per	lib	low	mod	low	tg	ms	wh/0382.bmp
390.24	0.72	533	4	6	77	mem	con	mod	mod	low	tg	ht	wh/0336.bmp
390.96	0.72	534	1	5	109	per	lib	low	low	low	nt	cr	nh/0433_nh.bmp
391.68	0.72	535	5	7	75	mem	lib	mod	mod	mod	tg	ht	wh/0697.bmp
392.40	0.72	536	5	6	64	mem	lib	mod	mod	mod	tg	ht	wh/0947.bmp
393.12	0.72	537	5	5	125	mem	con	mod	mod	mod	tg	ht	wh/0593.bmp
393.84	0.72	538	1	8	34	per	lib	mod	low	mod	nt	fa	nh/0927_nh.bmp
394.56	0.72	539	1	8	42	per	lib	mod	low	mod	tg	ht	wh/0890.bmp
395.28	0.72	540	6	8	65	per	lib	low	mod	low	nt	fa	nh/0404_nh.bmp
396.00	0.72	541	5	6	111	per	lib	mod	mod	mod	nt	cr	nh/0273_nh.bmp
396.72	0.72	542	4	6	82	per	con	low	mod	low	tg	ms	wh/0232.bmp
397.44	0.72	543	6	6	65	mem	con	mod	mod	low	nt	ht	nh/0417_nh.bmp
398.16	0.72	544	3	6	53	mem	lib	mod	mod	mod	nt	ms	nh/0447_nh.bmp
398.88	0.72	545	5	8	5	mem	lib	mod	mod	low	tg	ht	wh/0074.bmp
399.60	0.72	546	3	8	66	per	lib	low	mod	low	tg	ht	wh/0364.bmp
400.32	0.72	547	5	5	70	mem	lib	mod	mod	low	tg	ht	wh/0619.bmp
401.04	0.72	548	5	8	97	mem	con	mod	mod	low	nt	ms	nh/0123_nh.bmp
401.76	0.72	549	5	6	86	per	con	low	mod	low	tg	ms	wh/0036.bmp
402.48	0.72	550	1	5	94	mem	con	low	low	low	nt	ms	nh/0488_nh.bmp
403.20	0.72	551	3	8	71	per	lib	low	mod	low	nt	cr	nh/0744_nh.bmp
403.92	0.72	552	6	7	55	mem	con	mod	mod	mod	tg	ms	wh/0398.bmp
404.64	0.72	553	3	5	74	mem	lib	mod	mod	low	nt	ht	nh/0508_nh.bmp
405.36	0.72	554	4	5	126	mem	con	mod	mod	mod	nt	ms	nh/0748_nh.bmp
406.08	0.72	555	4	7	60	mem	con	mod	mod	mod	nt	ms	nh/0380_nh.bmp
406.80	0.72	556	1	6	126	mem	lib	low	low	low	nt	ht	nh/0370_nh.bmp
407.52	0.72	557	4	7	63	mem	con	mod	mod	mod	tg	ht	wh/0902.bmp
408.24	0.72	558	2	5	17	per	con	mod	mod	mod	nt	cr	nh/0803_nh.bmp
408.96	0.72	559	1	6	19	mem	con	low	low	mod	nt	ms	nh/0048_nh.bmp
409.68	0.72	560	2	8	13	mem	lib	mod	mod	low	nt	ht	nh/0125_nh.bmp
410.40	0.72	561	6	6	86	per	con	low	mod	low	tg	ms	wh/0036.bmp
411.12	0.72	562	4	6	53	mem	lib	mod	mod	mod	nt	ms	nh/0447_nh.bmp
411.84	0.72	563	5	6	77	mem	con	mod	mod	low	tg	ht	wh/0336.bmp
412.56	0.72	564	2	5	114	mem	con	mod	mod	mod	tg	ms	wh/0339.bmp
413.28	0.72	565	4	8	66	per	lib	low	mod	low	tg	ht	wh/0364.bmp
414.00	0.72	566	4	8	71	per	lib	low	mod	low	nt	cr	nh/0744_nh.bmp
414.72	0.72	567	3	7	9	per	lib	mod	mod	mod	nt	cr	nh/0941_nh.bmp
415.44	0.72	568	4	6	62	mem	lib	mod	mod	mod	tg	ht	wh/0973.bmp
416.16	0.72	569	3	8	4	mem	lib	mod	mod	low	tg	ht	wh/0967.bmp
416.88	0.72	570	3	5	67	mem	lib	mod	mod	low	tg	ht	wh/0893.bmp
417.60	0.72	571	2	8	110	mem	con	mod	mod	low	nt	ht	nh/0493_nh.bmp
418.32	0.72	572	4	8	112	mem	con	mod	mod	low	tg	ms	wh/0964.bmp
419.04	0.72	573	4	7	95	per	con	mod	mod	mod	nt	cr	nh/0196_nh.bmp
419.76	0.72	574	4	8	80	per	lib	low	mod	low	tg	ms	wh/0256.bmp
420.48	0.72	575	4	8	61	per	con	low	mod	low	tg	ms	wh/0080.bmp
421.20	0.72	576	6	5	125	mem	con	mod	mod	mod	tg	ht	wh/0593.bmp
421.92	0.72	577	6	5	119	mem	con	mod	mod	mod	tg	ms	wh/0558.bmp
422.64	0.72	578	1	7	99	mem	con	low	low	mod	tg	ht	wh/0096.bmp
423.36	0.72	579	1	5	15	mem	lib	low	low	mod	nt	ms	nh/0782_nh.bmp
424.08	0.72	580	3	6	106	per	lib	mod	mod	mod	nt	fa	nh/0428_nh.bmp
424.80	0.72	581	3	8	6	mem	lib	mod	mod	low	nt	ht	nh/0465_nh.bmp
425.52	0.72	582	2	5	116	mem	con	mod	mod	mod	tg	ht	wh/0350.bmp
426.24	0.72	583	5	6	48	per	lib	low	mod	low	tg	ms	wh/0284.bmp
426.96	0.72	584	4	6	57	mem	lib	mod	mod	mod	nt	ht	nh/0548_nh.bmp
427.68	0.72	585	4	8	64	per	con	low	mod	low	nt	cr	nh/0660_nh.bmp
428.40	0.72	586	1	8	20	mem	con	low	low	low	tg	ms	wh/0266.bmp
429.12	0.72	587	5	7	12	per	lib	mod	mod	mod	nt	fa	nh/0199_nh.bmp
429.84	0.72	588	1	7	28	per	lib	low	low	low	nt	fa	nh/0384_nh.bmp
430.56	0.72	589	5	7	72	mem	lib	mod	mod	mod	nt	ht	nh/0497_nh.bmp
431.28	0.72	590	1	5	42	per	lib	mod	low	mod	nt	cr	nh/0966_nh.bmp
432.00	0.72	591	4	7	16	per	lib	mod	mod	mod	tg	ht	wh/0319.bmp
432.72	0.72	592	3	8	51	per	con	low	mod	low	nt	cr	nh/0035_nh.bmp
433.44	0.72	593	6	8	97	mem	con	mod	mod	low	nt	ms	nh/0123_nh.bmp
434.16	0.72	594	3	5	114	mem	con	mod	mod	mod	tg	ms	wh/0339.bmp
434.88	0.72	595	5	6	78	mem	con	mod	mod	low	nt	ht	nh/0613_nh.bmp
435.60	0.72	596	5	8	106	mem	con	mod	mod	low	tg	ht	wh/0635.bmp
436.32	0.72	597	1	8	18	mem	con	low	low	low	tg	ms	wh/0439.bmp
437.04	0.72	598	4	6	103	per	lib	mod	mod	mod	nt	cr	nh/0805_nh.bmp
437.76	0.72	599	1	8	31	mem	con	low	low	low	nt	ms	nh/0536_nh.bmp
438.48	0.72	600	3	8	77	per	lib	low	mod	low	nt	cr	nh/0730_nh.bmp
439.20	0.72	601	4	7	90	per	con	mod	mod	mod	tg	ht	wh/0543.bmp
439.92	0.72	602	5	5	123	mem	con	mod	mod	mod	nt	ms	nh/0946_nh.bmp
440.64	0.72	603	3	5	28	per	con	mod	mod	mod	nt	cr	nh/0909_nh.bmp
441.36	0.72	604	4	8	70	per	lib	low	mod	low	tg	ms	wh/0758.bmp
442.08	0.72	605	5	6	57	mem	lib	mod	mod	mod	nt	ht	nh/0548_nh.bmp
442.80	0.72	606	5	7	79	mem	lib	mod	mod	mod	tg	ht	wh/0954.bmp
443.52	0.72	607	1	8	126	mem	lib	low	low	low	nt	ht	nh/0452_nh.bmp
444.24	0.72	608	3	8	110	mem	con	mod	mod	low	nt	ht	nh/0493_nh.bmp
444.96	0.72	609	4	8	107	mem	con	mod	mod	low	nt	ms	nh/0934_nh.bmp
445.68	0.72	610	1	8	121	mem	lib	low	low	low	tg	ht	wh/0710.bmp
446.40	0.72	611	4	8	110	mem	con	mod	mod	low	nt	ht	nh/0493_nh.bmp
447.12	0.72	612	5	7	68	mem	lib	mod	mod	mod	tg	ht	wh/0876.bmp
447.84	0.72	613	4	6	40	per	lib	low	mod	low	tg	ht	wh/0299.bmp
448.56	0.72	614	5	8	74	per	lib	low	mod	low	tg	ms	wh/0351.bmp
449.28	0.72	615	5	7	91	per	con	mod	mod	mod	nt	cr	nh/0714_nh.bmp
450.00	0.72	616	6	5	70	mem	lib	mod	mod	low	tg	ht	wh/0619.bmp
450.72	0.72	617	4	5	67	mem	lib	mod	mod	low	tg	ht	wh/0893.bmp
451.44	0.72	618	6	7	72	mem	lib	mod	mod	mod	nt	ht	nh/0497_nh.bmp
452.16	0.72	619	3	6	56	mem	lib	mod	mod	mod	tg	ht	wh/0397.bmp
452.88	0.72	620	1	7	38	per	con	low	low	low	tg	ms	wh/0460.bmp
453.60	0.72	621	4	6	90	per	con	low	mod	low	nt	cr	nh/0443_nh.bmp
454.32	0.72	622	3	8	12	mem	lib	mod	mod	low	tg	ht	wh/0075.bmp
455.04	0.72	623	5	7	87	per	con	mod	mod	mod	nt	cr	nh/0099_nh.bmp
455.76	0.72	624	6	7	87	per	con	mod	mod	mod	nt	cr	nh/0099_nh.bmp
456.48	0.72	625	4	7	94	per	con	mod	mod	mod	nt	cr	nh/0446_nh.bmp
457.20	0.72	626	4	7	9	per	lib	mod	mod	mod	nt	cr	nh/0941_nh.bmp
457.92	0.72	627	2	6	69	mem	con	mod	mod	low	nt	ms	nh/0153_nh.bmp
458.64	0.72	628	5	8	61	per	con	low	mod	low	tg	ms	wh/0080.bmp
459.36	0.72	629	5	7	63	mem	con	mod	mod	mod	tg	ht	wh/0902.bmp
460.08	0.72	630	1	5	5	mem	lib	low	low	mod	tg	ht	wh/0290.bmp
460.80	0.72	631	3	5	30	per	con	mod	mod	mod	tg	ht	wh/0807.bmp
461.52	0.72	632	4	5	18	per	con	mod	mod	mod	tg	ht	wh/0540.bmp
462.24	0.72	633	5	7	94	per	con	mod	mod	mod	nt	cr	nh/0446_nh.bmp
462.96	0.72	634	1	5	106	per	lib	low	low	low	tg	ms	wh/0458.bmp
463.68	0.72	635	6	6	46	per	lib	low	mod	low	nt	cr	nh/0134_nh.bmp
464.40	0.72	636	5	7	90	per	con	mod	mod	mod	tg	ht	wh/0543.bmp
465.12	0.72	637	3	7	62	mem	con	mod	mod	mod	nt	ht	nh/0795_nh.bmp
465.84	0.72	638	5	6	40	per	lib	low	mod	low	tg	ht	wh/0299.bmp
466.56	0.72	639	4	8	49	per	con	low	mod	low	nt	cr	nh/0963_nh.bmp
467.28	0.72	640	1	7	23	per	lib	low	low	low	tg	ht	wh/0633.bmp
468.00	0.72	641	6	6	111	per	lib	mod	mod	mod	nt	cr	nh/0273_nh.bmp
468.72	0.72	642	3	7	76	mem	lib	mod	mod	mod	nt	ht	nh/0396_nh.bmp
469.44	0.72	643	5	5	120	mem	con	mod	mod	mod	nt	ms	nh/0962_nh.bmp
470.16	0.72	644	6	5	32	per	con	mod	mod	mod	nt	cr	nh/0371_nh.bmp
470.88	0.72	645	3	5	116	mem	con	mod	mod	mod	tg	ht	wh/0350.bmp
471.60	0.72	646	6	7	53	mem	con	mod	mod	mod	tg	ht	wh/0591.bmp
472.32	0.72	647	1	7	107	mem	con	low	low	mod	nt	ms	nh/0306_nh.bmp
473.04	0.72	648	6	8	5	mem	lib	mod	mod	low	tg	ht	wh/0074.bmp
473.76	0.72	649	4	7	8	per	lib	mod	mod	mod	tg	ht	wh/0187.bmp
474.48	0.72	650	5	8	110	mem	con	mod	mod	low	nt	ht	nh/0493_nh.bmp
475.20	0.72	651	5	7	8	per	lib	mod	mod	mod	tg	ht	wh/0187.bmp
475.92	0.72	652	5	8	70	per	lib	low	mod	low	tg	ms	wh/0758.bmp
476.64	0.72	653	4	7	76	mem	lib	mod	mod	mod	nt	ht	nh/0396_nh.bmp
477.36	0.72	654	3	6	69	mem	con	mod	mod	low	nt	ms	nh/0153_nh.bmp
478.08	0.72	655	1	5	37	per	lib	mod	low	mod	nt	fa	nh/0531_nh.bmp
478.80	0.72	656	6	6	35	per	lib	low	mod	low	tg	ms	wh/0329.bmp
479.52	0.72	657	4	8	77	per	lib	low	mod	low	nt	cr	nh/0730_nh.bmp
480.24	0.72	658	5	6	103	per	lib	mod	mod	mod	nt	cr	nh/0805_nh.bmp
480.96	0.72	659	4	8	51	per	con	low	mod	low	nt	cr	nh/0035_nh.bmp
481.68	0.72	660	5	6	62	mem	lib	mod	mod	mod	tg	ht	wh/0973.bmp
482.40	0.72	661	5	6	68	mem	con	mod	mod	low	tg	ht	wh/0451.bmp
483.12	0.72	662	4	8	3	mem	lib	mod	mod	low	tg	ht	wh/0190.bmp
483.84	0.72	663	5	6	81	per	con	low	mod	low	nt	cr	nh/0690_nh.bmp
484.56	0.72	664	6	7	57	mem	con	mod	mod	mod	nt	ht	nh/0684_nh.bmp
485.28	0.72	665	4	6	56	mem	lib	mod	mod	mod	tg	ht	wh/0397.bmp
486.00	0.72	666	5	6	72	mem	con	mod	mod	low	tg	ht	wh/0079.bmp
486.72	0.72	667	3	6	61	mem	lib	mod	mod	mod	nt	ht	nh/0563_nh.bmp
487.44	0.72	668	6	5	120	mem	con	mod	mod	mod	nt	ms	nh/0962_nh.bmp
488.16	0.72	669	5	8	53	per	con	low	mod	low	nt	fa	nh/0194_nh.bmp
488.88	0.72	670	4	6	51	mem	lib	mod	mod	mod	tg	ht	wh/0462.bmp
489.60	0.72	671	1	6	124	mem	lib	low	low	low	tg	ms	wh/0815.bmp
490.32	0.72	672	5	7	85	per	con	mod	mod	mod	tg	ht	wh/0542.bmp
491.04	0.72	673	6	8	53	per	con	low	mod	low	nt	fa	nh/0194_nh.bmp
491.76	0.72	674	4	8	56	per	con	low	mod	low	tg	ms	wh/0646.bmp
492.48	0.72	675	4	6	74	mem	con	mod	mod	low	tg	ht	wh/0150.bmp
493.20	0.72	676	6	6	64	mem	lib	mod	mod	mod	tg	ht	wh/0947.bmp
493.92	0.72	677	6	7	79	mem	lib	mod	mod	mod	tg	ht	wh/0954.bmp
494.64	0.72	678	4	5	74	mem	lib	mod	mod	low	nt	ht	nh/0508_nh.bmp
495.36	0.72	679	4	7	62	mem	con	mod	mod	mod	nt	ht	nh/0795_nh.bmp
496.08	0.72	680	5	7	16	per	lib	mod	mod	mod	tg	ht	wh/0319.bmp
496.80	0.72	681	1	6	30	mem	con	low	low	mod	tg	n/a	wh/0923.bmp
497.52	0.72	682	6	6	38	per	lib	low	mod	low	nt	cr	nh/0338_nh.bmp
498.24	0.72	683	5	6	74	mem	con	mod	mod	low	tg	ht	wh/0150.bmp
498.96	0.72	684	4	5	19	per	con	mod	mod	mod	tg	ht	wh/0772.bmp
499.68	0.72	685	5	8	71	per	lib	low	mod	low	nt	cr	nh/0744_nh.bmp
500.40	0.72	686	4	8	4	mem	lib	mod	mod	low	tg	ht	wh/0967.bmp
501.12	0.72	687	1	7	36	per	con	low	low	low	tg	ms	wh/0013.bmp
501.84	0.72	688	5	5	80	mem	lib	mod	mod	low	nt	ht	nh/0568_nh.bmp
502.56	0.72	689	5	8	51	per	con	low	mod	low	nt	cr	nh/0035_nh.bmp
503.28	0.72	690	5	6	56	mem	lib	mod	mod	mod	tg	ht	wh/0397.bmp
504.00	0.72	691	5	6	90	per	con	low	mod	low	nt	cr	nh/0443_nh.bmp
504.72	0.72	692	1	6	10	per	con	mod	low	mod	tg	ht	wh/1018.bmp
505.44	0.72	693	4	5	21	per	con	mod	mod	mod	tg	ht	wh/0716.bmp
506.16	0.72	694	4	6	110	per	lib	mod	mod	mod	tg	ht	wh/0650.bmp
506.88	0.72	695	4	5	116	mem	con	mod	mod	mod	tg	ht	wh/0350.bmp
507.60	0.72	696	5	7	62	mem	con	mod	mod	mod	nt	ht	nh/0795_nh.bmp
508.32	0.72	697	6	6	72	mem	con	mod	mod	low	tg	ht	wh/0079.bmp
509.04	0.72	698	4	8	6	mem	lib	mod	mod	low	nt	ht	nh/0465_nh.bmp
509.76	0.72	699	6	6	48	per	lib	low	mod	low	tg	ms	wh/0284.bmp
510.48	0.72	700	6	7	80	mem	lib	mod	mod	mod	nt	ht	nh/0843_nh.bmp
511.20	0.72	701	1	8	84	per	con	mod	low	mod	nt	cr	nh/0267_nh.bmp
511.92	0.72	702	5	6	71	mem	con	mod	mod	low	nt	ht	nh/0802_nh.bmp
512.64	0.72	703	6	7	52	mem	con	mod	mod	mod	tg	ht	wh/0328.bmp
513.36	0.72	704	5	6	51	mem	lib	mod	mod	mod	tg	ht	wh/0462.bmp
514.08	0.72	705	5	8	56	per	con	low	mod	low	tg	ms	wh/0646.bmp
514.80	0.72	706	6	6	107	per	lib	mod	mod	mod	tg	ms	wh/0810.bmp
515.52	0.72	707	3	8	13	mem	lib	mod	mod	low	nt	ht	nh/0125_nh.bmp
516.24	0.72	708	1	5	55	per	con	low	low	low	tg	ms	wh/0197.bmp
516.96	0.72	709	5	8	102	mem	con	mod	mod	low	tg	ht	wh/0082.bmp
517.68	0.72	710	5	8	49	per	con	low	mod	low	nt	cr	nh/0963_nh.bmp
518.40	0.72	711	1	8	124	mem	lib	low	low	low	nt	ht	nh/0483_nh.bmp
519.12	0.72	712	1	6	119	mem	lib	low	low	low	tg	ht	wh/0579.bmp
519.84	0.72	713	4	8	13	mem	lib	mod	mod	low	nt	ht	nh/0125_nh.bmp
520.56	0.72	714	4	5	30	per	con	mod	mod	mod	tg	ht	wh/0807.bmp
521.28	0.72	715	4	6	85	per	con	low	mod	low	nt	cr	nh/0361_nh.bmp
522.00	0.72	716	5	7	76	mem	lib	mod	mod	mod	nt	ht	nh/0396_nh.bmp
522.72	0.72	717	5	7	95	per	con	mod	mod	mod	nt	cr	nh/0196_nh.bmp
523.44	0.72	718	1	7	21	per	lib	low	low	low	nt	cr	nh/0956_nh.bmp
524.16	0.72	719	5	6	99	per	lib	mod	mod	mod	nt	fa	nh/0209_nh.bmp
524.88	0.72	720	4	5	28	per	con	mod	mod	mod	nt	cr	nh/0909_nh.bmp
525.60	0.72	721	1	7	40	per	con	low	low	low	nt	cr	nh/0437_nh.bmp
526.32	0.72	722	5	8	64	per	con	low	mod	low	nt	cr	nh/0660_nh.bmp
527.04	0.72	723	1	8	87	per	con	mod	low	mod	tg	ht	wh/0699.bmp
527.76	0.72	724	6	7	86	per	con	mod	mod	mod	tg	ht	wh/0594.bmp
528.48	0.72	725	5	6	93	per	con	low	mod	low	nt	cr	nh/0760_nh.bmp
529.20	0.72	726	5	8	4	mem	lib	mod	mod	low	tg	ht	wh/0967.bmp
529.92	0.72	727	5	8	6	mem	lib	mod	mod	low	nt	ht	nh/0465_nh.bmp
530.64	0.72	728	5	5	18	per	con	mod	mod	mod	tg	ht	wh/0540.bmp
531.36	0.72	729	2	6	54	mem	lib	mod	mod	mod	nt	ht	nh/0784_nh.bmp
532.08	0.72	730	5	6	82	per	con	low	mod	low	tg	ms	wh/0232.bmp
532.80	0.72	731	1	8	17	mem	con	low	low	low	tg	ms	wh/0158.bmp
533.52	0.72	732	6	7	62	mem	con	mod	mod	mod	nt	ht	nh/0795_nh.bmp
534.24	0.72	733	1	5	50	per	con	low	low	low	tg	ms	wh/0090.bmp
534.96	0.72	734	5	8	3	mem	lib	mod	mod	low	tg	ht	wh/0190.bmp
535.68	0.72	735	5	6	110	per	lib	mod	mod	mod	tg	ht	wh/0650.bmp
536.40	0.72	736	6	6	99	per	lib	mod	mod	mod	nt	fa	nh/0209_nh.bmp
537.12	0.72	737	5	5	31	per	con	mod	mod	mod	nt	n/a	nh/0928_nh.bmp
537.84	0.72	738	4	6	106	per	lib	mod	mod	mod	nt	fa	nh/0428_nh.bmp
538.56	0.72	739	4	7	3	per	lib	mod	mod	mod	tg	ht	wh/0094.bmp
539.28	0.72	740	6	5	66	mem	lib	mod	mod	low	tg	ht	wh/0489.bmp
540.00	0.72	741	1	8	94	per	con	mod	low	mod	tg	ht	wh/0870.bmp
540.72	0.72	742	3	6	54	mem	lib	mod	mod	mod	nt	ht	nh/0784_nh.bmp
541.44	0.72	743	5	8	107	mem	con	mod	mod	low	nt	ms	nh/0934_nh.bmp
542.16	0.72	744	5	5	126	mem	con	mod	mod	mod	nt	ms	nh/0748_nh.bmp
542.88	0.72	745	5	7	4	per	lib	mod	mod	mod	tg	ms	wh/0855.bmp
543.60	0.72	746	4	6	54	mem	lib	mod	mod	mod	nt	ht	nh/0784_nh.bmp
544.32	0.72	747	6	7	8	per	lib	mod	mod	mod	tg	ht	wh/0187.bmp
545.04	0.72	748	6	8	102	mem	con	mod	mod	low	tg	ht	wh/0082.bmp
545.76	0.72	749	1	5	101	per	lib	low	low	low	nt	fa	nh/0261_nh.bmp
546.48	0.72	750	1	5	35	per	lib	mod	low	mod	tg	ht	wh/0530.bmp
547.20	0.72	751	5	6	106	per	lib	mod	mod	mod	nt	fa	nh/0428_nh.bmp
547.92	0.72	752	6	7	76	mem	lib	mod	mod	mod	nt	ht	nh/0396_nh.bmp
548.64	0.72	753	1	8	92	per	con	mod	low	mod	nt	cr	nh/0092_nh.bmp
549.36	0.72	754	6	6	110	per	lib	mod	mod	mod	tg	ht	wh/0650.bmp
550.08	0.72	755	5	5	67	mem	lib	mod	mod	low	tg	ht	wh/0893.bmp
550.80	0.72	756	4	7	10	per	lib	mod	mod	mod	nt	cr	nh/0874_nh.bmp
551.52	0.72	757	5	6	53	mem	lib	mod	mod	mod	nt	ms	nh/0447_nh.bmp
552.24	0.72	758	4	8	2	mem	lib	mod	mod	low	nt	ht	nh/0383_nh.bmp
552.96	0.72	759	4	6	69	mem	con	mod	mod	low	nt	ms	nh/0153_nh.bmp
553.68	0.72	760	6	7	68	mem	lib	mod	mod	mod	tg	ht	wh/0876.bmp
554.40	0.72	761	6	6	91	per	con	low	mod	low	tg	ms	wh/0818.bmp
555.12	0.72	762	5	8	66	per	lib	low	mod	low	tg	ht	wh/0364.bmp
555.84	0.72	763	3	5	17	per	con	mod	mod	mod	nt	cr	nh/0803_nh.bmp
556.56	0.72	764	6	5	123	mem	con	mod	mod	mod	nt	ms	nh/0946_nh.bmp
557.28	0.72	765	5	6	102	per	lib	mod	mod	mod	tg	ht	wh/0904.bmp
558.00	0.72	766	6	6	106	per	lib	mod	mod	mod	nt	fa	nh/0428_nh.bmp
558.72	0.72	767	1	7	97	mem	con	low	low	mod	nt	ms	nh/0693_nh.bmp
559.44	0.72	768	5	8	112	mem	con	mod	mod	low	tg	ms	wh/0964.bmp
560.16	0.72	769	6	8	64	per	con	low	mod	low	nt	cr	nh/0660_nh.bmp
560.88	0.72	770	6	7	91	per	con	mod	mod	mod	nt	cr	nh/0714_nh.bmp
561.60	0.72	771	5	5	30	per	con	mod	mod	mod	tg	ht	wh/0807.bmp
562.32	0.72	772	6	6	74	mem	con	mod	mod	low	tg	ht	wh/0150.bmp
563.04	0.72	773	6	8	71	per	lib	low	mod	low	nt	cr	nh/0744_nh.bmp
563.76	0.72	774	5	8	13	mem	lib	mod	mod	low	nt	ht	nh/0125_nh.bmp
564.48	0.72	775	5	5	78	mem	lib	mod	mod	low	tg	ht	wh/0029.bmp
565.20	0.72	776	5	8	80	per	lib	low	mod	low	tg	ms	wh/0256.bmp
565.92	0.72	777	6	5	67	mem	lib	mod	mod	low	tg	ht	wh/0893.bmp
566.64	0.72	778	6	6	51	mem	lib	mod	mod	mod	tg	ht	wh/0462.bmp
567.36	0.72	779	6	8	13	mem	lib	mod	mod	low	nt	ht	nh/0125_nh.bmp
568.08	0.72	780	5	7	9	per	lib	mod	mod	mod	nt	cr	nh/0941_nh.bmp
568.80	0.72	781	6	8	62	per	con	low	mod	low	tg	ht	wh/0032.bmp
569.52	0.72	782	6	7	95	per	con	mod	mod	mod	nt	cr	nh/0196_nh.bmp
570.24	0.72	783	1	7	43	per	con	low	low	low	nt	cr	nh/0731_nh.bmp
570.96	0.72	784	5	5	28	per	con	mod	mod	mod	nt	cr	nh/0909_nh.bmp
571.68	0.72	785	5	6	83	per	con	low	mod	low	tg	ms	wh/0077.bmp
572.40	0.72	786	6	8	56	per	con	low	mod	low	tg	ms	wh/0646.bmp
573.12	0.72	787	5	5	74	mem	lib	mod	mod	low	nt	ht	nh/0508_nh.bmp
573.84	0.72	788	4	8	12	mem	lib	mod	mod	low	tg	ht	wh/0075.bmp
574.56	0.72	789	6	6	56	mem	lib	mod	mod	mod	tg	ht	wh/0397.bmp
575.28	0.72	790	6	6	57	mem	lib	mod	mod	mod	nt	ht	nh/0548_nh.bmp
576.00	0.72	791	6	6	90	per	con	low	mod	low	nt	cr	nh/0443_nh.bmp
576.72	0.72	792	5	8	2	mem	lib	mod	mod	low	nt	ht	nh/0383_nh.bmp
577.44	0.72	793	1	5	36	per	lib	mod	low	mod	nt	fa	nh/0936_nh.bmp
578.16	0.72	794	6	8	66	per	lib	low	mod	low	tg	ht	wh/0364.bmp
578.88	0.72	795	6	7	16	per	lib	mod	mod	mod	tg	ht	wh/0319.bmp
579.60	0.72	796	6	5	31	per	con	mod	mod	mod	nt	n/a	nh/0928_nh.bmp
580.32	0.72	797	6	6	93	per	con	low	mod	low	nt	cr	nh/0760_nh.bmp
581.04	0.72	798	6	8	6	mem	lib	mod	mod	low	nt	ht	nh/0465_nh.bmp
581.76	0.72	799	5	8	77	per	lib	low	mod	low	nt	cr	nh/0730_nh.bmp
582.48	0.72	800	6	8	110	mem	con	mod	mod	low	nt	ht	nh/0493_nh.bmp
583.20	0.72	801	5	7	3	per	lib	mod	mod	mod	tg	ht	wh/0094.bmp
583.92	0.72	802	5	6	69	mem	con	mod	mod	low	nt	ms	nh/0153_nh.bmp
584.64	0.72	803	6	5	80	mem	lib	mod	mod	low	nt	ht	nh/0568_nh.bmp
585.36	0.72	804	6	6	62	mem	lib	mod	mod	mod	tg	ht	wh/0973.bmp
586.08	0.72	805	6	8	3	mem	lib	mod	mod	low	tg	ht	wh/0190.bmp
586.80	0.72	806	6	6	44	per	lib	low	mod	low	nt	cr	nh/0510_nh.bmp
587.52	0.72	807	5	6	85	per	con	low	mod	low	nt	cr	nh/0361_nh.bmp
588.24	0.72	808	6	7	85	per	con	mod	mod	mod	tg	ht	wh/0542.bmp
588.96	0.72	809	4	5	114	mem	con	mod	mod	mod	tg	ms	wh/0339.bmp
589.68	0.72	810	6	7	88	per	con	mod	mod	mod	tg	ht	wh/0680.bmp
590.40	0.72	811	6	6	85	per	con	low	mod	low	nt	cr	nh/0361_nh.bmp
591.12	0.72	812	5	7	10	per	lib	mod	mod	mod	nt	cr	nh/0874_nh.bmp
591.84	0.72	813	6	6	82	per	con	low	mod	low	tg	ms	wh/0232.bmp
592.56	0.72	814	6	6	71	mem	con	mod	mod	low	nt	ht	nh/0802_nh.bmp
593.28	0.72	815	6	6	53	mem	lib	mod	mod	mod	nt	ms	nh/0447_nh.bmp
594.00	0.72	816	6	6	47	per	lib	low	mod	low	nt	fa	nh/0345_nh.bmp
594.72	0.72	817	6	6	83	per	con	low	mod	low	tg	ms	wh/0077.bmp
595.44	0.72	818	6	7	94	per	con	mod	mod	mod	nt	cr	nh/0446_nh.bmp
596.16	0.72	819	6	6	69	mem	con	mod	mod	low	nt	ms	nh/0153_nh.bmp
596.88	0.72	820	4	6	61	mem	lib	mod	mod	mod	nt	ht	nh/0563_nh.bmp
597.60	0.72	821	6	6	40	per	lib	low	mod	low	tg	ht	wh/0299.bmp
598.32	0.72	822	5	8	104	mem	con	mod	mod	low	nt	ht	nh/1023_nh.bmp
599.04	0.72	823	6	7	4	per	lib	mod	mod	mod	tg	ms	wh/0855.bmp
599.76	0.72	824	6	8	49	per	con	low	mod	low	nt	cr	nh/0963_nh.bmp
600.48	0.72	825	5	5	116	mem	con	mod	mod	mod	tg	ht	wh/0350.bmp
601.20	0.72	826	6	7	77	mem	lib	mod	mod	mod	nt	ms	nh/0588_nh.bmp
601.92	0.72	827	5	8	55	per	con	low	mod	low	tg	ms	wh/0940.bmp
602.64	0.72	828	5	5	19	per	con	mod	mod	mod	tg	ht	wh/0772.bmp
603.36	0.72	829	6	7	90	per	con	mod	mod	mod	tg	ht	wh/0543.bmp
604.08	0.72	830	6	7	10	per	lib	mod	mod	mod	nt	cr	nh/0874_nh.bmp
604.80	0.72	831	6	8	73	per	lib	low	mod	low	nt	cr	nh/0355_nh.bmp
605.52	0.72	832	6	8	70	per	lib	low	mod	low	tg	ms	wh/0758.bmp
606.24	0.72	833	6	8	2	mem	lib	mod	mod	low	nt	ht	nh/0383_nh.bmp
606.96	0.72	834	6	6	37	per	lib	low	mod	low	tg	ms	wh/0382.bmp
607.68	0.72	835	6	8	4	mem	lib	mod	mod	low	tg	ht	wh/0967.bmp
608.40	0.72	836	6	5	19	per	con	mod	mod	mod	tg	ht	wh/0772.bmp
609.12	0.72	837	6	5	18	per	con	mod	mod	mod	tg	ht	wh/0540.bmp
609.84	0.72	838	1	7	108	mem	con	low	low	mod	tg	ms	wh/0426.bmp
610.56	0.72	839	5	8	12	mem	lib	mod	mod	low	tg	ht	wh/0075.bmp
611.28	0.72	840	6	6	77	mem	con	mod	mod	low	tg	ht	wh/0336.bmp
612.00	0.72	841	6	6	103	per	lib	mod	mod	mod	nt	cr	nh/0805_nh.bmp
612.72	0.72	842	6	5	74	mem	lib	mod	mod	low	nt	ht	nh/0508_nh.bmp
613.44	0.72	843	5	6	61	mem	lib	mod	mod	mod	nt	ht	nh/0563_nh.bmp
614.16	0.72	844	6	5	28	per	con	mod	mod	mod	nt	cr	nh/0909_nh.bmp
614.88	0.72	845	6	5	78	mem	lib	mod	mod	low	tg	ht	wh/0029.bmp
615.60	0.72	846	6	7	12	per	lib	mod	mod	mod	nt	fa	nh/0199_nh.bmp
616.32	0.72	847	6	8	77	per	lib	low	mod	low	nt	cr	nh/0730_nh.bmp
617.04	0.72	848	1	8	19	mem	con	low	low	low	nt	ms	nh/0691_nh.bmp
617.76	0.72	849	6	5	116	mem	con	mod	mod	mod	tg	ht	wh/0350.bmp
618.48	0.72	850	1	6	24	mem	con	low	low	mod	tg	ms	wh/0762.bmp
619.20	0.72	851	6	8	104	mem	con	mod	mod	low	nt	ht	nh/1023_nh.bmp
619.92	0.72	852	6	7	63	mem	con	mod	mod	mod	tg	ht	wh/0902.bmp
620.64	0.72	853	6	8	107	mem	con	mod	mod	low	nt	ms	nh/0934_nh.bmp
621.36	0.72	854	6	7	67	mem	lib	mod	mod	mod	tg	ht	wh/0095.bmp
622.08	0.72	855	4	5	69	mem	lib	mod	mod	low	nt	ht	nh/0503_nh.bmp
622.80	0.72	856	5	5	114	mem	con	mod	mod	mod	tg	ms	wh/0339.bmp
623.52	0.72	857	5	5	69	mem	lib	mod	mod	low	nt	ht	nh/0503_nh.bmp
624.24	0.72	858	6	8	55	per	con	low	mod	low	tg	ms	wh/0940.bmp
624.96	0.72	859	4	5	17	per	con	mod	mod	mod	nt	cr	nh/0803_nh.bmp
625.68	0.72	860	6	6	102	per	lib	mod	mod	mod	tg	ht	wh/0904.bmp
626.40	0.72	861	1	8	118	mem	lib	low	low	low	tg	ht	wh/0695.bmp
627.12	0.72	862	6	6	68	mem	con	mod	mod	low	tg	ht	wh/0451.bmp
627.84	0.72	863	1	7	123	mem	lib	low	low	mod	nt	ht	nh/0038_nh.bmp
628.56	0.72	864	6	5	114	mem	con	mod	mod	mod	tg	ms	wh/0339.bmp
629.28	0.72	865	6	8	99	mem	con	mod	mod	low	tg	ht	wh/0608.bmp
630.00	0.72	866	6	8	61	per	con	low	mod	low	tg	ms	wh/0080.bmp
630.72	0.72	867	5	5	21	per	con	mod	mod	mod	tg	ht	wh/0716.bmp
631.44	0.72	868	6	8	74	per	lib	low	mod	low	tg	ms	wh/0351.bmp
632.16	0.72	869	1	5	98	per	lib	low	low	low	nt	cr	nh/0768_nh.bmp
632.88	0.72	870	6	5	69	mem	lib	mod	mod	low	nt	ht	nh/0503_nh.bmp
633.60	0.72	871	6	8	80	per	lib	low	mod	low	tg	ms	wh/0256.bmp
634.32	0.72	872	5	7	6	per	lib	mod	mod	mod	nt	cr	nh/0222_nh.bmp
635.04	0.72	873	6	7	75	mem	lib	mod	mod	mod	tg	ht	wh/0697.bmp
635.76	0.72	874	5	5	17	per	con	mod	mod	mod	nt	cr	nh/0803_nh.bmp
636.48	0.72	875	5	7	60	mem	con	mod	mod	mod	nt	ms	nh/0380_nh.bmp
637.20	0.72	876	1	5	111	per	lib	low	low	low	tg	ht	wh/0513.bmp
637.92	0.72	877	6	8	106	mem	con	mod	mod	low	tg	ht	wh/0635.bmp
638.64	0.72	878	6	8	51	per	con	low	mod	low	nt	cr	nh/0035_nh.bmp
639.36	0.72	879	6	7	9	per	lib	mod	mod	mod	nt	cr	nh/0941_nh.bmp
640.08	0.72	880	6	7	3	per	lib	mod	mod	mod	tg	ht	wh/0094.bmp
640.80	0.72	881	6	8	7	mem	lib	mod	mod	low	nt	ht	nh/0238_nh.bmp
641.52	0.72	882	6	8	12	mem	lib	mod	mod	low	tg	ht	wh/0075.bmp
642.24	0.72	883	6	7	60	mem	con	mod	mod	mod	nt	ms	nh/0380_nh.bmp
642.96	0.72	884	1	8	46	per	lib	mod	low	mod	nt	cr	nh/0520_nh.bmp
643.68	0.72	885	6	5	21	per	con	mod	mod	mod	tg	ht	wh/0716.bmp
644.40	0.72	886	6	8	112	mem	con	mod	mod	low	tg	ms	wh/0964.bmp
645.12	0.72	887	6	5	126	mem	con	mod	mod	mod	nt	ms	nh/0748_nh.bmp
645.84	0.72	888	6	5	128	mem	con	mod	mod	mod	nt	ht	nh/0957_nh.bmp
646.56	0.72	889	6	7	6	per	lib	mod	mod	mod	nt	cr	nh/0222_nh.bmp
647.28	0.72	890	5	6	54	mem	lib	mod	mod	mod	nt	ht	nh/0784_nh.bmp
648.00	0.72	891	6	6	61	mem	lib	mod	mod	mod	nt	ht	nh/0563_nh.bmp
648.72	0.72	892	6	6	78	mem	con	mod	mod	low	nt	ht	nh/0613_nh.bmp
649.44	0.72	893	6	6	81	per	con	low	mod	low	nt	cr	nh/0690_nh.bmp
650.16	0.72	894	6	5	17	per	con	mod	mod	mod	nt	cr	nh/0803_nh.bmp
650.88	0.72	895	6	6	54	mem	lib	mod	mod	mod	nt	ht	nh/0784_nh.bmp
651.60	0.72	896	6	5	30	per	con	mod	mod	mod	tg	ht	wh/0807.bmp
