onset	duration	block	trial	task	crit	disc	mem_disc	per_disc	trial_type	mem_type	per_type	left_option	resp_hand	response	accuracy	response_time	stim_file	pay	pay_tot
7.2	7.2	1	n/a	mem	con	low	n/a	n/a	instructions	n/a	n/a	n/a	n/a	n/a	n/a	n/a	n/a	n/a	n/a
14.72	0.78927	1	1	mem	con	low	low	low	nt	nt	nt	tg	right	nt	cr	0.38927	nh/0160_nh.bmp	0.05	10.5
17.6	1.18586	1	2	mem	con	low	low	low	tg	tg	nt	nt	right	tg	ht	0.78586	nh/0788_nh.bmp	0.05	10.55
21.2	0.90208	1	3	mem	con	low	low	low	nt	nt	nt	tg	right	nt	cr	0.50208	nh/0250_nh.bmp	0.05	10.6
25.52	1.08125	1	4	mem	con	low	low	low	nt	nt	nt	nt	left	nt	cr	0.68125	nh/0535_nh.bmp	0.05	10.65
29.84	1.0396	1	5	mem	con	low	low	low	nt	nt	tg	nt	left	nt	cr	0.6396	wh/0169.bmp	0.05	10.7
32.72	1.4028	1	6	mem	con	low	low	low	nt	nt	tg	tg	right	nt	cr	1.0028	wh/0357.bmp	0.05	10.75
35.6	1.4548	1	7	mem	con	low	low	low	tg	tg	tg	nt	left	nt	ms	1.0548	wh/0257.bmp	0	10.75
39.92	1.06757	1	8	mem	con	low	low	low	nt	nt	tg	nt	left	nt	cr	0.66757	wh/0989.bmp	0.05	10.8
42.8	0.97769	1	9	mem	con	low	low	low	tg	tg	tg	tg	left	tg	ht	0.57769	wh/0654.bmp	0.05	10.85
46.4	1.04079	1	10	mem	con	low	low	low	tg	tg	tg	tg	right	nt	ms	0.64079	wh/0722.bmp	0	10.85
49.28	1.09906	1	11	mem	con	low	low	low	tg	tg	nt	nt	left	nt	ms	0.69906	nh/0122_nh.bmp	0	10.85
52.16	0.96014	1	12	mem	con	low	low	low	tg	tg	nt	nt	left	nt	ms	0.56014	nh/0662_nh.bmp	0	10.85
55.76	1.21988	1	13	mem	con	low	low	low	tg	tg	nt	nt	left	nt	ms	0.81988	nh/0777_nh.bmp	0	10.85
60.08	1.4168	1	14	mem	con	low	low	low	nt	nt	nt	nt	left	nt	cr	1.0168	nh/0078_nh.bmp	0.05	10.9
63.68	1.4089	1	15	mem	con	low	low	low	tg	tg	tg	nt	right	tg	ht	1.0089	wh/0191.bmp	0.05	10.95
66.56	0.98641	1	16	mem	con	low	low	low	nt	nt	tg	tg	right	nt	cr	0.58641	wh/0916.bmp	0.05	11
70.56	3.6	1	n/a	mem	con	low	n/a	n/a	feedback	n/a	n/a	n/a	n/a	n/a	n/a	n/a	n/a	n/a	n/a
74.16	7.2	2	n/a	per	lib	mod	n/a	n/a	instructions	n/a	n/a	n/a	n/a	n/a	n/a	n/a	n/a	n/a	n/a
82.4	1.16088	2	17	per	lib	mod	mod	mod	nt	tg	nt	nt	left	nt	cr	0.76088	nh/0896_nh.bmp	0.05	11.05
85.28	1.5938	2	18	per	lib	mod	mod	mod	nt	nt	nt	nt	right	tg	fa	1.1938	nh/0970_nh.bmp	0	11.05
88.88	1.4329	2	19	per	lib	mod	mod	mod	tg	tg	tg	nt	right	tg	ht	1.0329	wh/0425.bmp	0.05	11.1
93.2	1.4708	2	20	per	lib	mod	mod	mod	tg	tg	tg	tg	right	nt	ms	1.0708	wh/0955.bmp	-0.1	11
96.8	1.08291	2	21	per	lib	mod	mod	mod	tg	tg	tg	nt	right	tg	ht	0.68291	wh/0001.bmp	0.05	11.05
101.12	1.13283	2	22	per	lib	mod	mod	mod	nt	tg	nt	nt	left	nt	cr	0.73283	nh/0935_nh.bmp	0.05	11.1
104.72	0.83264	2	23	per	lib	mod	mod	mod	tg	nt	tg	nt	right	tg	ht	0.43264	wh/0413.bmp	0.05	11.15
107.6	0.95746	2	24	per	lib	mod	mod	mod	nt	tg	nt	nt	right	tg	fa	0.55746	nh/0642_nh.bmp	0	11.15
111.2	1.5708	2	25	per	lib	mod	mod	mod	tg	nt	tg	nt	right	tg	ht	1.1708	wh/0104.bmp	0.05	11.2
114.08	1.4589	2	26	per	lib	mod	mod	mod	nt	nt	nt	tg	left	tg	fa	1.0589	nh/0674_nh.bmp	0	11.2
118.4	1.06004	2	27	per	lib	mod	mod	mod	tg	tg	tg	tg	left	tg	ht	0.66004	wh/0700.bmp	0.05	11.25
121.28	1.8249	2	28	per	lib	mod	mod	mod	nt	tg	nt	nt	left	nt	cr	1.4249	nh/0984_nh.bmp	0.05	11.3
125.6	1.7639	2	29	per	lib	mod	mod	mod	nt	nt	nt	tg	left	tg	fa	1.3639	nh/0583_nh.bmp	0	11.3
129.92	1.424	2	30	per	lib	mod	mod	mod	nt	nt	nt	tg	left	tg	fa	1.024	nh/0348_nh.bmp	0	11.3
132.8	1.4199	2	31	per	lib	mod	mod	mod	tg	nt	tg	tg	left	tg	ht	1.0199	wh/0983.bmp	0.05	11.35
135.68	1.09739	2	32	per	lib	mod	mod	mod	tg	nt	tg	tg	left	tg	ht	0.69739	wh/0761.bmp	0.05	11.4
138.24	3.6	2	n/a	per	lib	mod	n/a	n/a	feedback	n/a	n/a	n/a	n/a	n/a	n/a	n/a	n/a	n/a	n/a
141.84	7.2	3	n/a	mem	lib	low	n/a	n/a	instructions	n/a	n/a	n/a	n/a	n/a	n/a	n/a	n/a	n/a	n/a
150.08	1.5339	3	33	mem	lib	low	low	low	nt	nt	tg	nt	right	tg	fa	1.1339	wh/0011.bmp	0	11.4
154.4	1.34378	3	34	mem	lib	low	low	low	tg	tg	tg	tg	left	tg	ht	0.94378	wh/0407.bmp	0.05	11.45
157.28	1.8668	3	35	mem	lib	low	low	low	nt	nt	nt	nt	right	tg	fa	1.4668	nh/0911_nh.bmp	0	11.45
160.88	0.82668	3	36	mem	lib	low	low	low	tg	tg	nt	tg	left	tg	ht	0.42668	nh/0800_nh.bmp	0.05	11.5
165.2	1.6717	3	37	mem	lib	low	low	low	tg	tg	tg	tg	left	tg	ht	1.2717	wh/0065.bmp	0.05	11.55
168.08	1.19284	3	38	mem	lib	low	low	low	nt	nt	nt	nt	right	tg	fa	0.79284	nh/0309_nh.bmp	0	11.55
171.68	1.27481	3	39	mem	lib	low	low	low	nt	nt	nt	nt	right	tg	fa	0.87481	nh/0505_nh.bmp	0	11.55
175.28	1.33175	3	40	mem	lib	low	low	low	nt	nt	tg	tg	left	tg	fa	0.93175	wh/0184.bmp	0	11.55
178.16	0.94536	3	41	mem	lib	low	low	low	nt	nt	nt	tg	left	tg	fa	0.54536	nh/0375_nh.bmp	0	11.55
181.76	1.043	3	42	mem	lib	low	low	low	tg	tg	nt	tg	left	tg	ht	0.643	nh/0634_nh.bmp	0.05	11.6
186.08	1.4049	3	43	mem	lib	low	low	low	tg	tg	nt	nt	right	tg	ht	1.0049	nh/0464_nh.bmp	0.05	11.65
190.4	0.87417	3	44	mem	lib	low	low	low	tg	tg	nt	tg	left	tg	ht	0.47417	nh/0889_nh.bmp	0.05	11.7
193.28	2.0459	3	45	mem	lib	low	low	low	nt	nt	tg	tg	left	tg	fa	1.6459	wh/0987.bmp	0	11.7
197.6	1.6099	3	46	mem	lib	low	low	low	tg	tg	tg	tg	left	tg	ht	1.2099	wh/0210.bmp	0.05	11.75
200.48	0.91165	3	47	mem	lib	low	low	low	tg	tg	tg	tg	left	tg	ht	0.51165	wh/0307.bmp	0.05	11.8
204.08	1.25089	3	48	mem	lib	low	low	low	nt	nt	tg	nt	right	tg	fa	0.85089	wh/0471.bmp	0	11.8
207.36	3.6	3	n/a	mem	lib	low	n/a	n/a	feedback	n/a	n/a	n/a	n/a	n/a	n/a	n/a	n/a	n/a	n/a
210.96	7.2	4	n/a	mem	con	mod	n/a	n/a	instructions	n/a	n/a	n/a	n/a	n/a	n/a	n/a	n/a	n/a	n/a
219.2	1.03539	4	49	mem	con	mod	mod	low	tg	tg	nt	nt	left	nt	ms	0.63539	nh/0233_nh.bmp	0	11.8
222.08	0.82257	4	50	mem	con	mod	mod	low	tg	tg	tg	nt	left	nt	ms	0.42257	wh/0853.bmp	0	11.8
226.4	1.03944	4	51	mem	con	mod	mod	low	tg	tg	tg	tg	left	tg	ht	0.63944	wh/0472.bmp	0.05	11.85
230.72	1.13786	4	52	mem	con	mod	mod	low	nt	nt	nt	tg	right	nt	cr	0.73786	nh/0914_nh.bmp	0.05	11.9
233.6	1.6729	4	53	mem	con	mod	mod	low	tg	tg	nt	tg	left	tg	ht	1.2729	nh/0836_nh.bmp	0.05	11.95
237.2	1.01293	4	54	mem	con	mod	mod	low	nt	nt	nt	nt	left	nt	cr	0.61293	nh/0765_nh.bmp	0.05	12
240.8	0.98655	4	55	mem	con	mod	mod	low	tg	tg	nt	nt	right	tg	ht	0.58655	nh/0624_nh.bmp	0.05	12.05
244.4	1.5069	4	56	mem	con	mod	mod	low	tg	tg	tg	tg	left	tg	ht	1.1069	wh/0573.bmp	0.05	12.1
248.72	1.12393	4	57	mem	con	mod	mod	low	tg	tg	tg	nt	right	tg	ht	0.72393	wh/0769.bmp	0.05	12.15
253.04	2.56	4	58	mem	con	mod	mod	low	nt	nt	nt	nt	n/a	err	n/a	n/a	nh/0438_nh.bmp	0	12.15
255.92	0.94994	4	59	mem	con	mod	mod	low	nt	nt	nt	tg	right	nt	cr	0.54994	nh/0554_nh.bmp	0.05	12.2
260.24	1.37488	4	60	mem	con	mod	mod	low	nt	nt	tg	tg	right	nt	cr	0.97488	wh/0293.bmp	0.05	12.25
263.12	1.0997	4	61	mem	con	mod	mod	low	tg	tg	nt	tg	left	tg	ht	0.6997	nh/0251_nh.bmp	0.05	12.3
267.44	1.10042	4	62	mem	con	mod	mod	low	nt	nt	tg	tg	right	nt	cr	0.70042	wh/0412.bmp	0.05	12.35
271.76	1.6528	4	63	mem	con	mod	mod	low	nt	nt	tg	nt	left	nt	cr	1.2528	wh/0459.bmp	0.05	12.4
276.08	1.14779	4	64	mem	con	mod	mod	low	nt	nt	tg	tg	right	nt	cr	0.74779	wh/0263.bmp	0.05	12.45
279.36	3.6	4	n/a	mem	con	mod	n/a	n/a	feedback	n/a	n/a	n/a	n/a	n/a	n/a	n/a	n/a	n/a	n/a
282.96	7.2	5	n/a	mem	lib	mod	n/a	n/a	instructions	n/a	n/a	n/a	n/a	n/a	n/a	n/a	n/a	n/a	n/a
290.48	1.4369	5	65	mem	lib	mod	mod	low	nt	nt	tg	tg	left	tg	fa	1.0369	wh/0212.bmp	0	12.45
293.36	1.20783	5	66	mem	lib	mod	mod	low	tg	tg	nt	tg	left	tg	ht	0.80783	nh/0145_nh.bmp	0.05	12.5
296.24	1.5009	5	67	mem	lib	mod	mod	low	nt	nt	nt	nt	left	nt	cr	1.1009	nh/0422_nh.bmp	0.05	12.55
300.56	1.07374	5	68	mem	lib	mod	mod	low	tg	tg	tg	nt	right	tg	ht	0.67374	wh/0745.bmp	0.05	12.6
303.44	1.4948	5	69	mem	lib	mod	mod	low	tg	tg	nt	tg	left	tg	ht	1.0948	nh/0325_nh.bmp	0.05	12.65
307.04	1.4339	5	70	mem	lib	mod	mod	low	tg	tg	nt	nt	right	tg	ht	1.0339	nh/0514_nh.bmp	0.05	12.7
310.64	1.691	5	71	mem	lib	mod	mod	low	nt	nt	nt	tg	right	nt	cr	1.291	nh/0671_nh.bmp	0.05	12.75
314.96	1.36885	5	72	mem	lib	mod	mod	low	nt	nt	tg	nt	left	nt	cr	0.96885	wh/0882.bmp	0.05	12.8
318.56	1.01665	5	73	mem	lib	mod	mod	low	tg	tg	nt	nt	right	tg	ht	0.61665	nh/0231_nh.bmp	0.05	12.85
321.44	0.93031	5	74	mem	lib	mod	mod	low	nt	nt	nt	nt	right	tg	fa	0.53031	nh/0259_nh.bmp	0	12.85
324.32	1.00493	5	75	mem	lib	mod	mod	low	tg	tg	tg	nt	right	tg	ht	0.60493	wh/0156.bmp	0.05	12.9
328.64	1.05264	5	76	mem	lib	mod	mod	low	nt	nt	tg	nt	right	tg	fa	0.65264	wh/0496.bmp	0	12.9
332.96	0.82855	5	77	mem	lib	mod	mod	low	tg	tg	tg	nt	right	tg	ht	0.42855	wh/0387.bmp	0.05	12.95
337.28	1.17272	5	78	mem	lib	mod	mod	low	nt	nt	nt	nt	right	tg	fa	0.77272	nh/0672_nh.bmp	0	12.95
340.16	1.07195	5	79	mem	lib	mod	mod	low	nt	nt	tg	nt	right	tg	fa	0.67195	wh/0302.bmp	0	12.95
343.04	1.04971	5	80	mem	lib	mod	mod	low	tg	tg	tg	tg	left	tg	ht	0.64971	wh/0766.bmp	0.05	13
347.04	3.6	5	n/a	mem	lib	mod	n/a	n/a	feedback	n/a	n/a	n/a	n/a	n/a	n/a	n/a	n/a	n/a	n/a
350.64	7.2	6	n/a	per	con	mod	n/a	n/a	instructions	n/a	n/a	n/a	n/a	n/a	n/a	n/a	n/a	n/a	n/a
358.16	0.84106	6	81	per	con	mod	low	mod	nt	nt	nt	nt	left	nt	cr	0.44106	nh/0858_nh.bmp	0.05	13.05
362.48	1.18484	6	82	per	con	mod	low	mod	nt	nt	nt	tg	right	nt	cr	0.78484	nh/0440_nh.bmp	0.05	13.1
366.08	0.99833	6	83	per	con	mod	low	mod	nt	tg	nt	tg	right	nt	cr	0.59833	nh/0541_nh.bmp	0.05	13.15
368.96	0.89191	6	84	per	con	mod	low	mod	tg	nt	tg	tg	left	tg	ht	0.49191	wh/0950.bmp	0.05	13.2
371.84	0.89492	6	85	per	con	mod	low	mod	tg	tg	tg	tg	left	tg	ht	0.49492	wh/0501.bmp	0.05	13.25
374.72	1.4069	6	86	per	con	mod	low	mod	tg	nt	tg	nt	left	nt	ms	1.0069	wh/0944.bmp	0	13.25
379.04	1.5609	6	87	per	con	mod	low	mod	nt	nt	nt	nt	right	tg	fa	1.1609	nh/0886_nh.bmp	-0.1	13.15
383.36	1.22992	6	88	per	con	mod	low	mod	nt	nt	nt	nt	left	nt	cr	0.82992	nh/0719_nh.bmp	0.05	13.2
387.68	0.94027	6	89	per	con	mod	low	mod	tg	nt	tg	tg	left	tg	ht	0.54027	wh/0991.bmp	0.05	13.25
390.56	0.96505	6	90	per	con	mod	low	mod	tg	tg	tg	tg	left	tg	ht	0.56505	wh/0326.bmp	0.05	13.3
393.44	1.22794	6	91	per	con	mod	low	mod	tg	tg	tg	nt	left	nt	ms	0.82794	wh/0478.bmp	0	13.3
397.76	1.21873	6	92	per	con	mod	low	mod	nt	tg	nt	tg	right	nt	cr	0.81873	nh/0977_nh.bmp	0.05	13.35
400.64	0.86415	6	93	per	con	mod	low	mod	nt	tg	nt	tg	right	nt	cr	0.46415	nh/0912_nh.bmp	0.05	13.4
403.52	1.9579	6	94	per	con	mod	low	mod	tg	tg	tg	nt	right	tg	ht	1.5579	wh/0905.bmp	0.05	13.45
406.4	1.20491	6	95	per	con	mod	low	mod	tg	nt	tg	nt	right	tg	ht	0.80491	wh/0547.bmp	0.05	13.5
410.72	1.05808	6	96	per	con	mod	low	mod	nt	tg	nt	nt	left	nt	cr	0.65808	nh/1017_nh.bmp	0.05	13.55
414	3.6	6	n/a	per	con	mod	n/a	n/a	feedback	n/a	n/a	n/a	n/a	n/a	n/a	n/a	n/a	n/a	n/a
418.32	7.2	7	n/a	per	con	low	n/a	n/a	instructions	n/a	n/a	n/a	n/a	n/a	n/a	n/a	n/a	n/a	n/a
425.84	1.01157	7	97	per	con	low	mod	low	tg	tg	tg	nt	left	nt	ms	0.61157	wh/0341.bmp	0	13.55
430.16	0.94552	7	98	per	con	low	mod	low	tg	tg	tg	tg	right	nt	ms	0.54552	wh/0421.bmp	0	13.55
433.04	0.98731	7	99	per	con	low	mod	low	nt	nt	nt	nt	left	nt	cr	0.58731	nh/1013_nh.bmp	0.05	13.6
435.92	0.91683	7	100	per	con	low	mod	low	tg	tg	tg	nt	left	nt	ms	0.51683	wh/0733.bmp	0	13.6
438.8	1.6217	7	101	per	con	low	mod	low	nt	tg	nt	nt	left	nt	cr	1.2217	nh/0739_nh.bmp	0.05	13.65
441.68	0.83482	7	102	per	con	low	mod	low	tg	nt	tg	nt	left	nt	ms	0.43482	wh/0444.bmp	0	13.65
445.28	0.92356	7	103	per	con	low	mod	low	nt	nt	nt	nt	left	nt	cr	0.52356	nh/0494_nh.bmp	0.05	13.7
449.6	1.09993	7	104	per	con	low	mod	low	tg	nt	tg	tg	right	nt	ms	0.69993	wh/0415.bmp	0	13.7
452.48	1.21684	7	105	per	con	low	mod	low	tg	nt	tg	nt	right	tg	ht	0.81684	wh/0312.bmp	0.05	13.75
455.36	1.02983	7	106	per	con	low	mod	low	nt	nt	nt	nt	left	nt	cr	0.62983	nh/0007_nh.bmp	0.05	13.8
458.24	1.4579	7	107	per	con	low	mod	low	tg	tg	tg	nt	left	nt	ms	1.0579	wh/0868.bmp	0	13.8
461.84	1.15884	7	108	per	con	low	mod	low	nt	nt	nt	tg	right	nt	cr	0.75884	nh/0791_nh.bmp	0.05	13.85
464.72	1.4778	7	109	per	con	low	mod	low	nt	tg	nt	tg	right	nt	cr	1.0778	nh/0675_nh.bmp	0.05	13.9
467.6	1.07303	7	110	per	con	low	mod	low	tg	nt	tg	nt	right	tg	ht	0.67303	wh/0295.bmp	0.05	13.95
471.92	0.97085	7	111	per	con	low	mod	low	nt	tg	nt	nt	left	nt	cr	0.57085	nh/0177_nh.bmp	0.05	14
474.8	1.20591	7	112	per	con	low	mod	low	nt	tg	nt	tg	right	nt	cr	0.80591	nh/0217_nh.bmp	0.05	14.05
478.8	3.6	7	n/a	per	con	low	n/a	n/a	feedback	n/a	n/a	n/a	n/a	n/a	n/a	n/a	n/a	n/a	n/a
482.4	7.2	8	n/a	per	lib	low	n/a	n/a	instructions	n/a	n/a	n/a	n/a	n/a	n/a	n/a	n/a	n/a	n/a
491.36	1.25091	8	113	per	lib	low	mod	low	nt	nt	nt	tg	left	tg	fa	0.85091	nh/0203_nh.bmp	0	14.05
494.96	1.17475	8	114	per	lib	low	mod	low	nt	nt	nt	tg	left	tg	fa	0.77475	nh/0368_nh.bmp	0	14.05
498.56	1.02197	8	115	per	lib	low	mod	low	tg	nt	tg	tg	left	tg	ht	0.62197	wh/0511.bmp	0.05	14.1
502.88	1.05688	8	116	per	lib	low	mod	low	tg	tg	tg	tg	left	tg	ht	0.65688	wh/0816.bmp	0.05	14.15
505.76	1.14793	8	117	per	lib	low	mod	low	nt	nt	nt	nt	right	tg	fa	0.74793	nh/0386_nh.bmp	0	14.15
510.08	1.5199	8	118	per	lib	low	mod	low	nt	tg	nt	tg	right	nt	cr	1.1199	nh/0997_nh.bmp	0.05	14.2
512.96	1.30976	8	119	per	lib	low	mod	low	nt	tg	nt	nt	right	tg	fa	0.90976	nh/0377_nh.bmp	0	14.2
517.28	1.24987	8	120	per	lib	low	mod	low	tg	tg	tg	tg	left	tg	ht	0.84987	wh/0128.bmp	0.05	14.25
520.88	1.38394	8	121	per	lib	low	mod	low	nt	nt	nt	tg	right	nt	cr	0.98394	nh/0323_nh.bmp	0.05	14.3
523.76	1.4379	8	122	per	lib	low	mod	low	nt	tg	nt	tg	left	tg	fa	1.0379	nh/0597_nh.bmp	0	14.3
526.64	1.1518	8	123	per	lib	low	mod	low	tg	nt	tg	tg	left	tg	ht	0.7518	wh/0661.bmp	0.05	14.35
529.52	0.97479	8	124	per	lib	low	mod	low	tg	nt	tg	nt	right	tg	ht	0.57479	wh/0988.bmp	0.05	14.4
533.12	1.33987	8	125	per	lib	low	mod	low	tg	tg	tg	tg	right	nt	ms	0.93987	wh/0066.bmp	-0.1	14.3
536	1.2528	8	126	per	lib	low	mod	low	nt	tg	nt	tg	left	tg	fa	0.8528	nh/0019_nh.bmp	0	14.3
538.88	1.27589	8	127	per	lib	low	mod	low	tg	tg	tg	nt	left	nt	ms	0.87589	wh/0529.bmp	-0.1	14.2
541.76	1.2158	8	128	per	lib	low	mod	low	tg	nt	tg	nt	right	tg	ht	0.8158	wh/0124.bmp	0.05	14.25
544.32	3.6	8	n/a	per	lib	low	n/a	n/a	feedback	n/a	n/a	n/a	n/a	n/a	n/a	n/a	n/a	n/a	n/a
