onset	duration	trial	pres	ts_blk	ts_trl	task	crit	disc	mem_disc	per_disc	per_type	accuracy	stim_file
7.20	0.72	1	1	1	125	mem	lib	mod	mod	mod	nt	ht	nh/0274_nh.bmp
7.92	0.72	2	1	1	82	per	con	mod	mod	mod	tg	ms	wh/0600.bmp
8.64	0.72	3	1	4	50	mem	con	mod	mod	low	tg	ms	wh/0853.bmp
9.36	0.72	4	1	2	44	per	lib	low	mod	low	tg	ht	wh/0155.bmp
10.08	0.72	5	1	3	17	mem	lib	mod	mod	mod	tg	ht	wh/0391.bmp
10.80	0.72	6	2	3	17	mem	lib	mod	mod	mod	tg	ht	wh/0391.bmp
11.52	0.72	7	1	2	46	per	lib	low	mod	low	nt	fa	nh/0353_nh.bmp
12.24	0.72	8	1	2	85	per	con	low	mod	low	tg	ms	wh/0014.bmp
12.96	0.72	9	1	2	61	mem	lib	mod	mod	low	tg	ht	wh/1021.bmp
13.68	0.72	10	1	2	57	mem	lib	mod	mod	low	tg	ht	wh/0727.bmp
14.40	0.72	11	1	4	68	mem	lib	mod	mod	low	tg	ht	wh/0745.bmp
15.12	0.72	12	1	2	111	mem	con	low	low	low	nt	ms	nh/0790_nh.bmp
15.84	0.72	13	1	2	73	mem	con	mod	mod	low	nt	ht	nh/0932_nh.bmp
16.56	0.72	14	1	4	126	per	lib	low	mod	low	nt	fa	nh/0019_nh.bmp
17.28	0.72	15	1	2	66	mem	con	mod	mod	low	tg	ms	wh/0298.bmp
18.00	0.72	16	1	2	35	per	lib	low	mod	low	tg	ht	wh/0435.bmp
18.72	0.72	17	1	4	101	per	con	low	mod	low	nt	cr	nh/0739_nh.bmp
19.44	0.72	18	1	1	21	mem	con	mod	mod	mod	tg	ht	wh/0942.bmp
20.16	0.72	19	1	4	119	per	lib	low	mod	low	nt	fa	nh/0377_nh.bmp
20.88	0.72	20	1	1	10	per	lib	low	low	low	tg	ht	wh/0499.bmp
21.60	0.72	21	1	1	78	mem	con	low	low	mod	nt	ht	nh/0228_nh.bmp
22.32	0.72	22	2	1	82	per	con	mod	mod	mod	tg	ms	wh/0600.bmp
23.04	0.72	23	1	3	23	mem	lib	mod	mod	mod	tg	ht	wh/0605.bmp
23.76	0.72	24	1	2	62	mem	lib	mod	mod	low	nt	ht	nh/0755_nh.bmp
24.48	0.72	25	2	2	57	mem	lib	mod	mod	low	tg	ht	wh/0727.bmp
25.20	0.72	26	1	1	93	per	con	mod	mod	mod	nt	cr	nh/0920_nh.bmp
25.92	0.72	27	1	1	87	per	con	mod	mod	mod	nt	cr	nh/0002_nh.bmp
26.64	0.72	28	1	3	56	mem	lib	low	low	mod	nt	ht	nh/0906_nh.bmp
27.36	0.72	29	1	4	57	mem	con	mod	mod	low	tg	ht	wh/0769.bmp
28.08	0.72	30	1	1	25	mem	con	mod	mod	mod	tg	ms	wh/0637.bmp
28.80	0.72	31	1	3	110	per	lib	mod	low	mod	nt	fa	nh/0866_nh.bmp
29.52	0.72	32	1	3	40	mem	con	mod	mod	mod	tg	ms	wh/0658.bmp
30.24	0.72	33	2	2	46	per	lib	low	mod	low	nt	fa	nh/0353_nh.bmp
30.96	0.72	34	2	4	57	mem	con	mod	mod	low	tg	ht	wh/0769.bmp
31.68	0.72	35	1	3	29	mem	lib	mod	mod	mod	tg	ht	wh/0801.bmp
32.40	0.72	36	1	3	73	per	con	mod	mod	mod	nt	cr	nh/0070_nh.bmp
33.12	0.72	37	1	2	49	mem	lib	mod	mod	low	nt	ht	nh/0205_nh.bmp
33.84	0.72	38	1	2	42	per	lib	low	mod	low	tg	ht	wh/0133.bmp
34.56	0.72	39	2	2	85	per	con	low	mod	low	tg	ms	wh/0014.bmp
35.28	0.72	40	1	4	94	per	con	mod	low	mod	tg	ht	wh/0905.bmp
36.00	0.72	41	2	4	50	mem	con	mod	mod	low	tg	ms	wh/0853.bmp
36.72	0.72	42	1	4	51	mem	con	mod	mod	low	tg	ht	wh/0472.bmp
37.44	0.72	43	1	3	42	mem	con	mod	mod	mod	nt	ms	nh/0627_nh.bmp
38.16	0.72	44	1	1	70	mem	con	low	low	mod	tg	ms	wh/0910.bmp
38.88	0.72	45	1	2	69	mem	con	mod	mod	low	tg	ht	wh/0897.bmp
39.60	0.72	46	1	4	55	mem	con	mod	mod	low	nt	ht	nh/0624_nh.bmp
40.32	0.72	47	1	3	30	mem	lib	mod	mod	mod	nt	ms	nh/0466_nh.bmp
41.04	0.72	48	1	2	21	per	lib	mod	mod	mod	nt	fa	nh/0841_nh.bmp
41.76	0.72	49	1	1	26	mem	con	mod	mod	mod	nt	ht	nh/0473_nh.bmp
42.48	0.72	50	1	2	31	per	lib	mod	mod	mod	tg	ht	wh/0698.bmp
43.20	0.72	51	1	3	13	per	con	low	low	low	tg	ht	wh/0771.bmp
43.92	0.72	52	2	1	87	per	con	mod	mod	mod	nt	cr	nh/0002_nh.bmp
44.64	0.72	53	1	3	20	mem	lib	mod	mod	mod	tg	ht	wh/0414.bmp
45.36	0.72	54	1	2	38	per	lib	low	mod	low	tg	ms	wh/0515.bmp
46.08	0.72	55	1	3	121	mem	con	low	low	mod	nt	ms	nh/0898_nh.bmp
46.80	0.72	56	3	4	57	mem	con	mod	mod	low	tg	ht	wh/0769.bmp
47.52	0.72	57	2	4	55	mem	con	mod	mod	low	nt	ht	nh/0624_nh.bmp
48.24	0.72	58	1	1	23	mem	con	mod	mod	mod	tg	ms	wh/0884.bmp
48.96	0.72	59	1	4	97	per	con	low	mod	low	tg	ms	wh/0341.bmp
49.68	0.72	60	1	2	76	mem	con	mod	mod	low	nt	ht	nh/0265_nh.bmp
50.40	0.72	61	1	3	70	per	con	mod	mod	mod	tg	ms	wh/0287.bmp
51.12	0.72	62	2	1	93	per	con	mod	mod	mod	nt	cr	nh/0920_nh.bmp
51.84	0.72	63	1	2	26	per	lib	mod	mod	mod	tg	ht	wh/0463.bmp
52.56	0.72	64	2	2	49	mem	lib	mod	mod	low	nt	ht	nh/0205_nh.bmp
53.28	0.72	65	1	1	127	mem	lib	mod	mod	mod	tg	ht	wh/0393.bmp
54.00	0.72	66	1	4	27	per	lib	mod	mod	mod	tg	ht	wh/0700.bmp
54.72	0.72	67	1	1	124	mem	lib	mod	mod	mod	nt	ht	nh/0405_nh.bmp
55.44	0.72	68	1	4	109	per	con	low	mod	low	nt	cr	nh/0675_nh.bmp
56.16	0.72	69	1	3	44	mem	con	mod	mod	mod	tg	ht	wh/0899.bmp
56.88	0.72	70	1	4	107	per	con	low	mod	low	tg	ms	wh/0868.bmp
57.60	0.72	71	1	3	38	mem	con	mod	mod	mod	nt	ht	nh/0692_nh.bmp
58.32	0.72	72	2	1	124	mem	lib	mod	mod	mod	nt	ht	nh/0405_nh.bmp
59.04	0.72	73	1	4	70	mem	lib	mod	mod	low	nt	ht	nh/0514_nh.bmp
59.76	0.72	74	2	4	109	per	con	low	mod	low	nt	cr	nh/0675_nh.bmp
60.48	0.72	75	1	3	47	mem	con	mod	mod	mod	nt	ht	nh/0098_nh.bmp
61.20	0.72	76	1	1	49	per	lib	mod	low	mod	nt	cr	nh/0752_nh.bmp
61.92	0.72	77	2	3	44	mem	con	mod	mod	mod	tg	ht	wh/0899.bmp
62.64	0.72	78	1	4	122	per	lib	low	mod	low	nt	fa	nh/0597_nh.bmp
63.36	0.72	79	1	4	66	mem	lib	mod	mod	low	nt	ht	nh/0145_nh.bmp
64.08	0.72	80	3	4	109	per	con	low	mod	low	nt	cr	nh/0675_nh.bmp
64.80	0.72	81	1	4	116	per	lib	low	mod	low	tg	ht	wh/0816.bmp
65.52	0.72	82	1	4	21	per	lib	mod	mod	mod	tg	ht	wh/0001.bmp
66.24	0.72	83	1	2	67	mem	con	mod	mod	low	tg	ms	wh/0379.bmp
66.96	0.72	84	2	4	122	per	lib	low	mod	low	nt	fa	nh/0597_nh.bmp
67.68	0.72	85	2	2	21	per	lib	mod	mod	mod	nt	fa	nh/0841_nh.bmp
68.40	0.72	86	3	4	122	per	lib	low	mod	low	nt	fa	nh/0597_nh.bmp
69.12	0.72	87	1	4	111	per	con	low	mod	low	nt	cr	nh/0177_nh.bmp
69.84	0.72	88	1	3	65	per	con	mod	mod	mod	nt	cr	nh/0919_nh.bmp
70.56	0.72	89	2	2	67	mem	con	mod	mod	low	tg	ms	wh/0379.bmp
71.28	0.72	90	1	3	77	per	con	mod	mod	mod	tg	ht	wh/0878.bmp
72.00	0.72	91	1	3	22	mem	lib	mod	mod	mod	nt	ht	nh/0981_nh.bmp
72.72	0.72	92	1	1	89	per	con	mod	mod	mod	tg	ht	wh/0596.bmp
73.44	0.72	93	1	4	56	mem	con	mod	mod	low	tg	ht	wh/0573.bmp
74.16	0.72	94	2	3	23	mem	lib	mod	mod	mod	tg	ht	wh/0605.bmp
74.88	0.72	95	1	4	120	per	lib	low	mod	low	tg	ht	wh/0128.bmp
75.60	0.72	96	1	4	125	per	lib	low	mod	low	tg	ms	wh/0066.bmp
76.32	0.72	97	1	4	77	mem	lib	mod	mod	low	tg	ht	wh/0387.bmp
77.04	0.72	98	1	4	17	per	lib	mod	mod	mod	nt	cr	nh/0896_nh.bmp
77.76	0.72	99	1	3	93	per	lib	low	low	low	nt	cr	nh/0362_nh.bmp
78.48	0.72	100	1	3	69	per	con	mod	mod	mod	nt	cr	nh/0938_nh.bmp
79.20	0.72	101	1	2	95	per	con	low	mod	low	nt	cr	nh/0741_nh.bmp
79.92	0.72	102	1	4	49	mem	con	mod	mod	low	nt	ms	nh/0233_nh.bmp
80.64	0.72	103	1	4	100	per	con	low	mod	low	tg	ms	wh/0733.bmp
81.36	0.72	104	2	4	77	mem	lib	mod	mod	low	tg	ht	wh/0387.bmp
82.08	0.72	105	2	4	111	per	con	low	mod	low	nt	cr	nh/0177_nh.bmp
82.80	0.72	106	1	3	39	mem	con	mod	mod	mod	tg	ht	wh/0621.bmp
83.52	0.72	107	2	4	70	mem	lib	mod	mod	low	nt	ht	nh/0514_nh.bmp
84.24	0.72	108	1	4	112	per	con	low	mod	low	nt	cr	nh/0217_nh.bmp
84.96	0.72	109	1	3	46	mem	con	mod	mod	mod	nt	ms	nh/0429_nh.bmp
85.68	0.72	110	2	2	76	mem	con	mod	mod	low	nt	ht	nh/0265_nh.bmp
86.40	0.72	111	2	3	65	per	con	mod	mod	mod	nt	cr	nh/0919_nh.bmp
87.12	0.72	112	1	4	73	mem	lib	mod	mod	low	nt	ht	nh/0231_nh.bmp
87.84	0.72	113	1	1	86	per	con	mod	mod	mod	nt	cr	nh/0526_nh.bmp
88.56	0.72	114	3	3	65	per	con	mod	mod	mod	nt	cr	nh/0919_nh.bmp
89.28	0.72	115	2	4	17	per	lib	mod	mod	mod	nt	cr	nh/0896_nh.bmp
90.00	0.72	116	2	3	40	mem	con	mod	mod	mod	tg	ms	wh/0658.bmp
90.72	0.72	117	1	4	61	mem	con	mod	mod	low	nt	ht	nh/0251_nh.bmp
91.44	0.72	118	2	1	89	per	con	mod	mod	mod	tg	ht	wh/0596.bmp
92.16	0.72	119	2	4	66	mem	lib	mod	mod	low	nt	ht	nh/0145_nh.bmp
92.88	0.72	120	3	4	17	per	lib	mod	mod	mod	nt	cr	nh/0896_nh.bmp
93.60	0.72	121	1	2	96	per	con	low	mod	low	tg	ms	wh/0649.bmp
94.32	0.72	122	1	4	53	mem	con	mod	mod	low	nt	ht	nh/0836_nh.bmp
95.04	0.72	123	1	1	19	mem	con	mod	mod	mod	nt	ms	nh/0183_nh.bmp
95.76	0.72	124	1	2	104	mem	con	low	low	low	nt	ms	nh/0533_nh.bmp
96.48	0.72	125	1	3	43	mem	con	mod	mod	mod	tg	ht	wh/0289.bmp
97.20	0.72	126	3	2	85	per	con	low	mod	low	tg	ms	wh/0014.bmp
97.92	0.72	127	3	4	77	mem	lib	mod	mod	low	tg	ht	wh/0387.bmp
98.64	0.72	128	2	2	62	mem	lib	mod	mod	low	nt	ht	nh/0755_nh.bmp
99.36	0.72	129	2	4	101	per	con	low	mod	low	nt	cr	nh/0739_nh.bmp
100.08	0.72	130	2	4	49	mem	con	mod	mod	low	nt	ms	nh/0233_nh.bmp
100.80	0.72	131	1	2	58	mem	lib	mod	mod	low	nt	ht	nh/0168_nh.bmp
101.52	0.72	132	3	4	111	per	con	low	mod	low	nt	cr	nh/0177_nh.bmp
102.24	0.72	133	3	4	70	mem	lib	mod	mod	low	nt	ht	nh/0514_nh.bmp
102.96	0.72	134	1	3	78	per	con	mod	mod	mod	nt	cr	nh/0857_nh.bmp
103.68	0.72	135	2	3	43	mem	con	mod	mod	mod	tg	ht	wh/0289.bmp
104.40	0.72	136	2	2	95	per	con	low	mod	low	nt	cr	nh/0741_nh.bmp
105.12	0.72	137	2	3	42	mem	con	mod	mod	mod	nt	ms	nh/0627_nh.bmp
105.84	0.72	138	2	4	51	mem	con	mod	mod	low	tg	ht	wh/0472.bmp
106.56	0.72	139	2	2	58	mem	lib	mod	mod	low	nt	ht	nh/0168_nh.bmp
107.28	0.72	140	2	4	126	per	lib	low	mod	low	nt	fa	nh/0019_nh.bmp
108.00	0.72	141	3	3	44	mem	con	mod	mod	mod	tg	ht	wh/0899.bmp
108.72	0.72	142	3	4	126	per	lib	low	mod	low	nt	fa	nh/0019_nh.bmp
109.44	0.72	143	1	2	24	per	lib	mod	mod	mod	tg	ht	wh/0785.bmp
110.16	0.72	144	1	1	18	mem	con	mod	mod	mod	nt	ht	nh/0750_nh.bmp
110.88	0.72	145	3	1	124	mem	lib	mod	mod	mod	nt	ht	nh/0405_nh.bmp
111.60	0.72	146	3	2	76	mem	con	mod	mod	low	nt	ht	nh/0265_nh.bmp
112.32	0.72	147	4	2	76	mem	con	mod	mod	low	nt	ht	nh/0265_nh.bmp
113.04	0.72	148	2	2	44	per	lib	low	mod	low	tg	ht	wh/0155.bmp
113.76	0.72	149	1	1	107	mem	lib	low	low	low	nt	ht	nh/0817_nh.bmp
114.48	0.72	150	3	2	21	per	lib	mod	mod	mod	nt	fa	nh/0841_nh.bmp
115.20	0.72	151	2	2	42	per	lib	low	mod	low	tg	ht	wh/0133.bmp
115.92	0.72	152	1	3	24	mem	lib	mod	mod	mod	nt	ht	nh/0681_nh.bmp
116.64	0.72	153	2	4	61	mem	con	mod	mod	low	nt	ht	nh/0251_nh.bmp
117.36	0.72	154	2	4	116	per	lib	low	mod	low	tg	ht	wh/0816.bmp
118.08	0.72	155	1	1	80	mem	con	low	low	mod	tg	ht	wh/0009.bmp
118.80	0.72	156	4	4	111	per	con	low	mod	low	nt	cr	nh/0177_nh.bmp
119.52	0.72	157	1	2	75	mem	con	mod	mod	low	nt	ht	nh/0648_nh.bmp
120.24	0.72	158	2	3	29	mem	lib	mod	mod	mod	tg	ht	wh/0801.bmp
120.96	0.72	159	1	1	120	mem	lib	mod	mod	mod	nt	ht	nh/0189_nh.bmp
121.68	0.72	160	3	2	49	mem	lib	mod	mod	low	nt	ht	nh/0205_nh.bmp
122.40	0.72	161	1	4	47	mem	lib	low	low	low	tg	ht	wh/0307.bmp
123.12	0.72	162	4	4	109	per	con	low	mod	low	nt	cr	nh/0675_nh.bmp
123.84	0.72	163	1	4	83	per	con	mod	low	mod	nt	cr	nh/0541_nh.bmp
124.56	0.72	164	2	4	68	mem	lib	mod	mod	low	tg	ht	wh/0745.bmp
125.28	0.72	165	2	1	18	mem	con	mod	mod	mod	nt	ht	nh/0750_nh.bmp
126.00	0.72	166	3	2	42	per	lib	low	mod	low	tg	ht	wh/0133.bmp
126.72	0.72	167	1	1	48	per	con	low	low	low	tg	ht	wh/0747.bmp
127.44	0.72	168	2	1	21	mem	con	mod	mod	mod	tg	ht	wh/0942.bmp
128.16	0.72	169	1	3	50	mem	lib	low	low	mod	nt	ht	nh/0083_nh.bmp
128.88	0.72	170	2	1	25	mem	con	mod	mod	mod	tg	ms	wh/0637.bmp
129.60	0.72	171	1	4	9	mem	con	low	low	low	tg	ht	wh/0654.bmp
130.32	0.72	172	2	4	73	mem	lib	mod	mod	low	nt	ht	nh/0231_nh.bmp
131.04	0.72	173	3	4	49	mem	con	mod	mod	low	nt	ms	nh/0233_nh.bmp
131.76	0.72	174	2	1	86	per	con	mod	mod	mod	nt	cr	nh/0526_nh.bmp
132.48	0.72	175	2	3	69	per	con	mod	mod	mod	nt	cr	nh/0938_nh.bmp
133.20	0.72	176	1	4	69	mem	lib	mod	mod	low	nt	ht	nh/0325_nh.bmp
133.92	0.72	177	3	1	89	per	con	mod	mod	mod	tg	ht	wh/0596.bmp
134.64	0.72	178	1	4	118	per	lib	low	mod	low	nt	cr	nh/0997_nh.bmp
135.36	0.72	179	1	1	43	per	con	low	low	low	nt	fa	nh/0159_nh.bmp
136.08	0.72	180	2	2	69	mem	con	mod	mod	low	tg	ht	wh/0897.bmp
136.80	0.72	181	4	4	126	per	lib	low	mod	low	nt	fa	nh/0019_nh.bmp
137.52	0.72	182	1	2	40	per	lib	low	mod	low	nt	fa	nh/0392_nh.bmp
138.24	0.72	183	1	4	98	per	con	low	mod	low	tg	ms	wh/0421.bmp
138.96	0.72	184	1	1	36	per	con	low	low	low	tg	ms	wh/0996.bmp
139.68	0.72	185	1	3	76	per	con	mod	mod	mod	tg	ms	wh/0580.bmp
140.40	0.72	186	1	2	70	mem	con	mod	mod	low	tg	ht	wh/0704.bmp
141.12	0.72	187	2	3	70	per	con	mod	mod	mod	tg	ms	wh/0287.bmp
141.84	0.72	188	3	4	68	mem	lib	mod	mod	low	tg	ht	wh/0745.bmp
142.56	0.72	189	1	1	95	per	con	mod	mod	mod	nt	cr	nh/0724_nh.bmp
143.28	0.72	190	1	2	30	per	lib	mod	mod	mod	nt	fa	nh/0585_nh.bmp
144.00	0.72	191	1	4	90	per	con	mod	low	mod	tg	ht	wh/0326.bmp
144.72	0.72	192	3	4	66	mem	lib	mod	mod	low	nt	ht	nh/0145_nh.bmp
145.44	0.72	193	1	4	75	mem	lib	mod	mod	low	tg	ht	wh/0156.bmp
146.16	0.72	194	1	1	17	mem	con	mod	mod	mod	tg	n/a	wh/0679.bmp
146.88	0.72	195	1	2	94	per	con	low	mod	low	nt	cr	nh/0115_nh.bmp
147.60	0.72	196	4	4	49	mem	con	mod	mod	low	nt	ms	nh/0233_nh.bmp
148.32	0.72	197	1	3	9	per	con	low	low	low	nt	cr	nh/0057_nh.bmp
149.04	0.72	198	4	2	85	per	con	low	mod	low	tg	ms	wh/0014.bmp
149.76	0.72	199	2	2	66	mem	con	mod	mod	low	tg	ms	wh/0298.bmp
150.48	0.72	200	1	2	63	mem	lib	mod	mod	low	tg	ht	wh/0116.bmp
151.20	0.72	201	3	2	66	mem	con	mod	mod	low	tg	ms	wh/0298.bmp
151.92	0.72	202	2	4	107	per	con	low	mod	low	tg	ms	wh/0868.bmp
152.64	0.72	203	1	2	89	per	con	low	mod	low	nt	cr	nh/0027_nh.bmp
153.36	0.72	204	1	2	92	per	con	low	mod	low	tg	ms	wh/0926.bmp
154.08	0.72	205	2	3	39	mem	con	mod	mod	mod	tg	ht	wh/0621.bmp
154.80	0.72	206	5	2	85	per	con	low	mod	low	tg	ms	wh/0014.bmp
155.52	0.72	207	2	4	27	per	lib	mod	mod	mod	tg	ht	wh/0700.bmp
156.24	0.72	208	1	1	31	mem	con	mod	mod	mod	nt	ht	nh/0100_nh.bmp
156.96	0.72	209	1	2	32	per	lib	mod	mod	mod	nt	cr	nh/0561_nh.bmp
157.68	0.72	210	4	2	42	per	lib	low	mod	low	tg	ht	wh/0133.bmp
158.40	0.72	211	2	4	75	mem	lib	mod	mod	low	tg	ht	wh/0156.bmp
159.12	0.72	212	2	3	47	mem	con	mod	mod	mod	nt	ht	nh/0098_nh.bmp
159.84	0.72	213	1	4	80	mem	lib	mod	mod	low	tg	ht	wh/0766.bmp
160.56	0.72	214	2	2	89	per	con	low	mod	low	nt	cr	nh/0027_nh.bmp
161.28	0.72	215	1	3	89	per	lib	low	low	low	tg	ht	wh/0522.bmp
162.00	0.72	216	1	2	91	per	con	low	mod	low	tg	ms	wh/0178.bmp
162.72	0.72	217	2	2	26	per	lib	mod	mod	mod	tg	ht	wh/0463.bmp
163.44	0.72	218	3	1	87	per	con	mod	mod	mod	nt	cr	nh/0002_nh.bmp
164.16	0.72	219	1	3	51	mem	lib	low	low	mod	nt	ms	nh/0873_nh.bmp
164.88	0.72	220	2	4	112	per	con	low	mod	low	nt	cr	nh/0217_nh.bmp
165.60	0.72	221	1	4	22	per	lib	mod	mod	mod	nt	cr	nh/0935_nh.bmp
166.32	0.72	222	3	1	93	per	con	mod	mod	mod	nt	cr	nh/0920_nh.bmp
167.04	0.72	223	1	4	92	per	con	mod	low	mod	nt	cr	nh/0977_nh.bmp
167.76	0.72	224	1	4	24	per	lib	mod	mod	mod	nt	fa	nh/0642_nh.bmp
168.48	0.72	225	1	3	85	per	lib	low	low	low	nt	fa	nh/0054_nh.bmp
169.20	0.72	226	1	1	90	per	con	mod	mod	mod	tg	ms	wh/0162.bmp
169.92	0.72	227	2	4	22	per	lib	mod	mod	mod	nt	cr	nh/0935_nh.bmp
170.64	0.72	228	2	3	76	per	con	mod	mod	mod	tg	ms	wh/0580.bmp
171.36	0.72	229	2	2	73	mem	con	mod	mod	low	nt	ht	nh/0932_nh.bmp
172.08	0.72	230	3	4	112	per	con	low	mod	low	nt	cr	nh/0217_nh.bmp
172.80	0.72	231	2	2	40	per	lib	low	mod	low	nt	fa	nh/0392_nh.bmp
173.52	0.72	232	2	3	38	mem	con	mod	mod	mod	nt	ht	nh/0692_nh.bmp
174.24	0.72	233	2	4	120	per	lib	low	mod	low	tg	ht	wh/0128.bmp
174.96	0.72	234	4	2	21	per	lib	mod	mod	mod	nt	fa	nh/0841_nh.bmp
175.68	0.72	235	2	4	24	per	lib	mod	mod	mod	nt	fa	nh/0642_nh.bmp
176.40	0.72	236	1	1	60	per	lib	mod	low	mod	tg	ht	wh/0087.bmp
177.12	0.72	237	1	3	60	mem	lib	low	low	mod	nt	ht	nh/0972_nh.bmp
177.84	0.72	238	1	1	16	per	lib	low	low	low	tg	ms	wh/0152.bmp
178.56	0.72	239	2	2	96	per	con	low	mod	low	tg	ms	wh/0649.bmp
179.28	0.72	240	4	3	65	per	con	mod	mod	mod	nt	cr	nh/0919_nh.bmp
180.00	0.72	241	2	2	38	per	lib	low	mod	low	tg	ms	wh/0515.bmp
180.72	0.72	242	4	3	44	mem	con	mod	mod	mod	tg	ht	wh/0899.bmp
181.44	0.72	243	4	4	17	per	lib	mod	mod	mod	nt	cr	nh/0896_nh.bmp
182.16	0.72	244	1	4	28	per	lib	mod	mod	mod	nt	cr	nh/0984_nh.bmp
182.88	0.72	245	1	2	18	per	lib	mod	mod	mod	tg	ms	wh/0965.bmp
183.60	0.72	246	2	3	30	mem	lib	mod	mod	mod	nt	ms	nh/0466_nh.bmp
184.32	0.72	247	4	4	112	per	con	low	mod	low	nt	cr	nh/0217_nh.bmp
185.04	0.72	248	3	3	69	per	con	mod	mod	mod	nt	cr	nh/0938_nh.bmp
185.76	0.72	249	1	3	63	mem	lib	low	low	mod	tg	ht	wh/0367.bmp
186.48	0.72	250	2	4	118	per	lib	low	mod	low	nt	cr	nh/0997_nh.bmp
187.20	0.72	251	5	2	76	mem	con	mod	mod	low	nt	ht	nh/0265_nh.bmp
187.92	0.72	252	1	2	105	mem	con	low	low	low	tg	ht	wh/0141.bmp
188.64	0.72	253	4	2	49	mem	lib	mod	mod	low	nt	ht	nh/0205_nh.bmp
189.36	0.72	254	3	2	95	per	con	low	mod	low	nt	cr	nh/0741_nh.bmp
190.08	0.72	255	2	3	73	per	con	mod	mod	mod	nt	cr	nh/0070_nh.bmp
190.80	0.72	256	2	2	32	per	lib	mod	mod	mod	nt	cr	nh/0561_nh.bmp
191.52	0.72	257	3	2	38	per	lib	low	mod	low	tg	ms	wh/0515.bmp
192.24	0.72	258	1	2	109	mem	con	low	low	low	tg	ht	wh/0015.bmp
192.96	0.72	259	3	3	73	per	con	mod	mod	mod	nt	cr	nh/0070_nh.bmp
193.68	0.72	260	3	3	70	per	con	mod	mod	mod	tg	ms	wh/0287.bmp
194.40	0.72	261	3	1	25	mem	con	mod	mod	mod	tg	ms	wh/0637.bmp
195.12	0.72	262	4	1	89	per	con	mod	mod	mod	tg	ht	wh/0596.bmp
195.84	0.72	263	3	4	50	mem	con	mod	mod	low	tg	ms	wh/0853.bmp
196.56	0.72	264	3	2	69	mem	con	mod	mod	low	tg	ht	wh/0897.bmp
197.28	0.72	265	1	3	113	mem	con	low	low	mod	tg	ht	wh/0235.bmp
198.00	0.72	266	2	4	125	per	lib	low	mod	low	tg	ms	wh/0066.bmp
198.72	0.72	267	2	1	90	per	con	mod	mod	mod	tg	ms	wh/0162.bmp
199.44	0.72	268	1	4	10	mem	con	low	low	low	tg	ms	wh/0722.bmp
200.16	0.72	269	4	1	25	mem	con	mod	mod	mod	tg	ms	wh/0637.bmp
200.88	0.72	270	3	4	118	per	lib	low	mod	low	nt	cr	nh/0997_nh.bmp
201.60	0.72	271	3	2	73	mem	con	mod	mod	low	nt	ht	nh/0932_nh.bmp
202.32	0.72	272	1	1	98	mem	lib	low	low	low	nt	ms	nh/0656_nh.bmp
203.04	0.72	273	4	4	118	per	lib	low	mod	low	nt	cr	nh/0997_nh.bmp
203.76	0.72	274	2	3	20	mem	lib	mod	mod	mod	tg	ht	wh/0414.bmp
204.48	0.72	275	4	2	69	mem	con	mod	mod	low	tg	ht	wh/0897.bmp
205.20	0.72	276	1	1	112	mem	lib	low	low	low	nt	ht	nh/1022_nh.bmp
205.92	0.72	277	3	3	20	mem	lib	mod	mod	mod	tg	ht	wh/0414.bmp
206.64	0.72	278	2	4	97	per	con	low	mod	low	tg	ms	wh/0341.bmp
207.36	0.72	279	3	4	101	per	con	low	mod	low	nt	cr	nh/0739_nh.bmp
208.08	0.72	280	1	2	47	per	lib	low	mod	low	nt	fa	nh/0163_nh.bmp
208.80	0.72	281	1	2	19	per	lib	mod	mod	mod	nt	cr	nh/0204_nh.bmp
209.52	0.72	282	1	2	13	mem	lib	low	low	mod	tg	ht	wh/0270.bmp
210.24	0.72	283	1	1	114	mem	lib	mod	mod	mod	tg	ht	wh/0975.bmp
210.96	0.72	284	4	3	20	mem	lib	mod	mod	mod	tg	ht	wh/0414.bmp
211.68	0.72	285	3	4	97	per	con	low	mod	low	tg	ms	wh/0341.bmp
212.40	0.72	286	2	1	127	mem	lib	mod	mod	mod	tg	ht	wh/0393.bmp
213.12	0.72	287	1	1	91	per	con	mod	mod	mod	tg	ht	wh/0879.bmp
213.84	0.72	288	1	1	113	mem	lib	mod	mod	mod	nt	ht	nh/0775_nh.bmp
214.56	0.72	289	2	1	19	mem	con	mod	mod	mod	nt	ms	nh/0183_nh.bmp
215.28	0.72	290	4	4	77	mem	lib	mod	mod	low	tg	ht	wh/0387.bmp
216.00	0.72	291	2	1	31	mem	con	mod	mod	mod	nt	ht	nh/0100_nh.bmp
216.72	0.72	292	1	4	20	per	lib	mod	mod	mod	tg	ms	wh/0955.bmp
217.44	0.72	293	2	1	120	mem	lib	mod	mod	mod	nt	ht	nh/0189_nh.bmp
218.16	0.72	294	2	4	53	mem	con	mod	mod	low	nt	ht	nh/0836_nh.bmp
218.88	0.72	295	3	4	116	per	lib	low	mod	low	tg	ht	wh/0816.bmp
219.60	0.72	296	2	3	22	mem	lib	mod	mod	mod	nt	ht	nh/0981_nh.bmp
220.32	0.72	297	2	1	125	mem	lib	mod	mod	mod	nt	ht	nh/0274_nh.bmp
221.04	0.72	298	1	1	115	mem	lib	mod	mod	mod	tg	ht	wh/0959.bmp
221.76	0.72	299	3	3	76	per	con	mod	mod	mod	tg	ms	wh/0580.bmp
222.48	0.72	300	3	3	38	mem	con	mod	mod	mod	nt	ht	nh/0692_nh.bmp
223.20	0.72	301	2	2	91	per	con	low	mod	low	tg	ms	wh/0178.bmp
223.92	0.72	302	1	3	21	mem	lib	mod	mod	mod	nt	ht	nh/0534_nh.bmp
224.64	0.72	303	4	3	76	per	con	mod	mod	mod	tg	ms	wh/0580.bmp
225.36	0.72	304	3	4	125	per	lib	low	mod	low	tg	ms	wh/0066.bmp
226.08	0.72	305	1	1	103	mem	lib	low	low	low	nt	ht	nh/0121_nh.bmp
226.80	0.72	306	1	2	115	per	con	mod	low	mod	tg	ht	wh/0272.bmp
227.52	0.72	307	5	3	76	per	con	mod	mod	mod	tg	ms	wh/0580.bmp
228.24	0.72	308	2	1	91	per	con	mod	mod	mod	tg	ht	wh/0879.bmp
228.96	0.72	309	2	4	20	per	lib	mod	mod	mod	tg	ms	wh/0955.bmp
229.68	0.72	310	3	3	43	mem	con	mod	mod	mod	tg	ht	wh/0289.bmp
230.40	0.72	311	4	2	73	mem	con	mod	mod	low	nt	ht	nh/0932_nh.bmp
231.12	0.72	312	3	1	127	mem	lib	mod	mod	mod	tg	ht	wh/0393.bmp
231.84	0.72	313	4	3	69	per	con	mod	mod	mod	nt	cr	nh/0938_nh.bmp
232.56	0.72	314	3	2	46	per	lib	low	mod	low	nt	fa	nh/0353_nh.bmp
233.28	0.72	315	4	4	66	mem	lib	mod	mod	low	nt	ht	nh/0145_nh.bmp
234.00	0.72	316	2	2	35	per	lib	low	mod	low	tg	ht	wh/0435.bmp
234.72	0.72	317	5	1	25	mem	con	mod	mod	mod	tg	ms	wh/0637.bmp
235.44	0.72	318	2	2	61	mem	lib	mod	mod	low	tg	ht	wh/1021.bmp
236.16	0.72	319	3	4	120	per	lib	low	mod	low	tg	ht	wh/0128.bmp
236.88	0.72	320	2	3	24	mem	lib	mod	mod	mod	nt	ht	nh/0681_nh.bmp
237.60	0.72	321	1	2	34	per	lib	low	mod	low	nt	cr	nh/0031_nh.bmp
238.32	0.72	322	3	1	82	per	con	mod	mod	mod	tg	ms	wh/0600.bmp
239.04	0.72	323	1	3	59	mem	lib	low	low	mod	tg	ht	wh/0103.bmp
239.76	0.72	324	5	2	21	per	lib	mod	mod	mod	nt	fa	nh/0841_nh.bmp
240.48	0.72	325	2	4	80	mem	lib	mod	mod	low	tg	ht	wh/0766.bmp
241.20	0.72	326	2	2	19	per	lib	mod	mod	mod	nt	cr	nh/0204_nh.bmp
241.92	0.72	327	2	3	77	per	con	mod	mod	mod	tg	ht	wh/0878.bmp
242.64	0.72	328	4	1	87	per	con	mod	mod	mod	nt	cr	nh/0002_nh.bmp
243.36	0.72	329	2	2	31	per	lib	mod	mod	mod	tg	ht	wh/0698.bmp
244.08	0.72	330	3	2	32	per	lib	mod	mod	mod	nt	cr	nh/0561_nh.bmp
244.80	0.72	331	3	3	47	mem	con	mod	mod	mod	nt	ht	nh/0098_nh.bmp
245.52	0.72	332	3	1	125	mem	lib	mod	mod	mod	nt	ht	nh/0274_nh.bmp
246.24	0.72	333	2	4	21	per	lib	mod	mod	mod	tg	ht	wh/0001.bmp
246.96	0.72	334	4	4	116	per	lib	low	mod	low	tg	ht	wh/0816.bmp
247.68	0.72	335	1	2	117	per	con	mod	low	mod	tg	ht	wh/0527.bmp
248.40	0.72	336	1	4	19	per	lib	mod	mod	mod	tg	ht	wh/0425.bmp
249.12	0.72	337	2	1	23	mem	con	mod	mod	mod	tg	ms	wh/0884.bmp
249.84	0.72	338	5	3	65	per	con	mod	mod	mod	nt	cr	nh/0919_nh.bmp
250.56	0.72	339	3	2	44	per	lib	low	mod	low	tg	ht	wh/0155.bmp
251.28	0.72	340	1	2	4	mem	lib	low	low	mod	nt	ht	nh/0922_nh.bmp
252.00	0.72	341	2	1	17	mem	con	mod	mod	mod	tg	n/a	wh/0679.bmp
252.72	0.72	342	4	4	57	mem	con	mod	mod	low	tg	ht	wh/0769.bmp
253.44	0.72	343	3	2	96	per	con	low	mod	low	tg	ms	wh/0649.bmp
254.16	0.72	344	3	2	19	per	lib	mod	mod	mod	nt	cr	nh/0204_nh.bmp
254.88	0.72	345	3	2	31	per	lib	mod	mod	mod	tg	ht	wh/0698.bmp
255.60	0.72	346	2	2	30	per	lib	mod	mod	mod	nt	fa	nh/0585_nh.bmp
256.32	0.72	347	4	2	44	per	lib	low	mod	low	tg	ht	wh/0155.bmp
257.04	0.72	348	1	2	82	per	con	low	mod	low	nt	fa	nh/0040_nh.bmp
257.76	0.72	349	4	4	68	mem	lib	mod	mod	low	tg	ht	wh/0745.bmp
258.48	0.72	350	1	1	73	mem	con	low	low	mod	nt	ms	nh/0829_nh.bmp
259.20	0.72	351	1	1	59	per	lib	mod	low	mod	tg	ht	wh/0324.bmp
259.92	0.72	352	1	3	79	per	con	mod	mod	mod	tg	ht	wh/0847.bmp
260.64	0.72	353	2	2	70	mem	con	mod	mod	low	tg	ht	wh/0704.bmp
261.36	0.72	354	1	3	116	mem	con	low	low	mod	nt	ms	nh/0844_nh.bmp
262.08	0.72	355	1	2	112	mem	con	low	low	low	tg	ms	wh/0432.bmp
262.80	0.72	356	2	3	21	mem	lib	mod	mod	mod	nt	ht	nh/0534_nh.bmp
263.52	0.72	357	4	4	50	mem	con	mod	mod	low	tg	ms	wh/0853.bmp
264.24	0.72	358	3	2	35	per	lib	low	mod	low	tg	ht	wh/0435.bmp
264.96	0.72	359	2	1	114	mem	lib	mod	mod	mod	tg	ht	wh/0975.bmp
265.68	0.72	360	2	1	95	per	con	mod	mod	mod	nt	cr	nh/0724_nh.bmp
266.40	0.72	361	3	4	20	per	lib	mod	mod	mod	tg	ms	wh/0955.bmp
267.12	0.72	362	3	1	23	mem	con	mod	mod	mod	tg	ms	wh/0884.bmp
267.84	0.72	363	3	4	22	per	lib	mod	mod	mod	nt	cr	nh/0935_nh.bmp
268.56	0.72	364	2	2	47	per	lib	low	mod	low	nt	fa	nh/0163_nh.bmp
269.28	0.72	365	2	4	19	per	lib	mod	mod	mod	tg	ht	wh/0425.bmp
270.00	0.72	366	4	2	31	per	lib	mod	mod	mod	tg	ht	wh/0698.bmp
270.72	0.72	367	3	3	23	mem	lib	mod	mod	mod	tg	ht	wh/0605.bmp
271.44	0.72	368	5	3	44	mem	con	mod	mod	mod	tg	ht	wh/0899.bmp
272.16	0.72	369	2	2	92	per	con	low	mod	low	tg	ms	wh/0926.bmp
272.88	0.72	370	1	3	99	per	lib	mod	low	mod	nt	cr	nh/0712_nh.bmp
273.60	0.72	371	4	3	38	mem	con	mod	mod	mod	nt	ht	nh/0692_nh.bmp
274.32	0.72	372	2	2	18	per	lib	mod	mod	mod	tg	ms	wh/0965.bmp
275.04	0.72	373	3	3	39	mem	con	mod	mod	mod	tg	ht	wh/0621.bmp
275.76	0.72	374	3	4	80	mem	lib	mod	mod	low	tg	ht	wh/0766.bmp
276.48	0.72	375	3	4	61	mem	con	mod	mod	low	nt	ht	nh/0251_nh.bmp
277.20	0.72	376	1	4	96	per	con	mod	low	mod	nt	cr	nh/1017_nh.bmp
277.92	0.72	377	1	1	61	per	lib	mod	low	mod	tg	ht	wh/0551.bmp
278.64	0.72	378	1	2	80	mem	con	mod	mod	low	nt	ht	nh/0105_nh.bmp
279.36	0.72	379	5	4	17	per	lib	mod	mod	mod	nt	cr	nh/0896_nh.bmp
280.08	0.72	380	4	3	70	per	con	mod	mod	mod	tg	ms	wh/0287.bmp
280.80	0.72	381	2	2	75	mem	con	mod	mod	low	nt	ht	nh/0648_nh.bmp
281.52	0.72	382	1	1	14	per	lib	low	low	low	nt	fa	nh/0486_nh.bmp
282.24	0.72	383	2	3	46	mem	con	mod	mod	mod	nt	ms	nh/0429_nh.bmp
282.96	0.72	384	1	1	119	mem	lib	mod	mod	mod	tg	ht	wh/0017.bmp
283.68	0.72	385	3	1	86	per	con	mod	mod	mod	nt	cr	nh/0526_nh.bmp
284.40	0.72	386	4	1	82	per	con	mod	mod	mod	tg	ms	wh/0600.bmp
285.12	0.72	387	4	2	35	per	lib	low	mod	low	tg	ht	wh/0435.bmp
285.84	0.72	388	1	2	98	mem	con	low	low	low	nt	ht	nh/0786_nh.bmp
286.56	0.72	389	1	1	108	mem	lib	low	low	low	tg	ht	wh/0423.bmp
287.28	0.72	390	1	2	50	mem	lib	mod	mod	low	tg	ms	wh/0200.bmp
288.00	0.72	391	1	2	118	per	con	mod	low	mod	nt	cr	nh/0974_nh.bmp
288.72	0.72	392	3	2	89	per	con	low	mod	low	nt	cr	nh/0027_nh.bmp
289.44	0.72	393	4	4	80	mem	lib	mod	mod	low	tg	ht	wh/0766.bmp
290.16	0.72	394	1	1	75	mem	con	low	low	mod	nt	ht	nh/0885_nh.bmp
290.88	0.72	395	5	4	126	per	lib	low	mod	low	nt	fa	nh/0019_nh.bmp
291.60	0.72	396	5	4	118	per	lib	low	mod	low	nt	cr	nh/0997_nh.bmp
292.32	0.72	397	4	4	125	per	lib	low	mod	low	tg	ms	wh/0066.bmp
293.04	0.72	398	3	4	55	mem	con	mod	mod	low	nt	ht	nh/0624_nh.bmp
293.76	0.72	399	3	3	42	mem	con	mod	mod	mod	nt	ms	nh/0627_nh.bmp
294.48	0.72	400	1	1	40	per	con	low	low	low	nt	fa	nh/0485_nh.bmp
295.20	0.72	401	4	3	47	mem	con	mod	mod	mod	nt	ht	nh/0098_nh.bmp
295.92	0.72	402	4	3	42	mem	con	mod	mod	mod	nt	ms	nh/0627_nh.bmp
296.64	0.72	403	3	1	17	mem	con	mod	mod	mod	tg	n/a	wh/0679.bmp
297.36	0.72	404	3	1	21	mem	con	mod	mod	mod	tg	ht	wh/0942.bmp
298.08	0.72	405	3	3	46	mem	con	mod	mod	mod	nt	ms	nh/0429_nh.bmp
298.80	0.72	406	4	3	46	mem	con	mod	mod	mod	nt	ms	nh/0429_nh.bmp
299.52	0.72	407	2	4	98	per	con	low	mod	low	tg	ms	wh/0421.bmp
300.24	0.72	408	4	4	97	per	con	low	mod	low	tg	ms	wh/0341.bmp
300.96	0.72	409	3	2	70	mem	con	mod	mod	low	tg	ht	wh/0704.bmp
301.68	0.72	410	4	4	61	mem	con	mod	mod	low	nt	ht	nh/0251_nh.bmp
302.40	0.72	411	1	1	34	per	con	low	low	low	nt	cr	nh/0008_nh.bmp
303.12	0.72	412	1	4	2	mem	con	low	low	low	nt	ht	nh/0788_nh.bmp
303.84	0.72	413	3	2	91	per	con	low	mod	low	tg	ms	wh/0178.bmp
304.56	0.72	414	1	3	81	per	lib	low	low	low	tg	ht	wh/0456.bmp
305.28	0.72	415	3	2	58	mem	lib	mod	mod	low	nt	ht	nh/0168_nh.bmp
306.00	0.72	416	3	1	90	per	con	mod	mod	mod	tg	ms	wh/0162.bmp
306.72	0.72	417	1	2	1	mem	lib	low	low	mod	nt	ht	nh/0149_nh.bmp
307.44	0.72	418	5	2	42	per	lib	low	mod	low	tg	ht	wh/0133.bmp
308.16	0.72	419	3	3	17	mem	lib	mod	mod	mod	tg	ht	wh/0391.bmp
308.88	0.72	420	3	1	18	mem	con	mod	mod	mod	nt	ht	nh/0750_nh.bmp
309.60	0.72	421	1	1	37	per	con	low	low	low	tg	ms	wh/0119.bmp
310.32	0.72	422	2	1	119	mem	lib	mod	mod	mod	tg	ht	wh/0017.bmp
311.04	0.72	423	4	1	125	mem	lib	mod	mod	mod	nt	ht	nh/0274_nh.bmp
311.76	0.72	424	5	3	42	mem	con	mod	mod	mod	nt	ms	nh/0627_nh.bmp
312.48	0.72	425	2	2	94	per	con	low	mod	low	nt	cr	nh/0115_nh.bmp
313.20	0.72	426	5	4	109	per	con	low	mod	low	nt	cr	nh/0675_nh.bmp
313.92	0.72	427	2	2	63	mem	lib	mod	mod	low	tg	ht	wh/0116.bmp
314.64	0.72	428	2	2	80	mem	con	mod	mod	low	nt	ht	nh/0105_nh.bmp
315.36	0.72	429	5	4	80	mem	lib	mod	mod	low	tg	ht	wh/0766.bmp
316.08	0.72	430	3	3	29	mem	lib	mod	mod	mod	tg	ht	wh/0801.bmp
316.80	0.72	431	4	2	46	per	lib	low	mod	low	nt	fa	nh/0353_nh.bmp
317.52	0.72	432	4	2	58	mem	lib	mod	mod	low	nt	ht	nh/0168_nh.bmp
318.24	0.72	433	1	1	62	per	lib	mod	low	mod	nt	cr	nh/0296_nh.bmp
318.96	0.72	434	3	4	19	per	lib	mod	mod	mod	tg	ht	wh/0425.bmp
319.68	0.72	435	5	1	125	mem	lib	mod	mod	mod	nt	ht	nh/0274_nh.bmp
320.40	0.72	436	1	1	41	per	con	low	low	low	nt	cr	nh/0979_nh.bmp
321.12	0.72	437	1	1	104	mem	lib	low	low	low	tg	ht	wh/0126.bmp
321.84	0.72	438	3	2	75	mem	con	mod	mod	low	nt	ht	nh/0648_nh.bmp
322.56	0.72	439	4	2	91	per	con	low	mod	low	tg	ms	wh/0178.bmp
323.28	0.72	440	4	4	122	per	lib	low	mod	low	nt	fa	nh/0597_nh.bmp
324.00	0.72	441	1	3	125	mem	con	low	low	mod	tg	ms	wh/0687.bmp
324.72	0.72	442	5	3	38	mem	con	mod	mod	mod	nt	ht	nh/0692_nh.bmp
325.44	0.72	443	3	3	40	mem	con	mod	mod	mod	tg	ms	wh/0658.bmp
326.16	0.72	444	4	3	43	mem	con	mod	mod	mod	tg	ht	wh/0289.bmp
326.88	0.72	445	3	2	80	mem	con	mod	mod	low	nt	ht	nh/0105_nh.bmp
327.60	0.72	446	3	3	22	mem	lib	mod	mod	mod	nt	ht	nh/0981_nh.bmp
328.32	0.72	447	3	2	67	mem	con	mod	mod	low	tg	ms	wh/0379.bmp
329.04	0.72	448	2	1	115	mem	lib	mod	mod	mod	tg	ht	wh/0959.bmp
329.76	0.72	449	3	2	63	mem	lib	mod	mod	low	tg	ht	wh/0116.bmp
330.48	0.72	450	2	2	82	per	con	low	mod	low	nt	fa	nh/0040_nh.bmp
331.20	0.72	451	5	4	97	per	con	low	mod	low	tg	ms	wh/0341.bmp
331.92	0.72	452	3	1	120	mem	lib	mod	mod	mod	nt	ht	nh/0189_nh.bmp
332.64	0.72	453	1	4	34	mem	lib	low	low	low	tg	ht	wh/0407.bmp
333.36	0.72	454	5	4	111	per	con	low	mod	low	nt	cr	nh/0177_nh.bmp
334.08	0.72	455	2	4	28	per	lib	mod	mod	mod	nt	cr	nh/0984_nh.bmp
334.80	0.72	456	5	2	31	per	lib	mod	mod	mod	tg	ht	wh/0698.bmp
335.52	0.72	457	2	4	100	per	con	low	mod	low	tg	ms	wh/0733.bmp
336.24	0.72	458	4	3	73	per	con	mod	mod	mod	nt	cr	nh/0070_nh.bmp
336.96	0.72	459	4	4	101	per	con	low	mod	low	nt	cr	nh/0739_nh.bmp
337.68	0.72	460	1	2	127	per	con	mod	low	mod	nt	cr	nh/0887_nh.bmp
338.40	0.72	461	5	2	44	per	lib	low	mod	low	tg	ht	wh/0155.bmp
339.12	0.72	462	4	4	22	per	lib	mod	mod	mod	nt	cr	nh/0935_nh.bmp
339.84	0.72	463	1	4	7	mem	con	low	low	low	tg	ms	wh/0257.bmp
340.56	0.72	464	1	4	37	mem	lib	low	low	low	tg	ht	wh/0065.bmp
341.28	0.72	465	4	4	70	mem	lib	mod	mod	low	nt	ht	nh/0514_nh.bmp
342.00	0.72	466	4	3	17	mem	lib	mod	mod	mod	tg	ht	wh/0391.bmp
342.72	0.72	467	4	1	17	mem	con	mod	mod	mod	tg	n/a	wh/0679.bmp
343.44	0.72	468	3	2	26	per	lib	mod	mod	mod	tg	ht	wh/0463.bmp
344.16	0.72	469	4	4	19	per	lib	mod	mod	mod	tg	ht	wh/0425.bmp
344.88	0.72	470	3	3	24	mem	lib	mod	mod	mod	nt	ht	nh/0681_nh.bmp
345.60	0.72	471	4	2	26	per	lib	mod	mod	mod	tg	ht	wh/0463.bmp
346.32	0.72	472	5	2	49	mem	lib	mod	mod	low	nt	ht	nh/0205_nh.bmp
347.04	0.72	473	1	3	64	mem	lib	low	low	mod	tg	ht	wh/0311.bmp
347.76	0.72	474	4	1	124	mem	lib	mod	mod	mod	nt	ht	nh/0405_nh.bmp
348.48	0.72	475	4	1	86	per	con	mod	mod	mod	nt	cr	nh/0526_nh.bmp
349.20	0.72	476	5	4	116	per	lib	low	mod	low	tg	ht	wh/0816.bmp
349.92	0.72	477	4	4	55	mem	con	mod	mod	low	nt	ht	nh/0624_nh.bmp
350.64	0.72	478	5	4	50	mem	con	mod	mod	low	tg	ms	wh/0853.bmp
351.36	0.72	479	1	1	44	per	con	low	low	low	tg	ms	wh/0330.bmp
352.08	0.72	480	1	2	12	mem	lib	low	low	mod	nt	ht	nh/0776_nh.bmp
352.80	0.72	481	2	4	69	mem	lib	mod	mod	low	nt	ht	nh/0325_nh.bmp
353.52	0.72	482	3	1	31	mem	con	mod	mod	mod	nt	ht	nh/0100_nh.bmp
354.24	0.72	483	1	4	43	mem	lib	low	low	low	nt	ht	nh/0464_nh.bmp
354.96	0.72	484	4	1	21	mem	con	mod	mod	mod	tg	ht	wh/0942.bmp
355.68	0.72	485	3	2	30	per	lib	mod	mod	mod	nt	fa	nh/0585_nh.bmp
356.40	0.72	486	4	1	31	mem	con	mod	mod	mod	nt	ht	nh/0100_nh.bmp
357.12	0.72	487	1	4	127	per	lib	low	mod	low	tg	ms	wh/0529.bmp
357.84	0.72	488	6	4	109	per	con	low	mod	low	nt	cr	nh/0675_nh.bmp
358.56	0.72	489	4	2	70	mem	con	mod	mod	low	tg	ht	wh/0704.bmp
359.28	0.72	490	1	2	124	per	con	mod	low	mod	tg	ht	wh/0321.bmp
360.00	0.72	491	1	4	44	mem	lib	low	low	low	nt	ht	nh/0889_nh.bmp
360.72	0.72	492	2	4	127	per	lib	low	mod	low	tg	ms	wh/0529.bmp
361.44	0.72	493	3	1	95	per	con	mod	mod	mod	nt	cr	nh/0724_nh.bmp
362.16	0.72	494	3	4	98	per	con	low	mod	low	tg	ms	wh/0421.bmp
362.88	0.72	495	3	4	21	per	lib	mod	mod	mod	tg	ht	wh/0001.bmp
363.60	0.72	496	3	2	57	mem	lib	mod	mod	low	tg	ht	wh/0727.bmp
364.32	0.72	497	5	4	55	mem	con	mod	mod	low	nt	ht	nh/0624_nh.bmp
365.04	0.72	498	5	4	66	mem	lib	mod	mod	low	nt	ht	nh/0145_nh.bmp
365.76	0.72	499	5	3	20	mem	lib	mod	mod	mod	tg	ht	wh/0414.bmp
366.48	0.72	500	2	4	119	per	lib	low	mod	low	nt	fa	nh/0377_nh.bmp
367.20	0.72	501	3	4	27	per	lib	mod	mod	mod	tg	ht	wh/0700.bmp
367.92	0.72	502	1	3	87	per	lib	low	low	low	nt	cr	nh/0685_nh.bmp
368.64	0.72	503	4	1	93	per	con	mod	mod	mod	nt	cr	nh/0920_nh.bmp
369.36	0.72	504	2	3	78	per	con	mod	mod	mod	nt	cr	nh/0857_nh.bmp
370.08	0.72	505	1	2	56	mem	lib	mod	mod	low	nt	ht	nh/0455_nh.bmp
370.80	0.72	506	4	2	38	per	lib	low	mod	low	tg	ms	wh/0515.bmp
371.52	0.72	507	4	2	19	per	lib	mod	mod	mod	nt	cr	nh/0204_nh.bmp
372.24	0.72	508	4	2	96	per	con	low	mod	low	tg	ms	wh/0649.bmp
372.96	0.72	509	1	3	101	per	lib	mod	low	mod	nt	cr	nh/0303_nh.bmp
373.68	0.72	510	5	3	69	per	con	mod	mod	mod	nt	cr	nh/0938_nh.bmp
374.40	0.72	511	4	3	39	mem	con	mod	mod	mod	tg	ht	wh/0621.bmp
375.12	0.72	512	3	2	47	per	lib	low	mod	low	nt	fa	nh/0163_nh.bmp
375.84	0.72	513	5	3	39	mem	con	mod	mod	mod	tg	ht	wh/0621.bmp
376.56	0.72	514	5	2	70	mem	con	mod	mod	low	tg	ht	wh/0704.bmp
377.28	0.72	515	3	1	115	mem	lib	mod	mod	mod	tg	ht	wh/0959.bmp
378.00	0.72	516	4	3	40	mem	con	mod	mod	mod	tg	ms	wh/0658.bmp
378.72	0.72	517	4	3	22	mem	lib	mod	mod	mod	nt	ht	nh/0981_nh.bmp
379.44	0.72	518	5	4	68	mem	lib	mod	mod	low	tg	ht	wh/0745.bmp
380.16	0.72	519	4	2	30	per	lib	mod	mod	mod	nt	fa	nh/0585_nh.bmp
380.88	0.72	520	6	2	42	per	lib	low	mod	low	tg	ht	wh/0133.bmp
381.60	0.72	521	4	1	120	mem	lib	mod	mod	mod	nt	ht	nh/0189_nh.bmp
382.32	0.72	522	5	2	19	per	lib	mod	mod	mod	nt	cr	nh/0204_nh.bmp
383.04	0.72	523	5	2	58	mem	lib	mod	mod	low	nt	ht	nh/0168_nh.bmp
383.76	0.72	524	5	4	22	per	lib	mod	mod	mod	nt	cr	nh/0935_nh.bmp
384.48	0.72	525	3	4	127	per	lib	low	mod	low	tg	ms	wh/0529.bmp
385.20	0.72	526	6	4	116	per	lib	low	mod	low	tg	ht	wh/0816.bmp
385.92	0.72	527	4	2	75	mem	con	mod	mod	low	nt	ht	nh/0648_nh.bmp
386.64	0.72	528	4	2	89	per	con	low	mod	low	nt	cr	nh/0027_nh.bmp
387.36	0.72	529	5	4	77	mem	lib	mod	mod	low	tg	ht	wh/0387.bmp
388.08	0.72	530	4	2	47	per	lib	low	mod	low	nt	fa	nh/0163_nh.bmp
388.80	0.72	531	3	4	119	per	lib	low	mod	low	nt	fa	nh/0377_nh.bmp
389.52	0.72	532	5	2	75	mem	con	mod	mod	low	nt	ht	nh/0648_nh.bmp
390.24	0.72	533	1	2	128	per	con	mod	low	mod	nt	cr	nh/0322_nh.bmp
390.96	0.72	534	4	4	21	per	lib	mod	mod	mod	tg	ht	wh/0001.bmp
391.68	0.72	535	1	3	3	per	con	low	low	low	tg	ms	wh/0142.bmp
392.40	0.72	536	5	2	96	per	con	low	mod	low	tg	ms	wh/0649.bmp
393.12	0.72	537	5	2	89	per	con	low	mod	low	nt	cr	nh/0027_nh.bmp
393.84	0.72	538	5	1	93	per	con	mod	mod	mod	nt	cr	nh/0920_nh.bmp
394.56	0.72	539	5	2	47	per	lib	low	mod	low	nt	fa	nh/0163_nh.bmp
395.28	0.72	540	5	1	120	mem	lib	mod	mod	mod	nt	ht	nh/0189_nh.bmp
396.00	0.72	541	1	3	109	per	lib	mod	low	mod	nt	cr	nh/0740_nh.bmp
396.72	0.72	542	3	3	21	mem	lib	mod	mod	mod	nt	ht	nh/0534_nh.bmp
397.44	0.72	543	3	3	30	mem	lib	mod	mod	mod	nt	ms	nh/0466_nh.bmp
398.16	0.72	544	1	1	53	per	lib	mod	low	mod	tg	ht	wh/0659.bmp
398.88	0.72	545	3	4	73	mem	lib	mod	mod	low	nt	ht	nh/0231_nh.bmp
399.60	0.72	546	5	3	46	mem	con	mod	mod	mod	nt	ms	nh/0429_nh.bmp
400.32	0.72	547	4	1	115	mem	lib	mod	mod	mod	tg	ht	wh/0959.bmp
401.04	0.72	548	4	1	90	per	con	mod	mod	mod	tg	ms	wh/0162.bmp
401.76	0.72	549	3	2	18	per	lib	mod	mod	mod	tg	ms	wh/0965.bmp
402.48	0.72	550	5	1	90	per	con	mod	mod	mod	tg	ms	wh/0162.bmp
403.20	0.72	551	2	2	24	per	lib	mod	mod	mod	tg	ht	wh/0785.bmp
403.92	0.72	552	5	3	40	mem	con	mod	mod	mod	tg	ms	wh/0658.bmp
404.64	0.72	553	6	3	38	mem	con	mod	mod	mod	nt	ht	nh/0692_nh.bmp
405.36	0.72	554	6	3	40	mem	con	mod	mod	mod	tg	ms	wh/0658.bmp
406.08	0.72	555	4	1	127	mem	lib	mod	mod	mod	tg	ht	wh/0393.bmp
406.80	0.72	556	1	2	15	mem	lib	low	low	mod	tg	ms	wh/0918.bmp
407.52	0.72	557	4	2	32	per	lib	mod	mod	mod	nt	cr	nh/0561_nh.bmp
408.24	0.72	558	5	1	86	per	con	mod	mod	mod	nt	cr	nh/0526_nh.bmp
408.96	0.72	559	5	4	61	mem	con	mod	mod	low	nt	ht	nh/0251_nh.bmp
409.68	0.72	560	1	1	77	mem	con	low	low	mod	nt	ms	nh/0449_nh.bmp
410.40	0.72	561	5	1	21	mem	con	mod	mod	mod	tg	ht	wh/0942.bmp
411.12	0.72	562	3	4	75	mem	lib	mod	mod	low	tg	ht	wh/0156.bmp
411.84	0.72	563	6	4	77	mem	lib	mod	mod	low	tg	ht	wh/0387.bmp
412.56	0.72	564	3	3	77	per	con	mod	mod	mod	tg	ht	wh/0878.bmp
413.28	0.72	565	3	4	100	per	con	low	mod	low	tg	ms	wh/0733.bmp
414.00	0.72	566	6	4	68	mem	lib	mod	mod	low	tg	ht	wh/0745.bmp
414.72	0.72	567	4	3	24	mem	lib	mod	mod	mod	nt	ht	nh/0681_nh.bmp
415.44	0.72	568	4	3	30	mem	lib	mod	mod	mod	nt	ms	nh/0466_nh.bmp
416.16	0.72	569	3	2	62	mem	lib	mod	mod	low	nt	ht	nh/0755_nh.bmp
416.88	0.72	570	6	3	39	mem	con	mod	mod	mod	tg	ht	wh/0621.bmp
417.60	0.72	571	4	4	20	per	lib	mod	mod	mod	tg	ms	wh/0955.bmp
418.32	0.72	572	2	2	34	per	lib	low	mod	low	nt	cr	nh/0031_nh.bmp
419.04	0.72	573	4	4	119	per	lib	low	mod	low	nt	fa	nh/0377_nh.bmp
419.76	0.72	574	3	2	92	per	con	low	mod	low	tg	ms	wh/0926.bmp
420.48	0.72	575	1	4	15	mem	con	low	low	low	tg	ht	wh/0191.bmp
421.20	0.72	576	1	4	85	per	con	mod	low	mod	tg	ht	wh/0501.bmp
421.92	0.72	577	4	4	100	per	con	low	mod	low	tg	ms	wh/0733.bmp
422.64	0.72	578	3	3	78	per	con	mod	mod	mod	nt	cr	nh/0857_nh.bmp
423.36	0.72	579	5	4	49	mem	con	mod	mod	low	nt	ms	nh/0233_nh.bmp
424.08	0.72	580	3	2	82	per	con	low	mod	low	nt	fa	nh/0040_nh.bmp
424.80	0.72	581	6	1	90	per	con	mod	mod	mod	tg	ms	wh/0162.bmp
425.52	0.72	582	1	1	2	per	lib	low	low	low	tg	ht	wh/0651.bmp
426.24	0.72	583	4	2	62	mem	lib	mod	mod	low	nt	ht	nh/0755_nh.bmp
426.96	0.72	584	4	4	27	per	lib	mod	mod	mod	tg	ht	wh/0700.bmp
427.68	0.72	585	4	1	23	mem	con	mod	mod	mod	tg	ms	wh/0884.bmp
428.40	0.72	586	5	2	91	per	con	low	mod	low	tg	ms	wh/0178.bmp
429.12	0.72	587	4	3	78	per	con	mod	mod	mod	nt	cr	nh/0857_nh.bmp
429.84	0.72	588	3	4	28	per	lib	mod	mod	mod	nt	cr	nh/0984_nh.bmp
430.56	0.72	589	4	2	18	per	lib	mod	mod	mod	tg	ms	wh/0965.bmp
431.28	0.72	590	4	4	98	per	con	low	mod	low	tg	ms	wh/0421.bmp
432.00	0.72	591	2	1	26	mem	con	mod	mod	mod	nt	ht	nh/0473_nh.bmp
432.72	0.72	592	4	2	57	mem	lib	mod	mod	low	tg	ht	wh/0727.bmp
433.44	0.72	593	1	4	46	mem	lib	low	low	low	tg	ht	wh/0210.bmp
434.16	0.72	594	5	2	30	per	lib	mod	mod	mod	nt	fa	nh/0585_nh.bmp
434.88	0.72	595	2	3	79	per	con	mod	mod	mod	tg	ht	wh/0847.bmp
435.60	0.72	596	6	4	126	per	lib	low	mod	low	nt	fa	nh/0019_nh.bmp
436.32	0.72	597	1	4	13	mem	con	low	low	low	nt	ms	nh/0777_nh.bmp
437.04	0.72	598	6	2	19	per	lib	mod	mod	mod	nt	cr	nh/0204_nh.bmp
437.76	0.72	599	5	1	89	per	con	mod	mod	mod	tg	ht	wh/0596.bmp
438.48	0.72	600	6	3	42	mem	con	mod	mod	mod	nt	ms	nh/0627_nh.bmp
439.20	0.72	601	4	3	29	mem	lib	mod	mod	mod	tg	ht	wh/0801.bmp
439.92	0.72	602	1	3	96	per	lib	low	low	low	tg	ms	wh/1001.bmp
440.64	0.72	603	6	4	61	mem	con	mod	mod	low	nt	ht	nh/0251_nh.bmp
441.36	0.72	604	2	2	56	mem	lib	mod	mod	low	nt	ht	nh/0455_nh.bmp
442.08	0.72	605	5	3	29	mem	lib	mod	mod	mod	tg	ht	wh/0801.bmp
442.80	0.72	606	6	2	44	per	lib	low	mod	low	tg	ht	wh/0155.bmp
443.52	0.72	607	3	4	53	mem	con	mod	mod	low	nt	ht	nh/0836_nh.bmp
444.24	0.72	608	1	1	12	per	lib	low	low	low	nt	n/a	nh/0481_nh.bmp
444.96	0.72	609	1	3	92	per	lib	low	low	low	nt	fa	nh/0140_nh.bmp
445.68	0.72	610	6	1	93	per	con	mod	mod	mod	nt	cr	nh/0920_nh.bmp
446.40	0.72	611	1	4	91	per	con	mod	low	mod	tg	ms	wh/0478.bmp
447.12	0.72	612	3	2	40	per	lib	low	mod	low	nt	fa	nh/0392_nh.bmp
447.84	0.72	613	2	2	50	mem	lib	mod	mod	low	tg	ms	wh/0200.bmp
448.56	0.72	614	3	2	34	per	lib	low	mod	low	nt	cr	nh/0031_nh.bmp
449.28	0.72	615	3	1	19	mem	con	mod	mod	mod	nt	ms	nh/0183_nh.bmp
450.00	0.72	616	5	4	119	per	lib	low	mod	low	nt	fa	nh/0377_nh.bmp
450.72	0.72	617	3	4	51	mem	con	mod	mod	low	tg	ht	wh/0472.bmp
451.44	0.72	618	1	2	107	mem	con	low	low	low	tg	ms	wh/0006.bmp
452.16	0.72	619	6	2	49	mem	lib	mod	mod	low	nt	ht	nh/0205_nh.bmp
452.88	0.72	620	4	1	19	mem	con	mod	mod	mod	nt	ms	nh/0183_nh.bmp
453.60	0.72	621	6	1	120	mem	lib	mod	mod	mod	nt	ht	nh/0189_nh.bmp
454.32	0.72	622	5	2	38	per	lib	low	mod	low	tg	ms	wh/0515.bmp
455.04	0.72	623	2	1	113	mem	lib	mod	mod	mod	nt	ht	nh/0775_nh.bmp
455.76	0.72	624	5	3	24	mem	lib	mod	mod	mod	nt	ht	nh/0681_nh.bmp
456.48	0.72	625	2	4	56	mem	con	mod	mod	low	tg	ht	wh/0573.bmp
457.20	0.72	626	5	4	98	per	con	low	mod	low	tg	ms	wh/0421.bmp
457.92	0.72	627	6	2	70	mem	con	mod	mod	low	tg	ht	wh/0704.bmp
458.64	0.72	628	4	2	67	mem	con	mod	mod	low	tg	ms	wh/0379.bmp
459.36	0.72	629	4	2	92	per	con	low	mod	low	tg	ms	wh/0926.bmp
460.08	0.72	630	5	2	35	per	lib	low	mod	low	tg	ht	wh/0435.bmp
460.80	0.72	631	3	2	56	mem	lib	mod	mod	low	nt	ht	nh/0455_nh.bmp
461.52	0.72	632	5	2	62	mem	lib	mod	mod	low	nt	ht	nh/0755_nh.bmp
462.24	0.72	633	4	2	40	per	lib	low	mod	low	nt	fa	nh/0392_nh.bmp
462.96	0.72	634	4	4	51	mem	con	mod	mod	low	tg	ht	wh/0472.bmp
463.68	0.72	635	5	4	21	per	lib	mod	mod	mod	tg	ht	wh/0001.bmp
464.40	0.72	636	4	4	73	mem	lib	mod	mod	low	nt	ht	nh/0231_nh.bmp
465.12	0.72	637	5	2	32	per	lib	mod	mod	mod	nt	cr	nh/0561_nh.bmp
465.84	0.72	638	5	2	26	per	lib	mod	mod	mod	tg	ht	wh/0463.bmp
466.56	0.72	639	1	3	118	mem	con	low	low	mod	tg	ms	wh/0047.bmp
467.28	0.72	640	4	4	127	per	lib	low	mod	low	tg	ms	wh/0529.bmp
468.00	0.72	641	5	3	43	mem	con	mod	mod	mod	tg	ht	wh/0289.bmp
468.72	0.72	642	4	2	66	mem	con	mod	mod	low	tg	ms	wh/0298.bmp
469.44	0.72	643	3	1	113	mem	lib	mod	mod	mod	nt	ht	nh/0775_nh.bmp
470.16	0.72	644	5	1	17	mem	con	mod	mod	mod	tg	n/a	wh/0679.bmp
470.88	0.72	645	5	2	46	per	lib	low	mod	low	nt	fa	nh/0353_nh.bmp
471.60	0.72	646	5	4	112	per	con	low	mod	low	nt	cr	nh/0217_nh.bmp
472.32	0.72	647	4	2	34	per	lib	low	mod	low	nt	cr	nh/0031_nh.bmp
473.04	0.72	648	1	3	103	per	lib	mod	low	mod	tg	ht	wh/0850.bmp
473.76	0.72	649	4	2	63	mem	lib	mod	mod	low	tg	ht	wh/0116.bmp
474.48	0.72	650	4	2	95	per	con	low	mod	low	nt	cr	nh/0741_nh.bmp
475.20	0.72	651	4	2	56	mem	lib	mod	mod	low	nt	ht	nh/0455_nh.bmp
475.92	0.72	652	6	1	86	per	con	mod	mod	mod	nt	cr	nh/0526_nh.bmp
476.64	0.72	653	1	3	5	per	con	low	low	low	nt	cr	nh/0682_nh.bmp
477.36	0.72	654	1	3	114	mem	con	low	low	mod	tg	ms	wh/0332.bmp
478.08	0.72	655	5	4	125	per	lib	low	mod	low	tg	ms	wh/0066.bmp
478.80	0.72	656	3	4	69	mem	lib	mod	mod	low	nt	ht	nh/0325_nh.bmp
479.52	0.72	657	3	2	94	per	con	low	mod	low	nt	cr	nh/0115_nh.bmp
480.24	0.72	658	5	1	19	mem	con	mod	mod	mod	nt	ms	nh/0183_nh.bmp
480.96	0.72	659	5	2	57	mem	lib	mod	mod	low	tg	ht	wh/0727.bmp
481.68	0.72	660	4	2	80	mem	con	mod	mod	low	nt	ht	nh/0105_nh.bmp
482.40	0.72	661	5	2	69	mem	con	mod	mod	low	tg	ht	wh/0897.bmp
483.12	0.72	662	5	4	100	per	con	low	mod	low	tg	ms	wh/0733.bmp
483.84	0.72	663	5	2	63	mem	lib	mod	mod	low	tg	ht	wh/0116.bmp
484.56	0.72	664	3	1	114	mem	lib	mod	mod	mod	tg	ht	wh/0975.bmp
485.28	0.72	665	5	1	127	mem	lib	mod	mod	mod	tg	ht	wh/0393.bmp
486.00	0.72	666	4	3	77	per	con	mod	mod	mod	tg	ht	wh/0878.bmp
486.72	0.72	667	5	2	92	per	con	low	mod	low	tg	ms	wh/0926.bmp
487.44	0.72	668	1	2	119	per	con	mod	low	mod	tg	ht	wh/0696.bmp
488.16	0.72	669	3	1	119	mem	lib	mod	mod	mod	tg	ht	wh/0017.bmp
488.88	0.72	670	5	1	124	mem	lib	mod	mod	mod	nt	ht	nh/0405_nh.bmp
489.60	0.72	671	4	1	95	per	con	mod	mod	mod	nt	cr	nh/0724_nh.bmp
490.32	0.72	672	3	4	107	per	con	low	mod	low	tg	ms	wh/0868.bmp
491.04	0.72	673	6	1	125	mem	lib	mod	mod	mod	nt	ht	nh/0274_nh.bmp
491.76	0.72	674	5	4	51	mem	con	mod	mod	low	tg	ht	wh/0472.bmp
492.48	0.72	675	5	3	30	mem	lib	mod	mod	mod	nt	ms	nh/0466_nh.bmp
493.20	0.72	676	5	3	47	mem	con	mod	mod	mod	nt	ht	nh/0098_nh.bmp
493.92	0.72	677	4	1	18	mem	con	mod	mod	mod	nt	ht	nh/0750_nh.bmp
494.64	0.72	678	4	4	28	per	lib	mod	mod	mod	nt	cr	nh/0984_nh.bmp
495.36	0.72	679	3	2	50	mem	lib	mod	mod	low	tg	ms	wh/0200.bmp
496.08	0.72	680	6	2	92	per	con	low	mod	low	tg	ms	wh/0926.bmp
496.80	0.72	681	5	1	115	mem	lib	mod	mod	mod	tg	ht	wh/0959.bmp
497.52	0.72	682	5	1	23	mem	con	mod	mod	mod	tg	ms	wh/0884.bmp
498.24	0.72	683	5	4	70	mem	lib	mod	mod	low	nt	ht	nh/0514_nh.bmp
498.96	0.72	684	5	2	18	per	lib	mod	mod	mod	tg	ms	wh/0965.bmp
499.68	0.72	685	5	2	95	per	con	low	mod	low	nt	cr	nh/0741_nh.bmp
500.40	0.72	686	5	3	73	per	con	mod	mod	mod	nt	cr	nh/0070_nh.bmp
501.12	0.72	687	1	2	2	mem	lib	low	low	mod	tg	ht	wh/0218.bmp
501.84	0.72	688	5	1	87	per	con	mod	mod	mod	nt	cr	nh/0002_nh.bmp
502.56	0.72	689	1	4	93	per	con	mod	low	mod	nt	cr	nh/0912_nh.bmp
503.28	0.72	690	4	2	94	per	con	low	mod	low	nt	cr	nh/0115_nh.bmp
504.00	0.72	691	3	2	24	per	lib	mod	mod	mod	tg	ht	wh/0785.bmp
504.72	0.72	692	6	1	21	mem	con	mod	mod	mod	tg	ht	wh/0942.bmp
505.44	0.72	693	5	1	31	mem	con	mod	mod	mod	nt	ht	nh/0100_nh.bmp
506.16	0.72	694	1	2	108	mem	con	low	low	low	nt	ms	nh/0076_nh.bmp
506.88	0.72	695	5	3	70	per	con	mod	mod	mod	tg	ms	wh/0287.bmp
507.60	0.72	696	5	2	34	per	lib	low	mod	low	nt	cr	nh/0031_nh.bmp
508.32	0.72	697	5	3	17	mem	lib	mod	mod	mod	tg	ht	wh/0391.bmp
509.04	0.72	698	6	2	18	per	lib	mod	mod	mod	tg	ms	wh/0965.bmp
509.76	0.72	699	5	2	40	per	lib	low	mod	low	nt	fa	nh/0392_nh.bmp
510.48	0.72	700	4	2	82	per	con	low	mod	low	nt	fa	nh/0040_nh.bmp
511.20	0.72	701	4	4	107	per	con	low	mod	low	tg	ms	wh/0868.bmp
511.92	0.72	702	6	1	31	mem	con	mod	mod	mod	nt	ht	nh/0100_nh.bmp
512.64	0.72	703	6	4	21	per	lib	mod	mod	mod	tg	ht	wh/0001.bmp
513.36	0.72	704	6	1	115	mem	lib	mod	mod	mod	tg	ht	wh/0959.bmp
514.08	0.72	705	4	4	120	per	lib	low	mod	low	tg	ht	wh/0128.bmp
514.80	0.72	706	4	2	24	per	lib	mod	mod	mod	tg	ht	wh/0785.bmp
515.52	0.72	707	5	1	18	mem	con	mod	mod	mod	nt	ht	nh/0750_nh.bmp
516.24	0.72	708	6	4	17	per	lib	mod	mod	mod	nt	cr	nh/0896_nh.bmp
516.96	0.72	709	1	1	9	per	lib	low	low	low	nt	cr	nh/0109_nh.bmp
517.68	0.72	710	1	2	3	mem	lib	low	low	mod	nt	ms	nh/0589_nh.bmp
518.40	0.72	711	4	1	119	mem	lib	mod	mod	mod	tg	ht	wh/0017.bmp
519.12	0.72	712	6	4	51	mem	con	mod	mod	low	tg	ht	wh/0472.bmp
519.84	0.72	713	5	2	24	per	lib	mod	mod	mod	tg	ht	wh/0785.bmp
520.56	0.72	714	3	2	61	mem	lib	mod	mod	low	tg	ht	wh/1021.bmp
521.28	0.72	715	4	4	75	mem	lib	mod	mod	low	tg	ht	wh/0156.bmp
522.00	0.72	716	1	3	117	mem	con	low	low	mod	nt	ms	nh/0725_nh.bmp
522.72	0.72	717	1	3	100	per	lib	mod	low	mod	tg	ms	wh/0702.bmp
523.44	0.72	718	3	1	91	per	con	mod	mod	mod	tg	ht	wh/0879.bmp
524.16	0.72	719	6	2	91	per	con	low	mod	low	tg	ms	wh/0178.bmp
524.88	0.72	720	5	4	19	per	lib	mod	mod	mod	tg	ht	wh/0425.bmp
525.60	0.72	721	6	1	19	mem	con	mod	mod	mod	nt	ms	nh/0183_nh.bmp
526.32	0.72	722	4	1	114	mem	lib	mod	mod	mod	tg	ht	wh/0975.bmp
527.04	0.72	723	6	4	19	per	lib	mod	mod	mod	tg	ht	wh/0425.bmp
527.76	0.72	724	3	1	26	mem	con	mod	mod	mod	nt	ht	nh/0473_nh.bmp
528.48	0.72	725	3	4	24	per	lib	mod	mod	mod	nt	fa	nh/0642_nh.bmp
529.20	0.72	726	4	4	69	mem	lib	mod	mod	low	nt	ht	nh/0325_nh.bmp
529.92	0.72	727	6	2	24	per	lib	mod	mod	mod	tg	ht	wh/0785.bmp
530.64	0.72	728	6	3	76	per	con	mod	mod	mod	tg	ms	wh/0580.bmp
531.36	0.72	729	1	3	83	per	lib	low	low	low	tg	ht	wh/0354.bmp
532.08	0.72	730	4	2	61	mem	lib	mod	mod	low	tg	ht	wh/1021.bmp
532.80	0.72	731	5	4	20	per	lib	mod	mod	mod	tg	ms	wh/0955.bmp
533.52	0.72	732	5	4	107	per	con	low	mod	low	tg	ms	wh/0868.bmp
534.24	0.72	733	3	3	79	per	con	mod	mod	mod	tg	ht	wh/0847.bmp
534.96	0.72	734	5	4	73	mem	lib	mod	mod	low	nt	ht	nh/0231_nh.bmp
535.68	0.72	735	6	3	46	mem	con	mod	mod	mod	nt	ms	nh/0429_nh.bmp
536.40	0.72	736	6	4	111	per	con	low	mod	low	nt	cr	nh/0177_nh.bmp
537.12	0.72	737	5	4	122	per	lib	low	mod	low	nt	fa	nh/0597_nh.bmp
537.84	0.72	738	4	4	24	per	lib	mod	mod	mod	nt	fa	nh/0642_nh.bmp
538.56	0.72	739	5	2	61	mem	lib	mod	mod	low	tg	ht	wh/1021.bmp
539.28	0.72	740	5	4	75	mem	lib	mod	mod	low	tg	ht	wh/0156.bmp
540.00	0.72	741	4	4	53	mem	con	mod	mod	low	nt	ht	nh/0836_nh.bmp
540.72	0.72	742	5	2	73	mem	con	mod	mod	low	nt	ht	nh/0932_nh.bmp
541.44	0.72	743	5	1	95	per	con	mod	mod	mod	nt	cr	nh/0724_nh.bmp
542.16	0.72	744	1	1	63	per	lib	mod	low	mod	nt	cr	nh/0286_nh.bmp
542.88	0.72	745	6	2	40	per	lib	low	mod	low	nt	fa	nh/0392_nh.bmp
543.60	0.72	746	6	2	63	mem	lib	mod	mod	low	tg	ht	wh/0116.bmp
544.32	0.72	747	6	3	47	mem	con	mod	mod	mod	nt	ht	nh/0098_nh.bmp
545.04	0.72	748	6	4	100	per	con	low	mod	low	tg	ms	wh/0733.bmp
545.76	0.72	749	1	3	58	mem	lib	low	low	mod	tg	ht	wh/0288.bmp
546.48	0.72	750	4	1	26	mem	con	mod	mod	mod	nt	ht	nh/0473_nh.bmp
547.20	0.72	751	6	1	23	mem	con	mod	mod	mod	tg	ms	wh/0884.bmp
547.92	0.72	752	1	3	111	per	lib	mod	low	mod	tg	ms	wh/0213.bmp
548.64	0.72	753	4	3	23	mem	lib	mod	mod	mod	tg	ht	wh/0605.bmp
549.36	0.72	754	1	1	56	per	lib	mod	low	mod	nt	fa	nh/0553_nh.bmp
550.08	0.72	755	5	2	56	mem	lib	mod	mod	low	nt	ht	nh/0455_nh.bmp
550.80	0.72	756	6	2	62	mem	lib	mod	mod	low	nt	ht	nh/0755_nh.bmp
551.52	0.72	757	5	2	67	mem	con	mod	mod	low	tg	ms	wh/0379.bmp
552.24	0.72	758	5	2	82	per	con	low	mod	low	nt	fa	nh/0040_nh.bmp
552.96	0.72	759	5	4	101	per	con	low	mod	low	nt	cr	nh/0739_nh.bmp
553.68	0.72	760	1	3	104	per	lib	mod	low	mod	tg	ht	wh/0601.bmp
554.40	0.72	761	6	4	66	mem	lib	mod	mod	low	nt	ht	nh/0145_nh.bmp
555.12	0.72	762	1	1	71	mem	con	low	low	mod	tg	ht	wh/0550.bmp
555.84	0.72	763	6	4	101	per	con	low	mod	low	nt	cr	nh/0739_nh.bmp
556.56	0.72	764	6	2	96	per	con	low	mod	low	tg	ms	wh/0649.bmp
557.28	0.72	765	6	1	18	mem	con	mod	mod	mod	nt	ht	nh/0750_nh.bmp
558.00	0.72	766	5	4	127	per	lib	low	mod	low	tg	ms	wh/0529.bmp
558.72	0.72	767	6	4	119	per	lib	low	mod	low	nt	fa	nh/0377_nh.bmp
559.44	0.72	768	5	4	57	mem	con	mod	mod	low	tg	ht	wh/0769.bmp
560.16	0.72	769	6	2	30	per	lib	mod	mod	mod	nt	fa	nh/0585_nh.bmp
560.88	0.72	770	6	4	20	per	lib	mod	mod	mod	tg	ms	wh/0955.bmp
561.60	0.72	771	4	3	79	per	con	mod	mod	mod	tg	ht	wh/0847.bmp
562.32	0.72	772	6	4	73	mem	lib	mod	mod	low	nt	ht	nh/0231_nh.bmp
563.04	0.72	773	6	1	127	mem	lib	mod	mod	mod	tg	ht	wh/0393.bmp
563.76	0.72	774	6	2	57	mem	lib	mod	mod	low	tg	ht	wh/0727.bmp
564.48	0.72	775	6	2	38	per	lib	low	mod	low	tg	ms	wh/0515.bmp
565.20	0.72	776	4	2	50	mem	lib	mod	mod	low	tg	ms	wh/0200.bmp
565.92	0.72	777	6	2	76	mem	con	mod	mod	low	nt	ht	nh/0265_nh.bmp
566.64	0.72	778	1	3	1	per	con	low	low	low	tg	ms	wh/0862.bmp
567.36	0.72	779	6	2	34	per	lib	low	mod	low	nt	cr	nh/0031_nh.bmp
568.08	0.72	780	5	1	82	per	con	mod	mod	mod	tg	ms	wh/0600.bmp
568.80	0.72	781	6	4	107	per	con	low	mod	low	tg	ms	wh/0868.bmp
569.52	0.72	782	5	2	80	mem	con	mod	mod	low	nt	ht	nh/0105_nh.bmp
570.24	0.72	783	6	2	69	mem	con	mod	mod	low	tg	ht	wh/0897.bmp
570.96	0.72	784	5	3	22	mem	lib	mod	mod	mod	nt	ht	nh/0981_nh.bmp
571.68	0.72	785	6	2	35	per	lib	low	mod	low	tg	ht	wh/0435.bmp
572.40	0.72	786	5	3	78	per	con	mod	mod	mod	nt	cr	nh/0857_nh.bmp
573.12	0.72	787	1	4	36	mem	lib	low	low	low	nt	ht	nh/0800_nh.bmp
573.84	0.72	788	1	3	2	per	con	low	low	low	tg	ms	wh/0028.bmp
574.56	0.72	789	5	4	24	per	lib	mod	mod	mod	nt	fa	nh/0642_nh.bmp
575.28	0.72	790	6	2	26	per	lib	mod	mod	mod	tg	ht	wh/0463.bmp
576.00	0.72	791	6	2	95	per	con	low	mod	low	nt	cr	nh/0741_nh.bmp
576.72	0.72	792	1	2	16	mem	lib	low	low	mod	tg	ht	wh/0856.bmp
577.44	0.72	793	4	3	21	mem	lib	mod	mod	mod	nt	ht	nh/0534_nh.bmp
578.16	0.72	794	5	1	26	mem	con	mod	mod	mod	nt	ht	nh/0473_nh.bmp
578.88	0.72	795	6	1	26	mem	con	mod	mod	mod	nt	ht	nh/0473_nh.bmp
579.60	0.72	796	5	4	69	mem	lib	mod	mod	low	nt	ht	nh/0325_nh.bmp
580.32	0.72	797	5	3	21	mem	lib	mod	mod	mod	nt	ht	nh/0534_nh.bmp
581.04	0.72	798	5	4	28	per	lib	mod	mod	mod	nt	cr	nh/0984_nh.bmp
581.76	0.72	799	5	2	94	per	con	low	mod	low	nt	cr	nh/0115_nh.bmp
582.48	0.72	800	6	2	67	mem	con	mod	mod	low	tg	ms	wh/0379.bmp
583.20	0.72	801	6	1	82	per	con	mod	mod	mod	tg	ms	wh/0600.bmp
583.92	0.72	802	6	2	58	mem	lib	mod	mod	low	nt	ht	nh/0168_nh.bmp
584.64	0.72	803	1	1	100	mem	lib	low	low	low	tg	ms	wh/0794.bmp
585.36	0.72	804	6	1	87	per	con	mod	mod	mod	nt	cr	nh/0002_nh.bmp
586.08	0.72	805	5	1	119	mem	lib	mod	mod	mod	tg	ht	wh/0017.bmp
586.80	0.72	806	3	4	56	mem	con	mod	mod	low	tg	ht	wh/0573.bmp
587.52	0.72	807	4	4	56	mem	con	mod	mod	low	tg	ht	wh/0573.bmp
588.24	0.72	808	6	4	69	mem	lib	mod	mod	low	nt	ht	nh/0325_nh.bmp
588.96	0.72	809	1	2	121	per	con	mod	low	mod	nt	cr	nh/0476_nh.bmp
589.68	0.72	810	6	3	44	mem	con	mod	mod	mod	tg	ht	wh/0899.bmp
590.40	0.72	811	6	4	50	mem	con	mod	mod	low	tg	ms	wh/0853.bmp
591.12	0.72	812	6	4	80	mem	lib	mod	mod	low	tg	ht	wh/0766.bmp
591.84	0.72	813	5	2	66	mem	con	mod	mod	low	tg	ms	wh/0298.bmp
592.56	0.72	814	6	4	22	per	lib	mod	mod	mod	nt	cr	nh/0935_nh.bmp
593.28	0.72	815	6	3	43	mem	con	mod	mod	mod	tg	ht	wh/0289.bmp
594.00	0.72	816	6	2	47	per	lib	low	mod	low	nt	fa	nh/0163_nh.bmp
594.72	0.72	817	6	2	56	mem	lib	mod	mod	low	nt	ht	nh/0455_nh.bmp
595.44	0.72	818	4	1	91	per	con	mod	mod	mod	tg	ht	wh/0879.bmp
596.16	0.72	819	6	2	75	mem	con	mod	mod	low	nt	ht	nh/0648_nh.bmp
596.88	0.72	820	5	2	50	mem	lib	mod	mod	low	tg	ms	wh/0200.bmp
597.60	0.72	821	6	3	29	mem	lib	mod	mod	mod	tg	ht	wh/0801.bmp
598.32	0.72	822	5	1	91	per	con	mod	mod	mod	tg	ht	wh/0879.bmp
599.04	0.72	823	6	2	82	per	con	low	mod	low	nt	fa	nh/0040_nh.bmp
599.76	0.72	824	6	1	119	mem	lib	mod	mod	mod	tg	ht	wh/0017.bmp
600.48	0.72	825	1	1	8	per	lib	low	low	low	tg	ht	wh/0903.bmp
601.20	0.72	826	5	1	114	mem	lib	mod	mod	mod	tg	ht	wh/0975.bmp
601.92	0.72	827	6	2	61	mem	lib	mod	mod	low	tg	ht	wh/1021.bmp
602.64	0.72	828	5	4	27	per	lib	mod	mod	mod	tg	ht	wh/0700.bmp
603.36	0.72	829	1	1	101	mem	lib	low	low	low	tg	ht	wh/1012.bmp
604.08	0.72	830	1	4	42	mem	lib	low	low	low	nt	ht	nh/0634_nh.bmp
604.80	0.72	831	4	1	113	mem	lib	mod	mod	mod	nt	ht	nh/0775_nh.bmp
605.52	0.72	832	1	1	6	per	lib	low	low	low	nt	cr	nh/0411_nh.bmp
606.24	0.72	833	5	3	79	per	con	mod	mod	mod	tg	ht	wh/0847.bmp
606.96	0.72	834	5	3	23	mem	lib	mod	mod	mod	tg	ht	wh/0605.bmp
607.68	0.72	835	6	1	124	mem	lib	mod	mod	mod	nt	ht	nh/0405_nh.bmp
608.40	0.72	836	6	2	85	per	con	low	mod	low	tg	ms	wh/0014.bmp
609.12	0.72	837	6	2	80	mem	con	mod	mod	low	nt	ht	nh/0105_nh.bmp
609.84	0.72	838	5	4	120	per	lib	low	mod	low	tg	ht	wh/0128.bmp
610.56	0.72	839	1	4	11	mem	con	low	low	low	nt	ms	nh/0122_nh.bmp
611.28	0.72	840	5	1	113	mem	lib	mod	mod	mod	nt	ht	nh/0775_nh.bmp
612.00	0.72	841	6	4	122	per	lib	low	mod	low	nt	fa	nh/0597_nh.bmp
612.72	0.72	842	6	1	89	per	con	mod	mod	mod	tg	ht	wh/0596.bmp
613.44	0.72	843	6	4	24	per	lib	mod	mod	mod	nt	fa	nh/0642_nh.bmp
614.16	0.72	844	6	2	73	mem	con	mod	mod	low	nt	ht	nh/0932_nh.bmp
614.88	0.72	845	6	2	66	mem	con	mod	mod	low	tg	ms	wh/0298.bmp
615.60	0.72	846	6	3	24	mem	lib	mod	mod	mod	nt	ht	nh/0681_nh.bmp
616.32	0.72	847	6	2	32	per	lib	mod	mod	mod	nt	cr	nh/0561_nh.bmp
617.04	0.72	848	6	3	73	per	con	mod	mod	mod	nt	cr	nh/0070_nh.bmp
617.76	0.72	849	6	3	22	mem	lib	mod	mod	mod	nt	ht	nh/0981_nh.bmp
618.48	0.72	850	6	2	31	per	lib	mod	mod	mod	tg	ht	wh/0698.bmp
619.20	0.72	851	5	3	77	per	con	mod	mod	mod	tg	ht	wh/0878.bmp
619.92	0.72	852	6	3	70	per	con	mod	mod	mod	tg	ms	wh/0287.bmp
620.64	0.72	853	6	3	30	mem	lib	mod	mod	mod	nt	ms	nh/0466_nh.bmp
621.36	0.72	854	5	4	53	mem	con	mod	mod	low	nt	ht	nh/0836_nh.bmp
622.08	0.72	855	6	3	65	per	con	mod	mod	mod	nt	cr	nh/0919_nh.bmp
622.80	0.72	856	6	1	25	mem	con	mod	mod	mod	tg	ms	wh/0637.bmp
623.52	0.72	857	1	3	14	per	con	low	low	low	nt	cr	nh/0614_nh.bmp
624.24	0.72	858	6	4	125	per	lib	low	mod	low	tg	ms	wh/0066.bmp
624.96	0.72	859	6	3	17	mem	lib	mod	mod	mod	tg	ht	wh/0391.bmp
625.68	0.72	860	6	3	78	per	con	mod	mod	mod	nt	cr	nh/0857_nh.bmp
626.40	0.72	861	6	1	17	mem	con	mod	mod	mod	tg	n/a	wh/0679.bmp
627.12	0.72	862	6	4	120	per	lib	low	mod	low	tg	ht	wh/0128.bmp
627.84	0.72	863	6	4	55	mem	con	mod	mod	low	nt	ht	nh/0624_nh.bmp
628.56	0.72	864	6	3	21	mem	lib	mod	mod	mod	nt	ht	nh/0534_nh.bmp
629.28	0.72	865	6	4	49	mem	con	mod	mod	low	nt	ms	nh/0233_nh.bmp
630.00	0.72	866	6	3	77	per	con	mod	mod	mod	tg	ht	wh/0878.bmp
630.72	0.72	867	6	4	57	mem	con	mod	mod	low	tg	ht	wh/0769.bmp
631.44	0.72	868	1	1	69	mem	con	low	low	mod	tg	ms	wh/0406.bmp
632.16	0.72	869	6	4	112	per	con	low	mod	low	nt	cr	nh/0217_nh.bmp
632.88	0.72	870	6	4	75	mem	lib	mod	mod	low	tg	ht	wh/0156.bmp
633.60	0.72	871	1	3	7	per	con	low	low	low	nt	cr	nh/0709_nh.bmp
634.32	0.72	872	6	1	95	per	con	mod	mod	mod	nt	cr	nh/0724_nh.bmp
635.04	0.72	873	1	3	119	mem	con	low	low	mod	nt	ms	nh/0960_nh.bmp
635.76	0.72	874	6	4	70	mem	lib	mod	mod	low	nt	ht	nh/0514_nh.bmp
636.48	0.72	875	6	4	127	per	lib	low	mod	low	tg	ms	wh/0529.bmp
637.20	0.72	876	6	2	89	per	con	low	mod	low	nt	cr	nh/0027_nh.bmp
637.92	0.72	877	6	2	46	per	lib	low	mod	low	nt	fa	nh/0353_nh.bmp
638.64	0.72	878	6	3	23	mem	lib	mod	mod	mod	tg	ht	wh/0605.bmp
639.36	0.72	879	6	4	118	per	lib	low	mod	low	nt	cr	nh/0997_nh.bmp
640.08	0.72	880	5	4	56	mem	con	mod	mod	low	tg	ht	wh/0573.bmp
640.80	0.72	881	6	2	50	mem	lib	mod	mod	low	tg	ms	wh/0200.bmp
641.52	0.72	882	6	3	79	per	con	mod	mod	mod	tg	ht	wh/0847.bmp
642.24	0.72	883	6	2	94	per	con	low	mod	low	nt	cr	nh/0115_nh.bmp
642.96	0.72	884	1	4	12	mem	con	low	low	low	nt	ms	nh/0662_nh.bmp
643.68	0.72	885	6	4	28	per	lib	mod	mod	mod	nt	cr	nh/0984_nh.bmp
644.40	0.72	886	6	1	113	mem	lib	mod	mod	mod	nt	ht	nh/0775_nh.bmp
645.12	0.72	887	6	3	69	per	con	mod	mod	mod	nt	cr	nh/0938_nh.bmp
645.84	0.72	888	6	4	53	mem	con	mod	mod	low	nt	ht	nh/0836_nh.bmp
646.56	0.72	889	6	3	20	mem	lib	mod	mod	mod	tg	ht	wh/0414.bmp
647.28	0.72	890	6	4	56	mem	con	mod	mod	low	tg	ht	wh/0573.bmp
648.00	0.72	891	6	1	91	per	con	mod	mod	mod	tg	ht	wh/0879.bmp
648.72	0.72	892	6	4	97	per	con	low	mod	low	tg	ms	wh/0341.bmp
649.44	0.72	893	6	4	98	per	con	low	mod	low	tg	ms	wh/0421.bmp
650.16	0.72	894	6	1	114	mem	lib	mod	mod	mod	tg	ht	wh/0975.bmp
650.88	0.72	895	6	4	27	per	lib	mod	mod	mod	tg	ht	wh/0700.bmp
651.60	0.72	896	6	2	21	per	lib	mod	mod	mod	nt	fa	nh/0841_nh.bmp
