onset	duration	trial	pres	ts_blk	ts_trl	task	crit	disc	mem_disc	per_disc	per_type	accuracy	stim_file
7.20	0.72	1	1	6	21	per	lib	low	low	low	tg	ms	wh/0173.bmp
7.92	0.72	2	1	8	22	per	con	low	mod	low	nt	fa	nh/0299_nh.bmp
8.64	0.72	3	1	8	39	per	con	mod	mod	mod	tg	ms	wh/0805.bmp
9.36	0.72	4	1	6	28	per	lib	low	low	low	tg	ms	wh/0437.bmp
10.08	0.72	5	1	7	115	per	lib	mod	mod	mod	tg	ms	wh/0371.bmp
10.80	0.72	6	1	7	49	mem	lib	mod	mod	low	nt	ht	nh/0336_nh.bmp
11.52	0.72	7	1	5	115	mem	lib	mod	mod	mod	nt	ht	nh/0591_nh.bmp
12.24	0.72	8	1	5	40	mem	con	mod	mod	mod	nt	ht	nh/0095_nh.bmp
12.96	0.72	9	1	6	103	mem	con	mod	mod	low	nt	ht	nh/0967_nh.bmp
13.68	0.72	10	1	8	2	per	lib	low	mod	low	nt	cr	nh/0232_nh.bmp
14.40	0.72	11	1	7	71	mem	con	mod	mod	low	nt	ht	nh/0893_nh.bmp
15.12	0.72	12	1	6	66	per	lib	mod	mod	mod	nt	cr	nh/0594_nh.bmp
15.84	0.72	13	1	6	53	mem	lib	low	low	low	nt	ht	nh/0439_nh.bmp
16.56	0.72	14	1	8	79	mem	lib	mod	mod	mod	nt	ht	nh/0339_nh.bmp
17.28	0.72	15	1	8	67	mem	lib	mod	mod	mod	tg	ht	wh/0957.bmp
18.00	0.72	16	1	5	90	per	con	low	low	low	tg	ms	wh/0812.bmp
18.72	0.72	17	1	6	68	per	lib	mod	mod	mod	tg	ht	wh/0099.bmp
19.44	0.72	18	1	5	127	mem	lib	mod	mod	mod	nt	ht	nh/0902_nh.bmp
20.16	0.72	19	2	5	127	mem	lib	mod	mod	mod	nt	ht	nh/0902_nh.bmp
20.88	0.72	20	1	6	32	per	lib	low	low	low	tg	ht	wh/0731.bmp
21.60	0.72	21	1	5	69	per	lib	low	mod	low	nt	fa	nh/0940_nh.bmp
22.32	0.72	22	1	6	88	per	con	mod	low	mod	nt	cr	nh/0129_nh.bmp
23.04	0.72	23	1	8	116	mem	lib	low	low	mod	tg	ht	wh/0992.bmp
23.76	0.72	24	1	7	78	mem	con	mod	mod	low	tg	ms	wh/0568.bmp
24.48	0.72	25	2	7	71	mem	con	mod	mod	low	nt	ht	nh/0893_nh.bmp
25.20	0.72	26	1	6	39	mem	lib	mod	mod	low	tg	ht	wh/1023.bmp
25.92	0.72	27	1	7	51	mem	lib	mod	mod	low	nt	ht	nh/0451_nh.bmp
26.64	0.72	28	1	8	14	per	lib	low	mod	low	nt	fa	nh/0077_nh.bmp
27.36	0.72	29	1	8	41	per	con	mod	mod	mod	nt	cr	nh/0650_nh.bmp
28.08	0.72	30	1	8	57	mem	con	mod	mod	mod	nt	ht	nh/0947_nh.bmp
28.80	0.72	31	1	8	70	mem	lib	mod	mod	mod	tg	ht	wh/0946.bmp
29.52	0.72	32	1	6	107	mem	con	mod	mod	low	tg	ms	wh/0238.bmp
30.24	0.72	33	1	8	110	mem	con	low	low	mod	tg	ht	wh/0708.bmp
30.96	0.72	34	1	7	100	per	lib	low	low	low	tg	ht	wh/1009.bmp
31.68	0.72	35	1	8	59	mem	con	mod	mod	mod	tg	ht	wh/0548.bmp
32.40	0.72	36	2	8	14	per	lib	low	mod	low	nt	fa	nh/0077_nh.bmp
33.12	0.72	37	1	6	44	mem	lib	mod	mod	low	nt	ms	nh/0964_nh.bmp
33.84	0.72	38	1	5	117	mem	lib	mod	mod	mod	nt	ht	nh/0328_nh.bmp
34.56	0.72	39	1	6	125	mem	con	low	low	mod	tg	ms	wh/0846.bmp
35.28	0.72	40	1	8	45	per	con	mod	mod	mod	tg	ht	wh/0428.bmp
36.00	0.72	41	1	6	43	mem	lib	mod	mod	low	nt	ht	nh/0082_nh.bmp
36.72	0.72	42	1	6	65	per	lib	mod	mod	mod	nt	fa	nh/0680_nh.bmp
37.44	0.72	43	1	6	11	per	con	low	mod	low	nt	cr	nh/0256_nh.bmp
38.16	0.72	44	1	5	4	mem	lib	low	low	mod	nt	ht	nh/0096_nh.bmp
38.88	0.72	45	1	6	72	per	lib	mod	mod	mod	tg	ht	wh/0714.bmp
39.60	0.72	46	1	5	60	per	con	mod	mod	mod	tg	ms	wh/0222.bmp
40.32	0.72	47	2	8	39	per	con	mod	mod	mod	tg	ms	wh/0805.bmp
41.04	0.72	48	1	6	3	per	con	low	mod	low	tg	ms	wh/0355.bmp
41.76	0.72	49	1	6	108	mem	con	mod	mod	low	nt	ms	nh/0075_nh.bmp
42.48	0.72	50	1	5	61	per	con	mod	mod	mod	nt	cr	nh/0187_nh.bmp
43.20	0.72	51	1	5	73	per	lib	low	mod	low	tg	ht	wh/0194.bmp
43.92	0.72	52	1	7	64	mem	lib	mod	mod	low	nt	ht	nh/0079_nh.bmp
44.64	0.72	53	1	7	67	mem	con	mod	mod	low	tg	ht	wh/0577.bmp
45.36	0.72	54	2	8	57	mem	con	mod	mod	mod	nt	ht	nh/0947_nh.bmp
46.08	0.72	55	1	5	44	mem	con	mod	mod	mod	tg	ht	wh/0497.bmp
46.80	0.72	56	2	7	78	mem	con	mod	mod	low	tg	ms	wh/0568.bmp
47.52	0.72	57	1	6	112	mem	con	mod	mod	low	tg	ht	wh/0125.bmp
48.24	0.72	58	1	8	101	mem	con	low	low	mod	nt	ht	nh/0290_nh.bmp
48.96	0.72	59	1	6	74	per	lib	mod	mod	mod	nt	fa	nh/0542_nh.bmp
49.68	0.72	60	1	7	125	per	lib	mod	mod	mod	tg	ht	wh/0909.bmp
50.40	0.72	61	1	5	45	mem	con	mod	mod	mod	tg	ht	wh/0396.bmp
51.12	0.72	62	1	8	3	per	lib	low	mod	low	nt	fa	nh/0036_nh.bmp
51.84	0.72	63	2	8	70	mem	lib	mod	mod	mod	tg	ht	wh/0946.bmp
52.56	0.72	64	1	8	80	mem	lib	mod	mod	mod	nt	ms	nh/0558_nh.bmp
53.28	0.72	65	2	7	115	per	lib	mod	mod	mod	tg	ms	wh/0371.bmp
54.00	0.72	66	2	5	115	mem	lib	mod	mod	mod	nt	ht	nh/0591_nh.bmp
54.72	0.72	67	1	8	10	per	lib	low	mod	low	tg	ms	wh/0361.bmp
55.44	0.72	68	1	5	75	per	lib	low	mod	low	nt	cr	nh/0032_nh.bmp
56.16	0.72	69	1	7	26	per	con	mod	low	mod	nt	cr	nh/0584_nh.bmp
56.88	0.72	70	1	7	116	per	lib	mod	mod	mod	nt	cr	nh/0772_nh.bmp
57.60	0.72	71	1	6	41	mem	lib	mod	mod	low	nt	ht	nh/0635_nh.bmp
58.32	0.72	72	2	5	69	per	lib	low	mod	low	nt	fa	nh/0940_nh.bmp
59.04	0.72	73	1	7	66	mem	con	mod	mod	low	tg	ht	wh/0503.bmp
59.76	0.72	74	2	6	66	per	lib	mod	mod	mod	nt	cr	nh/0594_nh.bmp
60.48	0.72	75	1	7	15	mem	con	low	low	low	tg	ht	wh/0701.bmp
61.20	0.72	76	2	7	67	mem	con	mod	mod	low	tg	ht	wh/0577.bmp
61.92	0.72	77	3	8	14	per	lib	low	mod	low	nt	fa	nh/0077_nh.bmp
62.64	0.72	78	1	5	109	per	lib	mod	low	mod	nt	cr	nh/0870_nh.bmp
63.36	0.72	79	1	6	78	per	lib	mod	mod	mod	nt	cr	nh/0543_nh.bmp
64.08	0.72	80	2	8	2	per	lib	low	mod	low	nt	cr	nh/0232_nh.bmp
64.80	0.72	81	1	5	56	per	con	mod	mod	mod	tg	ms	wh/0941.bmp
65.52	0.72	82	1	8	31	per	con	low	mod	low	nt	cr	nh/0329_nh.bmp
66.24	0.72	83	1	6	119	mem	con	low	low	mod	nt	ms	nh/0933_nh.bmp
66.96	0.72	84	2	6	39	mem	lib	mod	mod	low	tg	ht	wh/1023.bmp
67.68	0.72	85	1	5	122	mem	lib	mod	mod	mod	tg	ht	wh/0795.bmp
68.40	0.72	86	2	5	56	per	con	mod	mod	mod	tg	ms	wh/0941.bmp
69.12	0.72	87	1	6	110	mem	con	mod	mod	low	nt	ht	nh/0190_nh.bmp
69.84	0.72	88	1	8	53	mem	con	mod	mod	mod	tg	ms	wh/0563.bmp
70.56	0.72	89	1	5	94	per	con	low	low	low	tg	ms	wh/0804.bmp
71.28	0.72	90	2	6	11	per	con	low	mod	low	nt	cr	nh/0256_nh.bmp
72.00	0.72	91	1	8	71	mem	lib	mod	mod	mod	nt	ht	nh/0593_nh.bmp
72.72	0.72	92	2	6	107	mem	con	mod	mod	low	tg	ms	wh/0238.bmp
73.44	0.72	93	1	8	24	per	con	low	mod	low	tg	ms	wh/0134.bmp
74.16	0.72	94	2	6	78	per	lib	mod	mod	mod	nt	cr	nh/0543_nh.bmp
74.88	0.72	95	2	6	112	mem	con	mod	mod	low	tg	ht	wh/0125.bmp
75.60	0.72	96	1	6	13	per	con	low	mod	low	nt	cr	nh/0758_nh.bmp
76.32	0.72	97	1	8	55	mem	con	mod	mod	mod	nt	ht	nh/0973_nh.bmp
77.04	0.72	98	1	7	92	per	con	low	low	low	tg	ms	wh/0768.bmp
77.76	0.72	99	2	6	74	per	lib	mod	mod	mod	nt	fa	nh/0542_nh.bmp
78.48	0.72	100	1	8	48	per	con	mod	mod	mod	tg	ms	wh/0209.bmp
79.20	0.72	101	3	7	67	mem	con	mod	mod	low	tg	ht	wh/0577.bmp
79.92	0.72	102	2	6	68	per	lib	mod	mod	mod	tg	ht	wh/0099.bmp
80.64	0.72	103	2	6	43	mem	lib	mod	mod	low	nt	ht	nh/0082_nh.bmp
81.36	0.72	104	1	7	60	mem	lib	mod	mod	low	nt	ht	nh/0150_nh.bmp
82.08	0.72	105	1	8	63	mem	con	mod	mod	mod	nt	ms	nh/0397_nh.bmp
82.80	0.72	106	1	6	12	per	con	low	mod	low	tg	ms	wh/0404.bmp
83.52	0.72	107	2	5	117	mem	lib	mod	mod	mod	nt	ht	nh/0328_nh.bmp
84.24	0.72	108	1	8	18	per	con	low	mod	low	tg	ms	wh/0338.bmp
84.96	0.72	109	1	7	80	mem	con	mod	mod	low	nt	ht	nh/0619_nh.bmp
85.68	0.72	110	2	8	59	mem	con	mod	mod	mod	tg	ht	wh/0548.bmp
86.40	0.72	111	1	8	72	mem	lib	mod	mod	mod	tg	ht	wh/0962.bmp
87.12	0.72	112	2	8	24	per	con	low	mod	low	tg	ms	wh/0134.bmp
87.84	0.72	113	1	8	5	per	lib	low	mod	low	nt	cr	nh/0818_nh.bmp
88.56	0.72	114	2	5	61	per	con	mod	mod	mod	nt	cr	nh/0187_nh.bmp
89.28	0.72	115	1	6	40	mem	lib	mod	mod	low	tg	ms	wh/0934.bmp
90.00	0.72	116	2	6	13	per	con	low	mod	low	nt	cr	nh/0758_nh.bmp
90.72	0.72	117	2	8	48	per	con	mod	mod	mod	tg	ms	wh/0209.bmp
91.44	0.72	118	2	8	71	mem	lib	mod	mod	mod	nt	ht	nh/0593_nh.bmp
92.16	0.72	119	1	5	83	per	con	low	low	low	tg	ms	wh/0384.bmp
92.88	0.72	120	3	7	71	mem	con	mod	mod	low	nt	ht	nh/0893_nh.bmp
93.60	0.72	121	2	8	31	per	con	low	mod	low	nt	cr	nh/0329_nh.bmp
94.32	0.72	122	3	5	115	mem	lib	mod	mod	mod	nt	ht	nh/0591_nh.bmp
95.04	0.72	123	3	8	48	per	con	mod	mod	mod	tg	ms	wh/0209.bmp
95.76	0.72	124	1	7	62	mem	lib	mod	mod	low	tg	ht	wh/0417.bmp
96.48	0.72	125	2	5	40	mem	con	mod	mod	mod	nt	ht	nh/0095_nh.bmp
97.20	0.72	126	2	7	62	mem	lib	mod	mod	low	tg	ht	wh/0417.bmp
97.92	0.72	127	1	6	73	per	lib	mod	mod	mod	tg	ht	wh/0446.bmp
98.64	0.72	128	1	7	90	per	con	low	low	low	nt	cr	nh/0845_nh.bmp
99.36	0.72	129	3	8	2	per	lib	low	mod	low	nt	cr	nh/0232_nh.bmp
100.08	0.72	130	2	7	51	mem	lib	mod	mod	low	nt	ht	nh/0451_nh.bmp
100.80	0.72	131	1	6	47	mem	lib	mod	mod	low	nt	ht	nh/0608_nh.bmp
101.52	0.72	132	1	7	74	mem	con	mod	mod	low	nt	ms	nh/0029_nh.bmp
102.24	0.72	133	1	5	126	mem	lib	mod	mod	mod	tg	ht	wh/0380.bmp
102.96	0.72	134	2	8	45	per	con	mod	mod	mod	tg	ht	wh/0428.bmp
103.68	0.72	135	1	5	13	mem	lib	low	low	mod	tg	ht	wh/0306.bmp
104.40	0.72	136	1	5	64	per	con	mod	mod	mod	nt	cr	nh/0319_nh.bmp
105.12	0.72	137	4	7	67	mem	con	mod	mod	low	tg	ht	wh/0577.bmp
105.84	0.72	138	2	8	22	per	con	low	mod	low	nt	fa	nh/0299_nh.bmp
106.56	0.72	139	1	8	30	per	con	low	mod	low	nt	cr	nh/0382_nh.bmp
107.28	0.72	140	2	8	67	mem	lib	mod	mod	mod	tg	ht	wh/0957.bmp
108.00	0.72	141	1	8	81	per	lib	mod	low	mod	nt	cr	nh/0781_nh.bmp
108.72	0.72	142	1	5	33	mem	con	mod	mod	mod	tg	ms	wh/0588.bmp
109.44	0.72	143	1	6	109	mem	con	mod	mod	low	tg	ht	wh/0465.bmp
110.16	0.72	144	1	8	60	mem	con	mod	mod	mod	nt	ms	nh/0462_nh.bmp
110.88	0.72	145	1	6	15	per	con	low	mod	low	tg	ms	wh/0744.bmp
111.60	0.72	146	2	6	41	mem	lib	mod	mod	low	nt	ht	nh/0635_nh.bmp
112.32	0.72	147	1	5	43	mem	con	mod	mod	mod	tg	ms	wh/0843.bmp
113.04	0.72	148	1	5	36	mem	con	mod	mod	mod	nt	ms	nh/0876_nh.bmp
113.76	0.72	149	1	5	79	per	lib	low	mod	low	nt	cr	nh/0646_nh.bmp
114.48	0.72	150	1	8	43	per	con	mod	mod	mod	nt	cr	nh/0810_nh.bmp
115.20	0.72	151	2	6	72	per	lib	mod	mod	mod	tg	ht	wh/0714.bmp
115.92	0.72	152	1	5	59	per	con	mod	mod	mod	nt	cr	nh/0855_nh.bmp
116.64	0.72	153	2	5	43	mem	con	mod	mod	mod	tg	ms	wh/0843.bmp
117.36	0.72	154	2	7	116	per	lib	mod	mod	mod	nt	cr	nh/0772_nh.bmp
118.08	0.72	155	1	8	61	mem	con	mod	mod	mod	tg	ht	wh/0447.bmp
118.80	0.72	156	3	8	59	mem	con	mod	mod	mod	tg	ht	wh/0548.bmp
119.52	0.72	157	2	5	122	mem	lib	mod	mod	mod	tg	ht	wh/0795.bmp
120.24	0.72	158	1	8	54	mem	con	mod	mod	mod	tg	ms	wh/0784.bmp
120.96	0.72	159	2	6	12	per	con	low	mod	low	tg	ms	wh/0404.bmp
121.68	0.72	160	1	6	37	mem	lib	mod	mod	low	tg	ht	wh/0123.bmp
122.40	0.72	161	2	6	108	mem	con	mod	mod	low	nt	ms	nh/0075_nh.bmp
123.12	0.72	162	1	5	50	per	con	mod	mod	mod	tg	ht	wh/0874.bmp
123.84	0.72	163	3	8	22	per	con	low	mod	low	nt	fa	nh/0299_nh.bmp
124.56	0.72	164	1	8	13	per	lib	low	mod	low	tg	ms	wh/0443.bmp
125.28	0.72	165	1	5	118	mem	lib	mod	mod	mod	tg	ht	wh/0442.bmp
126.00	0.72	166	3	8	24	per	con	low	mod	low	tg	ms	wh/0134.bmp
126.72	0.72	167	1	5	121	mem	lib	mod	mod	mod	tg	ht	wh/0684.bmp
127.44	0.72	168	1	6	5	per	con	low	mod	low	nt	cr	nh/0364_nh.bmp
128.16	0.72	169	1	5	70	per	lib	low	mod	low	tg	ht	wh/0963.bmp
128.88	0.72	170	3	6	66	per	lib	mod	mod	mod	nt	cr	nh/0594_nh.bmp
129.60	0.72	171	1	7	24	per	con	mod	low	mod	nt	cr	nh/0581_nh.bmp
130.32	0.72	172	1	8	20	per	con	low	mod	low	tg	ms	wh/0345.bmp
131.04	0.72	173	1	7	17	per	con	mod	low	mod	tg	ms	wh/0936.bmp
131.76	0.72	174	1	6	27	per	lib	low	low	low	nt	cr	nh/0434_nh.bmp
132.48	0.72	175	1	8	9	per	lib	low	mod	low	tg	ht	wh/0690.bmp
133.20	0.72	176	2	8	55	mem	con	mod	mod	mod	nt	ht	nh/0973_nh.bmp
133.92	0.72	177	1	8	42	per	con	mod	mod	mod	tg	ht	wh/0273.bmp
134.64	0.72	178	2	8	30	per	con	low	mod	low	nt	cr	nh/0382_nh.bmp
135.36	0.72	179	2	6	3	per	con	low	mod	low	tg	ms	wh/0355.bmp
136.08	0.72	180	2	8	79	mem	lib	mod	mod	mod	nt	ht	nh/0339_nh.bmp
136.80	0.72	181	2	5	121	mem	lib	mod	mod	mod	tg	ht	wh/0684.bmp
137.52	0.72	182	2	7	74	mem	con	mod	mod	low	nt	ms	nh/0029_nh.bmp
138.24	0.72	183	2	8	63	mem	con	mod	mod	mod	nt	ms	nh/0397_nh.bmp
138.96	0.72	184	2	5	36	mem	con	mod	mod	mod	nt	ms	nh/0876_nh.bmp
139.68	0.72	185	2	8	5	per	lib	low	mod	low	nt	cr	nh/0818_nh.bmp
140.40	0.72	186	1	7	77	mem	con	mod	mod	low	nt	ht	nh/0489_nh.bmp
141.12	0.72	187	2	5	59	per	con	mod	mod	mod	nt	cr	nh/0855_nh.bmp
141.84	0.72	188	1	8	37	per	con	mod	mod	mod	nt	cr	nh/0904_nh.bmp
142.56	0.72	189	2	8	18	per	con	low	mod	low	tg	ms	wh/0338.bmp
143.28	0.72	190	1	7	109	per	lib	low	low	low	nt	cr	nh/0053_nh.bmp
144.00	0.72	191	3	6	13	per	con	low	mod	low	nt	cr	nh/0758_nh.bmp
144.72	0.72	192	3	5	59	per	con	mod	mod	mod	nt	cr	nh/0855_nh.bmp
145.44	0.72	193	4	8	59	mem	con	mod	mod	mod	tg	ht	wh/0548.bmp
146.16	0.72	194	1	5	68	per	lib	low	mod	low	tg	ms	wh/0035.bmp
146.88	0.72	195	1	7	119	per	lib	mod	mod	mod	nt	cr	nh/0540_nh.bmp
147.60	0.72	196	2	7	125	per	lib	mod	mod	mod	tg	ht	wh/0909.bmp
148.32	0.72	197	5	7	67	mem	con	mod	mod	low	tg	ht	wh/0577.bmp
149.04	0.72	198	2	5	118	mem	lib	mod	mod	mod	tg	ht	wh/0442.bmp
149.76	0.72	199	3	5	43	mem	con	mod	mod	mod	tg	ms	wh/0843.bmp
150.48	0.72	200	1	7	35	mem	lib	low	low	low	tg	ht	wh/0148.bmp
151.20	0.72	201	1	7	63	mem	lib	mod	mod	low	tg	ht	wh/0613.bmp
151.92	0.72	202	1	7	124	per	lib	mod	mod	mod	nt	fa	nh/0807_nh.bmp
152.64	0.72	203	4	6	13	per	con	low	mod	low	nt	cr	nh/0758_nh.bmp
153.36	0.72	204	1	6	35	mem	lib	mod	mod	low	tg	ht	wh/0493.bmp
154.08	0.72	205	4	8	22	per	con	low	mod	low	nt	fa	nh/0299_nh.bmp
154.80	0.72	206	2	7	66	mem	con	mod	mod	low	tg	ht	wh/0503.bmp
155.52	0.72	207	3	6	107	mem	con	mod	mod	low	tg	ms	wh/0238.bmp
156.24	0.72	208	3	7	78	mem	con	mod	mod	low	tg	ms	wh/0568.bmp
156.96	0.72	209	1	7	34	mem	lib	low	low	low	nt	ht	nh/0112_nh.bmp
157.68	0.72	210	1	6	77	per	lib	mod	mod	mod	tg	ht	wh/0196.bmp
158.40	0.72	211	2	7	49	mem	lib	mod	mod	low	nt	ht	nh/0336_nh.bmp
159.12	0.72	212	2	6	109	mem	con	mod	mod	low	tg	ht	wh/0465.bmp
159.84	0.72	213	1	7	123	per	lib	mod	mod	mod	tg	ht	wh/0928.bmp
160.56	0.72	214	3	6	68	per	lib	mod	mod	mod	tg	ht	wh/0099.bmp
161.28	0.72	215	1	8	47	per	con	mod	mod	mod	nt	cr	nh/0182_nh.bmp
162.00	0.72	216	3	6	3	per	con	low	mod	low	tg	ms	wh/0355.bmp
162.72	0.72	217	1	5	2	mem	lib	low	low	mod	tg	ms	wh/0693.bmp
163.44	0.72	218	1	7	47	mem	lib	low	low	low	tg	ht	wh/0215.bmp
164.16	0.72	219	3	8	71	mem	lib	mod	mod	mod	nt	ht	nh/0593_nh.bmp
164.88	0.72	220	1	7	23	per	con	mod	low	mod	tg	ms	wh/0966.bmp
165.60	0.72	221	1	6	23	per	lib	low	low	low	nt	cr	nh/0013_nh.bmp
166.32	0.72	222	2	6	77	per	lib	mod	mod	mod	tg	ht	wh/0196.bmp
167.04	0.72	223	3	6	72	per	lib	mod	mod	mod	tg	ht	wh/0714.bmp
167.76	0.72	224	3	6	12	per	con	low	mod	low	tg	ms	wh/0404.bmp
168.48	0.72	225	2	6	5	per	con	low	mod	low	nt	cr	nh/0364_nh.bmp
169.20	0.72	226	3	6	74	per	lib	mod	mod	mod	nt	fa	nh/0542_nh.bmp
169.92	0.72	227	2	7	119	per	lib	mod	mod	mod	nt	cr	nh/0540_nh.bmp
170.64	0.72	228	3	8	5	per	lib	low	mod	low	nt	cr	nh/0818_nh.bmp
171.36	0.72	229	1	7	43	mem	lib	low	low	low	nt	ht	nh/1007_nh.bmp
172.08	0.72	230	3	8	31	per	con	low	mod	low	nt	cr	nh/0329_nh.bmp
172.80	0.72	231	1	5	89	per	con	low	low	low	nt	cr	nh/0998_nh.bmp
173.52	0.72	232	1	5	120	mem	lib	mod	mod	mod	nt	ht	nh/0398_nh.bmp
174.24	0.72	233	3	8	18	per	con	low	mod	low	tg	ms	wh/0338.bmp
174.96	0.72	234	2	6	110	mem	con	mod	mod	low	nt	ht	nh/0190_nh.bmp
175.68	0.72	235	1	6	9	per	con	low	mod	low	nt	cr	nh/0351_nh.bmp
176.40	0.72	236	2	6	15	per	con	low	mod	low	tg	ms	wh/0744.bmp
177.12	0.72	237	2	5	75	per	lib	low	mod	low	nt	cr	nh/0032_nh.bmp
177.84	0.72	238	1	8	100	mem	con	low	low	mod	nt	ht	nh/0059_nh.bmp
178.56	0.72	239	2	7	64	mem	lib	mod	mod	low	nt	ht	nh/0079_nh.bmp
179.28	0.72	240	2	5	120	mem	lib	mod	mod	mod	nt	ht	nh/0398_nh.bmp
180.00	0.72	241	3	5	56	per	con	mod	mod	mod	tg	ms	wh/0941.bmp
180.72	0.72	242	2	5	79	per	lib	low	mod	low	nt	cr	nh/0646_nh.bmp
181.44	0.72	243	1	6	18	per	lib	low	low	low	nt	cr	nh/0460_nh.bmp
182.16	0.72	244	1	8	84	per	lib	mod	low	mod	tg	ht	wh/1024.bmp
182.88	0.72	245	1	5	55	per	con	mod	mod	mod	tg	ht	wh/0199.bmp
183.60	0.72	246	2	8	9	per	lib	low	mod	low	tg	ht	wh/0690.bmp
184.32	0.72	247	1	5	74	per	lib	low	mod	low	nt	fa	nh/0080_nh.bmp
185.04	0.72	248	2	5	70	per	lib	low	mod	low	tg	ht	wh/0963.bmp
185.76	0.72	249	3	8	67	mem	lib	mod	mod	mod	tg	ht	wh/0957.bmp
186.48	0.72	250	2	5	55	per	con	mod	mod	mod	tg	ht	wh/0199.bmp
187.20	0.72	251	3	5	121	mem	lib	mod	mod	mod	tg	ht	wh/0684.bmp
187.92	0.72	252	1	5	101	per	lib	mod	low	mod	nt	cr	nh/0699_nh.bmp
188.64	0.72	253	2	7	60	mem	lib	mod	mod	low	nt	ht	nh/0150_nh.bmp
189.36	0.72	254	2	5	33	mem	con	mod	mod	mod	tg	ms	wh/0588.bmp
190.08	0.72	255	2	8	10	per	lib	low	mod	low	tg	ms	wh/0361.bmp
190.80	0.72	256	3	8	55	mem	con	mod	mod	mod	nt	ht	nh/0973_nh.bmp
191.52	0.72	257	1	7	70	mem	con	mod	mod	low	tg	ht	wh/0508.bmp
192.24	0.72	258	3	7	64	mem	lib	mod	mod	low	nt	ht	nh/0079_nh.bmp
192.96	0.72	259	1	8	69	mem	lib	mod	mod	mod	nt	ht	nh/0350_nh.bmp
193.68	0.72	260	3	7	49	mem	lib	mod	mod	low	nt	ht	nh/0336_nh.bmp
194.40	0.72	261	4	6	107	mem	con	mod	mod	low	tg	ms	wh/0238.bmp
195.12	0.72	262	2	7	80	mem	con	mod	mod	low	nt	ht	nh/0619_nh.bmp
195.84	0.72	263	1	5	19	mem	con	low	low	low	nt	ht	nh/0571_nh.bmp
196.56	0.72	264	3	8	39	per	con	mod	mod	mod	tg	ms	wh/0805.bmp
197.28	0.72	265	2	6	35	mem	lib	mod	mod	low	tg	ht	wh/0493.bmp
198.00	0.72	266	4	6	66	per	lib	mod	mod	mod	nt	cr	nh/0594_nh.bmp
198.72	0.72	267	1	8	97	mem	con	low	low	mod	tg	ms	wh/0316.bmp
199.44	0.72	268	3	8	70	mem	lib	mod	mod	mod	tg	ht	wh/0946.bmp
200.16	0.72	269	3	7	119	per	lib	mod	mod	mod	nt	cr	nh/0540_nh.bmp
200.88	0.72	270	2	6	103	mem	con	mod	mod	low	nt	ht	nh/0967_nh.bmp
201.60	0.72	271	2	5	68	per	lib	low	mod	low	tg	ms	wh/0035.bmp
202.32	0.72	272	2	6	65	per	lib	mod	mod	mod	nt	fa	nh/0680_nh.bmp
203.04	0.72	273	3	5	118	mem	lib	mod	mod	mod	tg	ht	wh/0442.bmp
203.76	0.72	274	3	5	33	mem	con	mod	mod	mod	tg	ms	wh/0588.bmp
204.48	0.72	275	1	5	31	mem	con	low	low	low	tg	ht	wh/0206.bmp
205.20	0.72	276	3	6	112	mem	con	mod	mod	low	tg	ht	wh/0125.bmp
205.92	0.72	277	3	8	63	mem	con	mod	mod	mod	nt	ms	nh/0397_nh.bmp
206.64	0.72	278	1	7	20	per	con	mod	low	mod	tg	ht	wh/0531.bmp
207.36	0.72	279	2	6	73	per	lib	mod	mod	mod	tg	ht	wh/0446.bmp
208.08	0.72	280	2	8	43	per	con	mod	mod	mod	nt	cr	nh/0810_nh.bmp
208.80	0.72	281	2	5	60	per	con	mod	mod	mod	tg	ms	wh/0222.bmp
209.52	0.72	282	1	6	101	mem	con	mod	mod	low	tg	ms	wh/0383.bmp
210.24	0.72	283	4	5	118	mem	lib	mod	mod	mod	tg	ht	wh/0442.bmp
210.96	0.72	284	3	6	77	per	lib	mod	mod	mod	tg	ht	wh/0196.bmp
211.68	0.72	285	3	8	45	per	con	mod	mod	mod	tg	ht	wh/0428.bmp
212.40	0.72	286	3	7	66	mem	con	mod	mod	low	tg	ht	wh/0503.bmp
213.12	0.72	287	2	5	73	per	lib	low	mod	low	tg	ht	wh/0194.bmp
213.84	0.72	288	3	5	73	per	lib	low	mod	low	tg	ht	wh/0194.bmp
214.56	0.72	289	1	6	50	mem	lib	low	low	low	tg	ht	wh/0223.bmp
215.28	0.72	290	1	6	64	mem	lib	low	low	low	tg	ht	wh/0691.bmp
216.00	0.72	291	3	8	10	per	lib	low	mod	low	tg	ms	wh/0361.bmp
216.72	0.72	292	3	7	116	per	lib	mod	mod	mod	nt	cr	nh/0772_nh.bmp
217.44	0.72	293	4	8	70	mem	lib	mod	mod	mod	tg	ht	wh/0946.bmp
218.16	0.72	294	2	8	80	mem	lib	mod	mod	mod	nt	ms	nh/0558_nh.bmp
218.88	0.72	295	1	6	85	per	con	mod	low	mod	tg	ht	wh/0278.bmp
219.60	0.72	296	1	8	26	per	con	low	mod	low	tg	ms	wh/0510.bmp
220.32	0.72	297	2	8	47	per	con	mod	mod	mod	nt	cr	nh/0182_nh.bmp
221.04	0.72	298	4	8	55	mem	con	mod	mod	mod	nt	ht	nh/0973_nh.bmp
221.76	0.72	299	3	5	122	mem	lib	mod	mod	mod	tg	ht	wh/0795.bmp
222.48	0.72	300	3	7	60	mem	lib	mod	mod	low	nt	ht	nh/0150_nh.bmp
223.20	0.72	301	3	7	80	mem	con	mod	mod	low	nt	ht	nh/0619_nh.bmp
223.92	0.72	302	4	7	64	mem	lib	mod	mod	low	nt	ht	nh/0079_nh.bmp
224.64	0.72	303	1	6	97	mem	con	mod	mod	low	nt	ht	nh/0074_nh.bmp
225.36	0.72	304	3	6	43	mem	lib	mod	mod	low	nt	ht	nh/0082_nh.bmp
226.08	0.72	305	3	8	80	mem	lib	mod	mod	mod	nt	ms	nh/0558_nh.bmp
226.80	0.72	306	2	6	9	per	con	low	mod	low	nt	cr	nh/0351_nh.bmp
227.52	0.72	307	4	8	10	per	lib	low	mod	low	tg	ms	wh/0361.bmp
228.24	0.72	308	2	7	124	per	lib	mod	mod	mod	nt	fa	nh/0807_nh.bmp
228.96	0.72	309	3	5	36	mem	con	mod	mod	mod	nt	ms	nh/0876_nh.bmp
229.68	0.72	310	2	8	61	mem	con	mod	mod	mod	tg	ht	wh/0447.bmp
230.40	0.72	311	5	6	13	per	con	low	mod	low	nt	cr	nh/0758_nh.bmp
231.12	0.72	312	2	6	44	mem	lib	mod	mod	low	nt	ms	nh/0964_nh.bmp
231.84	0.72	313	4	5	59	per	con	mod	mod	mod	nt	cr	nh/0855_nh.bmp
232.56	0.72	314	3	7	125	per	lib	mod	mod	mod	tg	ht	wh/0909.bmp
233.28	0.72	315	3	8	61	mem	con	mod	mod	mod	tg	ht	wh/0447.bmp
234.00	0.72	316	4	5	121	mem	lib	mod	mod	mod	tg	ht	wh/0684.bmp
234.72	0.72	317	3	5	75	per	lib	low	mod	low	nt	cr	nh/0032_nh.bmp
235.44	0.72	318	4	8	45	per	con	mod	mod	mod	tg	ht	wh/0428.bmp
236.16	0.72	319	2	8	37	per	con	mod	mod	mod	nt	cr	nh/0904_nh.bmp
236.88	0.72	320	4	7	119	per	lib	mod	mod	mod	nt	cr	nh/0540_nh.bmp
237.60	0.72	321	6	6	13	per	con	low	mod	low	nt	cr	nh/0758_nh.bmp
238.32	0.72	322	1	5	99	per	lib	mod	low	mod	tg	ht	wh/0572.bmp
239.04	0.72	323	3	6	35	mem	lib	mod	mod	low	tg	ht	wh/0493.bmp
239.76	0.72	324	2	8	53	mem	con	mod	mod	mod	tg	ms	wh/0563.bmp
240.48	0.72	325	3	6	103	mem	con	mod	mod	low	nt	ht	nh/0967_nh.bmp
241.20	0.72	326	4	5	122	mem	lib	mod	mod	mod	tg	ht	wh/0795.bmp
241.92	0.72	327	2	5	64	per	con	mod	mod	mod	nt	cr	nh/0319_nh.bmp
242.64	0.72	328	4	7	125	per	lib	mod	mod	mod	tg	ht	wh/0909.bmp
243.36	0.72	329	3	6	9	per	con	low	mod	low	nt	cr	nh/0351_nh.bmp
244.08	0.72	330	3	7	115	per	lib	mod	mod	mod	tg	ms	wh/0371.bmp
244.80	0.72	331	3	5	55	per	con	mod	mod	mod	tg	ht	wh/0199.bmp
245.52	0.72	332	2	8	20	per	con	low	mod	low	tg	ms	wh/0345.bmp
246.24	0.72	333	3	6	78	per	lib	mod	mod	mod	nt	cr	nh/0543_nh.bmp
246.96	0.72	334	2	7	123	per	lib	mod	mod	mod	tg	ht	wh/0928.bmp
247.68	0.72	335	4	5	55	per	con	mod	mod	mod	tg	ht	wh/0199.bmp
248.40	0.72	336	3	6	65	per	lib	mod	mod	mod	nt	fa	nh/0680_nh.bmp
249.12	0.72	337	3	8	57	mem	con	mod	mod	mod	nt	ht	nh/0947_nh.bmp
249.84	0.72	338	4	8	39	per	con	mod	mod	mod	tg	ms	wh/0805.bmp
250.56	0.72	339	1	5	7	mem	lib	low	low	mod	nt	ms	nh/0626_nh.bmp
251.28	0.72	340	1	6	63	mem	lib	low	low	low	tg	ht	wh/0536.bmp
252.00	0.72	341	4	8	57	mem	con	mod	mod	mod	nt	ht	nh/0947_nh.bmp
252.72	0.72	342	1	7	121	per	lib	mod	mod	mod	tg	ht	wh/0803.bmp
253.44	0.72	343	2	6	47	mem	lib	mod	mod	low	nt	ht	nh/0608_nh.bmp
254.16	0.72	344	4	8	14	per	lib	low	mod	low	nt	fa	nh/0077_nh.bmp
254.88	0.72	345	2	5	45	mem	con	mod	mod	mod	tg	ht	wh/0396.bmp
255.60	0.72	346	3	6	47	mem	lib	mod	mod	low	nt	ht	nh/0608_nh.bmp
256.32	0.72	347	3	8	47	per	con	mod	mod	mod	nt	cr	nh/0182_nh.bmp
257.04	0.72	348	2	5	74	per	lib	low	mod	low	nt	fa	nh/0080_nh.bmp
257.76	0.72	349	5	8	55	mem	con	mod	mod	mod	nt	ht	nh/0973_nh.bmp
258.48	0.72	350	3	6	108	mem	con	mod	mod	low	nt	ms	nh/0075_nh.bmp
259.20	0.72	351	2	6	97	mem	con	mod	mod	low	nt	ht	nh/0074_nh.bmp
259.92	0.72	352	3	5	69	per	lib	low	mod	low	nt	fa	nh/0940_nh.bmp
260.64	0.72	353	5	6	66	per	lib	mod	mod	mod	nt	cr	nh/0594_nh.bmp
261.36	0.72	354	1	7	58	mem	lib	mod	mod	low	tg	ht	wh/0802.bmp
262.08	0.72	355	1	6	24	per	lib	low	low	low	nt	cr	nh/0881_nh.bmp
262.80	0.72	356	4	6	72	per	lib	mod	mod	mod	tg	ht	wh/0714.bmp
263.52	0.72	357	1	5	8	mem	lib	low	low	mod	nt	n/a	nh/0426_nh.bmp
264.24	0.72	358	1	8	85	per	lib	mod	low	mod	nt	cr	nh/1018_nh.bmp
264.96	0.72	359	4	6	12	per	con	low	mod	low	tg	ms	wh/0404.bmp
265.68	0.72	360	1	8	118	mem	lib	low	low	mod	tg	ms	wh/0068.bmp
266.40	0.72	361	2	8	60	mem	con	mod	mod	mod	nt	ms	nh/0462_nh.bmp
267.12	0.72	362	2	6	101	mem	con	mod	mod	low	tg	ms	wh/0383.bmp
267.84	0.72	363	5	8	39	per	con	mod	mod	mod	tg	ms	wh/0805.bmp
268.56	0.72	364	3	5	45	mem	con	mod	mod	mod	tg	ht	wh/0396.bmp
269.28	0.72	365	5	8	10	per	lib	low	mod	low	tg	ms	wh/0361.bmp
270.00	0.72	366	3	5	61	per	con	mod	mod	mod	nt	cr	nh/0187_nh.bmp
270.72	0.72	367	4	6	35	mem	lib	mod	mod	low	tg	ht	wh/0493.bmp
271.44	0.72	368	3	8	53	mem	con	mod	mod	mod	tg	ms	wh/0563.bmp
272.16	0.72	369	2	8	3	per	lib	low	mod	low	nt	fa	nh/0036_nh.bmp
272.88	0.72	370	4	8	18	per	con	low	mod	low	tg	ms	wh/0338.bmp
273.60	0.72	371	5	5	121	mem	lib	mod	mod	mod	tg	ht	wh/0684.bmp
274.32	0.72	372	3	8	20	per	con	low	mod	low	tg	ms	wh/0345.bmp
275.04	0.72	373	3	7	74	mem	con	mod	mod	low	nt	ms	nh/0029_nh.bmp
275.76	0.72	374	1	8	114	mem	lib	low	low	mod	tg	ht	wh/0216.bmp
276.48	0.72	375	4	5	61	per	con	mod	mod	mod	nt	cr	nh/0187_nh.bmp
277.20	0.72	376	4	7	80	mem	con	mod	mod	low	nt	ht	nh/0619_nh.bmp
277.92	0.72	377	2	7	77	mem	con	mod	mod	low	nt	ht	nh/0489_nh.bmp
278.64	0.72	378	1	8	21	per	con	low	mod	low	nt	cr	nh/0284_nh.bmp
279.36	0.72	379	3	6	39	mem	lib	mod	mod	low	tg	ht	wh/1023.bmp
280.08	0.72	380	3	5	79	per	lib	low	mod	low	nt	cr	nh/0646_nh.bmp
280.80	0.72	381	2	8	54	mem	con	mod	mod	mod	tg	ms	wh/0784.bmp
281.52	0.72	382	4	8	71	mem	lib	mod	mod	mod	nt	ht	nh/0593_nh.bmp
282.24	0.72	383	3	8	30	per	con	low	mod	low	nt	cr	nh/0382_nh.bmp
282.96	0.72	384	2	8	21	per	con	low	mod	low	nt	cr	nh/0284_nh.bmp
283.68	0.72	385	3	8	37	per	con	mod	mod	mod	nt	cr	nh/0904_nh.bmp
284.40	0.72	386	1	7	106	per	lib	low	low	low	nt	fa	nh/0197_nh.bmp
285.12	0.72	387	5	8	22	per	con	low	mod	low	nt	fa	nh/0299_nh.bmp
285.84	0.72	388	4	5	45	mem	con	mod	mod	mod	tg	ht	wh/0396.bmp
286.56	0.72	389	1	7	37	mem	lib	low	low	low	tg	ht	wh/0528.bmp
287.28	0.72	390	2	8	13	per	lib	low	mod	low	tg	ms	wh/0443.bmp
288.00	0.72	391	5	8	71	mem	lib	mod	mod	mod	nt	ht	nh/0593_nh.bmp
288.72	0.72	392	2	7	121	per	lib	mod	mod	mod	tg	ht	wh/0803.bmp
289.44	0.72	393	1	5	66	per	lib	low	mod	low	tg	ms	wh/0660.bmp
290.16	0.72	394	3	7	51	mem	lib	mod	mod	low	nt	ht	nh/0451_nh.bmp
290.88	0.72	395	1	6	115	mem	con	low	low	mod	nt	ms	nh/0281_nh.bmp
291.60	0.72	396	3	6	97	mem	con	mod	mod	low	nt	ht	nh/0074_nh.bmp
292.32	0.72	397	4	6	112	mem	con	mod	mod	low	tg	ht	wh/0125.bmp
293.04	0.72	398	4	7	78	mem	con	mod	mod	low	tg	ms	wh/0568.bmp
293.76	0.72	399	1	7	127	per	lib	mod	mod	mod	nt	fa	nh/0716_nh.bmp
294.48	0.72	400	4	8	31	per	con	low	mod	low	nt	cr	nh/0329_nh.bmp
295.20	0.72	401	1	7	81	per	con	low	low	low	tg	ms	wh/0055.bmp
295.92	0.72	402	3	7	62	mem	lib	mod	mod	low	tg	ht	wh/0417.bmp
296.64	0.72	403	3	8	3	per	lib	low	mod	low	nt	fa	nh/0036_nh.bmp
297.36	0.72	404	5	7	80	mem	con	mod	mod	low	nt	ht	nh/0619_nh.bmp
298.08	0.72	405	1	7	91	per	con	low	low	low	tg	ms	wh/0433.bmp
298.80	0.72	406	1	8	4	per	lib	low	mod	low	tg	ms	wh/0760.bmp
299.52	0.72	407	4	5	115	mem	lib	mod	mod	mod	nt	ht	nh/0591_nh.bmp
300.24	0.72	408	1	6	94	per	con	mod	low	mod	tg	ms	wh/0520.bmp
300.96	0.72	409	4	6	9	per	con	low	mod	low	nt	cr	nh/0351_nh.bmp
301.68	0.72	410	5	8	18	per	con	low	mod	low	tg	ms	wh/0338.bmp
302.40	0.72	411	1	5	28	mem	con	low	low	low	tg	ht	wh/0452.bmp
303.12	0.72	412	5	5	122	mem	lib	mod	mod	mod	tg	ht	wh/0795.bmp
303.84	0.72	413	1	6	61	mem	lib	low	low	low	nt	ht	nh/0655_nh.bmp
304.56	0.72	414	4	8	5	per	lib	low	mod	low	nt	cr	nh/0818_nh.bmp
305.28	0.72	415	4	5	79	per	lib	low	mod	low	nt	cr	nh/0646_nh.bmp
306.00	0.72	416	3	8	79	mem	lib	mod	mod	mod	nt	ht	nh/0339_nh.bmp
306.72	0.72	417	2	5	66	per	lib	low	mod	low	tg	ms	wh/0660.bmp
307.44	0.72	418	4	6	65	per	lib	mod	mod	mod	nt	fa	nh/0680_nh.bmp
308.16	0.72	419	5	7	119	per	lib	mod	mod	mod	nt	cr	nh/0540_nh.bmp
308.88	0.72	420	3	8	60	mem	con	mod	mod	mod	nt	ms	nh/0462_nh.bmp
309.60	0.72	421	1	7	110	per	lib	low	low	low	tg	ms	wh/0088.bmp
310.32	0.72	422	4	5	56	per	con	mod	mod	mod	tg	ms	wh/0941.bmp
311.04	0.72	423	4	7	115	per	lib	mod	mod	mod	tg	ms	wh/0371.bmp
311.76	0.72	424	1	8	108	mem	con	low	low	mod	nt	ht	nh/0669_nh.bmp
312.48	0.72	425	5	7	78	mem	con	mod	mod	low	tg	ms	wh/0568.bmp
313.20	0.72	426	1	5	24	mem	con	low	low	low	nt	ht	nh/0113_nh.bmp
313.92	0.72	427	1	6	54	mem	lib	low	low	low	nt	ht	nh/0266_nh.bmp
314.64	0.72	428	4	7	66	mem	con	mod	mod	low	tg	ht	wh/0503.bmp
315.36	0.72	429	5	5	115	mem	lib	mod	mod	mod	nt	ht	nh/0591_nh.bmp
316.08	0.72	430	3	5	66	per	lib	low	mod	low	tg	ms	wh/0660.bmp
316.80	0.72	431	1	7	98	per	lib	low	low	low	nt	cr	nh/0090_nh.bmp
317.52	0.72	432	1	7	59	mem	lib	mod	mod	low	tg	ht	wh/0153.bmp
318.24	0.72	433	4	8	20	per	con	low	mod	low	tg	ms	wh/0345.bmp
318.96	0.72	434	3	6	73	per	lib	mod	mod	mod	tg	ht	wh/0446.bmp
319.68	0.72	435	2	6	40	mem	lib	mod	mod	low	tg	ms	wh/0934.bmp
320.40	0.72	436	4	6	43	mem	lib	mod	mod	low	nt	ht	nh/0082_nh.bmp
321.12	0.72	437	3	6	110	mem	con	mod	mod	low	nt	ht	nh/0190_nh.bmp
321.84	0.72	438	4	7	71	mem	con	mod	mod	low	nt	ht	nh/0893_nh.bmp
322.56	0.72	439	3	6	40	mem	lib	mod	mod	low	tg	ms	wh/0934.bmp
323.28	0.72	440	1	5	51	per	con	mod	mod	mod	nt	cr	nh/0094_nh.bmp
324.00	0.72	441	5	7	64	mem	lib	mod	mod	low	nt	ht	nh/0079_nh.bmp
324.72	0.72	442	3	7	124	per	lib	mod	mod	mod	nt	fa	nh/0807_nh.bmp
325.44	0.72	443	4	8	30	per	con	low	mod	low	nt	cr	nh/0382_nh.bmp
326.16	0.72	444	2	7	70	mem	con	mod	mod	low	tg	ht	wh/0508.bmp
326.88	0.72	445	2	8	41	per	con	mod	mod	mod	nt	cr	nh/0650_nh.bmp
327.60	0.72	446	3	6	109	mem	con	mod	mod	low	tg	ht	wh/0465.bmp
328.32	0.72	447	2	7	63	mem	lib	mod	mod	low	tg	ht	wh/0613.bmp
329.04	0.72	448	3	5	117	mem	lib	mod	mod	mod	nt	ht	nh/0328_nh.bmp
329.76	0.72	449	2	5	50	per	con	mod	mod	mod	tg	ht	wh/0874.bmp
330.48	0.72	450	5	6	65	per	lib	mod	mod	mod	nt	fa	nh/0680_nh.bmp
331.20	0.72	451	4	6	40	mem	lib	mod	mod	low	tg	ms	wh/0934.bmp
331.92	0.72	452	5	8	14	per	lib	low	mod	low	nt	fa	nh/0077_nh.bmp
332.64	0.72	453	2	5	126	mem	lib	mod	mod	mod	tg	ht	wh/0380.bmp
333.36	0.72	454	4	8	47	per	con	mod	mod	mod	nt	cr	nh/0182_nh.bmp
334.08	0.72	455	5	8	30	per	con	low	mod	low	nt	cr	nh/0382_nh.bmp
334.80	0.72	456	4	7	124	per	lib	mod	mod	mod	nt	fa	nh/0807_nh.bmp
335.52	0.72	457	3	8	43	per	con	mod	mod	mod	nt	cr	nh/0810_nh.bmp
336.24	0.72	458	4	8	37	per	con	mod	mod	mod	nt	cr	nh/0904_nh.bmp
336.96	0.72	459	6	8	22	per	con	low	mod	low	nt	fa	nh/0299_nh.bmp
337.68	0.72	460	4	8	80	mem	lib	mod	mod	mod	nt	ms	nh/0558_nh.bmp
338.40	0.72	461	3	5	126	mem	lib	mod	mod	mod	tg	ht	wh/0380.bmp
339.12	0.72	462	3	7	121	per	lib	mod	mod	mod	tg	ht	wh/0803.bmp
339.84	0.72	463	4	8	43	per	con	mod	mod	mod	nt	cr	nh/0810_nh.bmp
340.56	0.72	464	4	5	73	per	lib	low	mod	low	tg	ht	wh/0194.bmp
341.28	0.72	465	1	7	14	mem	con	low	low	low	nt	ms	nh/0815_nh.bmp
342.00	0.72	466	3	6	41	mem	lib	mod	mod	low	nt	ht	nh/0635_nh.bmp
342.72	0.72	467	4	5	66	per	lib	low	mod	low	tg	ms	wh/0660.bmp
343.44	0.72	468	1	8	77	mem	lib	mod	mod	mod	tg	ht	wh/0748.bmp
344.16	0.72	469	3	5	74	per	lib	low	mod	low	nt	fa	nh/0080_nh.bmp
344.88	0.72	470	3	8	21	per	con	low	mod	low	nt	cr	nh/0284_nh.bmp
345.60	0.72	471	1	5	105	per	lib	mod	low	mod	nt	cr	nh/0025_nh.bmp
346.32	0.72	472	3	7	77	mem	con	mod	mod	low	nt	ht	nh/0489_nh.bmp
347.04	0.72	473	2	8	77	mem	lib	mod	mod	mod	tg	ht	wh/0748.bmp
347.76	0.72	474	4	6	77	per	lib	mod	mod	mod	tg	ht	wh/0196.bmp
348.48	0.72	475	1	7	111	per	lib	low	low	low	tg	ht	wh/0831.bmp
349.20	0.72	476	3	8	54	mem	con	mod	mod	mod	tg	ms	wh/0784.bmp
349.92	0.72	477	1	8	88	per	lib	mod	low	mod	tg	ht	wh/0949.bmp
350.64	0.72	478	3	8	9	per	lib	low	mod	low	tg	ht	wh/0690.bmp
351.36	0.72	479	1	8	95	per	lib	mod	low	mod	nt	cr	nh/0736_nh.bmp
352.08	0.72	480	3	6	101	mem	con	mod	mod	low	tg	ms	wh/0383.bmp
352.80	0.72	481	2	6	37	mem	lib	mod	mod	low	tg	ht	wh/0123.bmp
353.52	0.72	482	3	6	15	per	con	low	mod	low	tg	ms	wh/0744.bmp
354.24	0.72	483	4	7	49	mem	lib	mod	mod	low	nt	ht	nh/0336_nh.bmp
354.96	0.72	484	1	8	106	mem	con	low	low	mod	nt	ms	nh/0598_nh.bmp
355.68	0.72	485	1	5	18	mem	con	low	low	low	nt	ms	nh/0695_nh.bmp
356.40	0.72	486	3	6	44	mem	lib	mod	mod	low	nt	ms	nh/0964_nh.bmp
357.12	0.72	487	4	8	60	mem	con	mod	mod	mod	nt	ms	nh/0462_nh.bmp
357.84	0.72	488	1	5	38	mem	con	mod	mod	mod	nt	ht	nh/0697_nh.bmp
358.56	0.72	489	1	8	105	mem	con	low	low	mod	tg	ms	wh/0340.bmp
359.28	0.72	490	5	8	43	per	con	mod	mod	mod	nt	cr	nh/0810_nh.bmp
360.00	0.72	491	4	6	15	per	con	low	mod	low	tg	ms	wh/0744.bmp
360.72	0.72	492	2	7	127	per	lib	mod	mod	mod	nt	fa	nh/0716_nh.bmp
361.44	0.72	493	1	8	115	mem	lib	low	low	mod	nt	ht	nh/0923_nh.bmp
362.16	0.72	494	1	5	26	mem	con	low	low	low	tg	ht	wh/0483.bmp
362.88	0.72	495	4	6	41	mem	lib	mod	mod	low	nt	ht	nh/0635_nh.bmp
363.60	0.72	496	4	6	73	per	lib	mod	mod	mod	tg	ht	wh/0446.bmp
364.32	0.72	497	3	5	60	per	con	mod	mod	mod	tg	ms	wh/0222.bmp
365.04	0.72	498	2	5	44	mem	con	mod	mod	mod	tg	ht	wh/0497.bmp
365.76	0.72	499	5	7	115	per	lib	mod	mod	mod	tg	ms	wh/0371.bmp
366.48	0.72	500	3	5	70	per	lib	low	mod	low	tg	ht	wh/0963.bmp
367.20	0.72	501	4	6	47	mem	lib	mod	mod	low	nt	ht	nh/0608_nh.bmp
367.92	0.72	502	4	8	9	per	lib	low	mod	low	tg	ht	wh/0690.bmp
368.64	0.72	503	4	6	44	mem	lib	mod	mod	low	nt	ms	nh/0964_nh.bmp
369.36	0.72	504	3	5	64	per	con	mod	mod	mod	nt	cr	nh/0319_nh.bmp
370.08	0.72	505	3	7	127	per	lib	mod	mod	mod	nt	fa	nh/0716_nh.bmp
370.80	0.72	506	4	6	109	mem	con	mod	mod	low	tg	ht	wh/0465.bmp
371.52	0.72	507	5	6	109	mem	con	mod	mod	low	tg	ht	wh/0465.bmp
372.24	0.72	508	4	6	101	mem	con	mod	mod	low	tg	ms	wh/0383.bmp
372.96	0.72	509	4	8	53	mem	con	mod	mod	mod	tg	ms	wh/0563.bmp
373.68	0.72	510	3	7	123	per	lib	mod	mod	mod	tg	ht	wh/0928.bmp
374.40	0.72	511	5	6	47	mem	lib	mod	mod	low	nt	ht	nh/0608_nh.bmp
375.12	0.72	512	5	6	35	mem	lib	mod	mod	low	tg	ht	wh/0493.bmp
375.84	0.72	513	2	7	59	mem	lib	mod	mod	low	tg	ht	wh/0153.bmp
376.56	0.72	514	2	5	38	mem	con	mod	mod	mod	nt	ht	nh/0697_nh.bmp
377.28	0.72	515	3	5	68	per	lib	low	mod	low	tg	ms	wh/0035.bmp
378.00	0.72	516	1	7	88	per	con	low	low	low	tg	ht	wh/0261.bmp
378.72	0.72	517	3	5	44	mem	con	mod	mod	mod	tg	ht	wh/0497.bmp
379.44	0.72	518	1	7	32	per	con	mod	low	mod	nt	cr	nh/0530_nh.bmp
380.16	0.72	519	6	8	43	per	con	mod	mod	mod	nt	cr	nh/0810_nh.bmp
380.88	0.72	520	2	8	26	per	con	low	mod	low	tg	ms	wh/0510.bmp
381.60	0.72	521	4	5	75	per	lib	low	mod	low	nt	cr	nh/0032_nh.bmp
382.32	0.72	522	2	8	72	mem	lib	mod	mod	mod	tg	ht	wh/0962.bmp
383.04	0.72	523	2	7	58	mem	lib	mod	mod	low	tg	ht	wh/0802.bmp
383.76	0.72	524	1	6	127	mem	con	low	low	mod	nt	ht	nh/0900_nh.bmp
384.48	0.72	525	3	5	120	mem	lib	mod	mod	mod	nt	ht	nh/0398_nh.bmp
385.20	0.72	526	5	5	75	per	lib	low	mod	low	nt	cr	nh/0032_nh.bmp
385.92	0.72	527	5	6	101	mem	con	mod	mod	low	tg	ms	wh/0383.bmp
386.64	0.72	528	6	8	39	per	con	mod	mod	mod	tg	ms	wh/0805.bmp
387.36	0.72	529	5	5	73	per	lib	low	mod	low	tg	ht	wh/0194.bmp
388.08	0.72	530	4	6	39	mem	lib	mod	mod	low	tg	ht	wh/1023.bmp
388.80	0.72	531	4	5	33	mem	con	mod	mod	mod	tg	ms	wh/0588.bmp
389.52	0.72	532	4	6	68	per	lib	mod	mod	mod	tg	ht	wh/0099.bmp
390.24	0.72	533	4	7	123	per	lib	mod	mod	mod	tg	ht	wh/0928.bmp
390.96	0.72	534	4	5	36	mem	con	mod	mod	mod	nt	ms	nh/0876_nh.bmp
391.68	0.72	535	4	8	79	mem	lib	mod	mod	mod	nt	ht	nh/0339_nh.bmp
392.40	0.72	536	3	8	26	per	con	low	mod	low	tg	ms	wh/0510.bmp
393.12	0.72	537	1	5	93	per	con	low	low	low	nt	cr	nh/0507_nh.bmp
393.84	0.72	538	4	8	24	per	con	low	mod	low	tg	ms	wh/0134.bmp
394.56	0.72	539	4	8	48	per	con	mod	mod	mod	tg	ms	wh/0209.bmp
395.28	0.72	540	1	5	91	per	con	low	low	low	tg	ms	wh/0956.bmp
396.00	0.72	541	1	5	47	mem	con	mod	mod	mod	nt	ht	nh/0954_nh.bmp
396.72	0.72	542	1	8	96	per	lib	mod	low	mod	tg	ms	wh/0461.bmp
397.44	0.72	543	3	5	127	mem	lib	mod	mod	mod	nt	ht	nh/0902_nh.bmp
398.16	0.72	544	4	5	64	per	con	mod	mod	mod	nt	cr	nh/0319_nh.bmp
398.88	0.72	545	5	5	45	mem	con	mod	mod	mod	tg	ht	wh/0396.bmp
399.60	0.72	546	5	8	79	mem	lib	mod	mod	mod	nt	ht	nh/0339_nh.bmp
400.32	0.72	547	1	6	4	per	con	low	mod	low	tg	ms	wh/0730.bmp
401.04	0.72	548	1	7	33	mem	lib	low	low	low	nt	ms	nh/0431_nh.bmp
401.76	0.72	549	3	5	50	per	con	mod	mod	mod	tg	ht	wh/0874.bmp
402.48	0.72	550	6	5	73	per	lib	low	mod	low	tg	ht	wh/0194.bmp
403.20	0.72	551	4	7	77	mem	con	mod	mod	low	nt	ht	nh/0489_nh.bmp
403.92	0.72	552	1	6	60	mem	lib	low	low	low	tg	ht	wh/0237.bmp
404.64	0.72	553	1	7	10	mem	con	low	low	low	tg	ms	wh/0864.bmp
405.36	0.72	554	5	5	66	per	lib	low	mod	low	tg	ms	wh/0660.bmp
406.08	0.72	555	4	5	69	per	lib	low	mod	low	nt	fa	nh/0940_nh.bmp
406.80	0.72	556	5	7	125	per	lib	mod	mod	mod	tg	ht	wh/0909.bmp
407.52	0.72	557	1	7	101	per	lib	low	low	low	nt	cr	nh/0711_nh.bmp
408.24	0.72	558	4	7	74	mem	con	mod	mod	low	nt	ms	nh/0029_nh.bmp
408.96	0.72	559	4	5	117	mem	lib	mod	mod	mod	nt	ht	nh/0328_nh.bmp
409.68	0.72	560	1	6	52	mem	lib	low	low	low	nt	ht	nh/0158_nh.bmp
410.40	0.72	561	4	7	62	mem	lib	mod	mod	low	tg	ht	wh/0417.bmp
411.12	0.72	562	1	7	87	per	con	low	low	low	nt	cr	nh/0706_nh.bmp
411.84	0.72	563	4	5	127	mem	lib	mod	mod	mod	nt	ht	nh/0902_nh.bmp
412.56	0.72	564	3	5	38	mem	con	mod	mod	mod	nt	ht	nh/0697_nh.bmp
413.28	0.72	565	2	5	47	mem	con	mod	mod	mod	nt	ht	nh/0954_nh.bmp
414.00	0.72	566	4	6	110	mem	con	mod	mod	low	nt	ht	nh/0190_nh.bmp
414.72	0.72	567	4	8	67	mem	lib	mod	mod	mod	tg	ht	wh/0957.bmp
415.44	0.72	568	2	8	4	per	lib	low	mod	low	tg	ms	wh/0760.bmp
416.16	0.72	569	4	7	121	per	lib	mod	mod	mod	tg	ht	wh/0803.bmp
416.88	0.72	570	1	7	16	mem	con	low	low	low	nt	ht	nh/0579_nh.bmp
417.60	0.72	571	5	5	59	per	con	mod	mod	mod	nt	cr	nh/0855_nh.bmp
418.32	0.72	572	2	5	51	per	con	mod	mod	mod	nt	cr	nh/0094_nh.bmp
419.04	0.72	573	3	8	4	per	lib	low	mod	low	tg	ms	wh/0760.bmp
419.76	0.72	574	5	5	127	mem	lib	mod	mod	mod	nt	ht	nh/0902_nh.bmp
420.48	0.72	575	2	6	4	per	con	low	mod	low	tg	ms	wh/0730.bmp
421.20	0.72	576	6	5	122	mem	lib	mod	mod	mod	tg	ht	wh/0795.bmp
421.92	0.72	577	5	5	117	mem	lib	mod	mod	mod	nt	ht	nh/0328_nh.bmp
422.64	0.72	578	1	8	94	per	lib	mod	low	mod	tg	ms	wh/0849.bmp
423.36	0.72	579	5	8	24	per	con	low	mod	low	tg	ms	wh/0134.bmp
424.08	0.72	580	5	6	41	mem	lib	mod	mod	low	nt	ht	nh/0635_nh.bmp
424.80	0.72	581	3	5	47	mem	con	mod	mod	mod	nt	ht	nh/0954_nh.bmp
425.52	0.72	582	5	8	47	per	con	mod	mod	mod	nt	cr	nh/0182_nh.bmp
426.24	0.72	583	3	6	4	per	con	low	mod	low	tg	ms	wh/0730.bmp
426.96	0.72	584	2	8	42	per	con	mod	mod	mod	tg	ht	wh/0273.bmp
427.68	0.72	585	4	5	120	mem	lib	mod	mod	mod	nt	ht	nh/0398_nh.bmp
428.40	0.72	586	3	8	72	mem	lib	mod	mod	mod	tg	ht	wh/0962.bmp
429.12	0.72	587	3	7	59	mem	lib	mod	mod	low	tg	ht	wh/0153.bmp
429.84	0.72	588	5	7	49	mem	lib	mod	mod	low	nt	ht	nh/0336_nh.bmp
430.56	0.72	589	3	5	40	mem	con	mod	mod	mod	nt	ht	nh/0095_nh.bmp
431.28	0.72	590	4	6	103	mem	con	mod	mod	low	nt	ht	nh/0967_nh.bmp
432.00	0.72	591	4	7	51	mem	lib	mod	mod	low	nt	ht	nh/0451_nh.bmp
432.72	0.72	592	4	7	116	per	lib	mod	mod	mod	nt	cr	nh/0772_nh.bmp
433.44	0.72	593	5	7	123	per	lib	mod	mod	mod	tg	ht	wh/0928.bmp
434.16	0.72	594	3	7	58	mem	lib	mod	mod	low	tg	ht	wh/0802.bmp
434.88	0.72	595	5	6	44	mem	lib	mod	mod	low	nt	ms	nh/0964_nh.bmp
435.60	0.72	596	4	8	4	per	lib	low	mod	low	tg	ms	wh/0760.bmp
436.32	0.72	597	1	5	112	per	lib	mod	low	mod	nt	cr	nh/0220_nh.bmp
437.04	0.72	598	5	6	12	per	con	low	mod	low	tg	ms	wh/0404.bmp
437.76	0.72	599	5	5	64	per	con	mod	mod	mod	nt	cr	nh/0319_nh.bmp
438.48	0.72	600	3	6	5	per	con	low	mod	low	nt	cr	nh/0364_nh.bmp
439.20	0.72	601	4	8	21	per	con	low	mod	low	nt	cr	nh/0284_nh.bmp
439.92	0.72	602	5	7	121	per	lib	mod	mod	mod	tg	ht	wh/0803.bmp
440.64	0.72	603	3	8	77	mem	lib	mod	mod	mod	tg	ht	wh/0748.bmp
441.36	0.72	604	5	8	45	per	con	mod	mod	mod	tg	ht	wh/0428.bmp
442.08	0.72	605	1	7	11	mem	con	low	low	low	nt	ms	nh/0185_nh.bmp
442.80	0.72	606	6	5	75	per	lib	low	mod	low	nt	cr	nh/0032_nh.bmp
443.52	0.72	607	2	8	69	mem	lib	mod	mod	mod	nt	ht	nh/0350_nh.bmp
444.24	0.72	608	3	6	11	per	con	low	mod	low	nt	cr	nh/0256_nh.bmp
444.96	0.72	609	5	8	60	mem	con	mod	mod	mod	nt	ms	nh/0462_nh.bmp
445.68	0.72	610	1	7	3	mem	con	low	low	low	tg	ht	wh/0370.bmp
446.40	0.72	611	4	6	108	mem	con	mod	mod	low	nt	ms	nh/0075_nh.bmp
447.12	0.72	612	5	6	72	per	lib	mod	mod	mod	tg	ht	wh/0714.bmp
447.84	0.72	613	1	5	97	per	lib	mod	low	mod	tg	ht	wh/0092.bmp
448.56	0.72	614	4	5	74	per	lib	low	mod	low	nt	fa	nh/0080_nh.bmp
449.28	0.72	615	1	8	128	mem	lib	low	low	mod	nt	ht	nh/0419_nh.bmp
450.00	0.72	616	3	8	13	per	lib	low	mod	low	tg	ms	wh/0443.bmp
450.72	0.72	617	5	8	4	per	lib	low	mod	low	tg	ms	wh/0760.bmp
451.44	0.72	618	4	8	3	per	lib	low	mod	low	nt	fa	nh/0036_nh.bmp
452.16	0.72	619	5	8	9	per	lib	low	mod	low	tg	ht	wh/0690.bmp
452.88	0.72	620	4	6	5	per	con	low	mod	low	nt	cr	nh/0364_nh.bmp
453.60	0.72	621	5	7	62	mem	lib	mod	mod	low	tg	ht	wh/0417.bmp
454.32	0.72	622	4	6	97	mem	con	mod	mod	low	nt	ht	nh/0074_nh.bmp
455.04	0.72	623	4	7	60	mem	lib	mod	mod	low	nt	ht	nh/0150_nh.bmp
455.76	0.72	624	5	6	68	per	lib	mod	mod	mod	tg	ht	wh/0099.bmp
456.48	0.72	625	5	8	53	mem	con	mod	mod	mod	tg	ms	wh/0563.bmp
457.20	0.72	626	4	8	77	mem	lib	mod	mod	mod	tg	ht	wh/0748.bmp
457.92	0.72	627	1	7	44	mem	lib	low	low	low	tg	ms	wh/0488.bmp
458.64	0.72	628	1	6	90	per	con	mod	low	mod	nt	cr	nh/0718_nh.bmp
459.36	0.72	629	4	5	50	per	con	mod	mod	mod	tg	ht	wh/0874.bmp
460.08	0.72	630	4	8	26	per	con	low	mod	low	tg	ms	wh/0510.bmp
460.80	0.72	631	4	5	68	per	lib	low	mod	low	tg	ms	wh/0035.bmp
461.52	0.72	632	4	5	70	per	lib	low	mod	low	tg	ht	wh/0963.bmp
462.24	0.72	633	4	7	127	per	lib	mod	mod	mod	nt	fa	nh/0716_nh.bmp
462.96	0.72	634	1	8	109	mem	con	low	low	mod	tg	ms	wh/0782.bmp
463.68	0.72	635	5	5	69	per	lib	low	mod	low	nt	fa	nh/0940_nh.bmp
464.40	0.72	636	5	5	56	per	con	mod	mod	mod	tg	ms	wh/0941.bmp
465.12	0.72	637	5	6	39	mem	lib	mod	mod	low	tg	ht	wh/1023.bmp
465.84	0.72	638	5	8	70	mem	lib	mod	mod	mod	tg	ht	wh/0946.bmp
466.56	0.72	639	6	5	64	per	con	mod	mod	mod	nt	cr	nh/0319_nh.bmp
467.28	0.72	640	5	6	5	per	con	low	mod	low	nt	cr	nh/0364_nh.bmp
468.00	0.72	641	4	6	4	per	con	low	mod	low	tg	ms	wh/0730.bmp
468.72	0.72	642	5	5	36	mem	con	mod	mod	mod	nt	ms	nh/0876_nh.bmp
469.44	0.72	643	3	8	41	per	con	mod	mod	mod	nt	cr	nh/0650_nh.bmp
470.16	0.72	644	3	7	70	mem	con	mod	mod	low	tg	ht	wh/0508.bmp
470.88	0.72	645	6	7	121	per	lib	mod	mod	mod	tg	ht	wh/0803.bmp
471.60	0.72	646	4	8	2	per	lib	low	mod	low	nt	cr	nh/0232_nh.bmp
472.32	0.72	647	3	5	51	per	con	mod	mod	mod	nt	cr	nh/0094_nh.bmp
473.04	0.72	648	3	6	37	mem	lib	mod	mod	low	tg	ht	wh/0123.bmp
473.76	0.72	649	5	5	74	per	lib	low	mod	low	nt	fa	nh/0080_nh.bmp
474.48	0.72	650	4	8	41	per	con	mod	mod	mod	nt	cr	nh/0650_nh.bmp
475.20	0.72	651	5	5	50	per	con	mod	mod	mod	tg	ht	wh/0874.bmp
475.92	0.72	652	4	5	40	mem	con	mod	mod	mod	nt	ht	nh/0095_nh.bmp
476.64	0.72	653	1	8	121	mem	lib	low	low	mod	tg	ht	wh/0048.bmp
477.36	0.72	654	5	6	4	per	con	low	mod	low	tg	ms	wh/0730.bmp
478.08	0.72	655	6	7	123	per	lib	mod	mod	mod	tg	ht	wh/0928.bmp
478.80	0.72	656	6	5	56	per	con	mod	mod	mod	tg	ms	wh/0941.bmp
479.52	0.72	657	5	8	80	mem	lib	mod	mod	mod	nt	ms	nh/0558_nh.bmp
480.24	0.72	658	5	7	51	mem	lib	mod	mod	low	nt	ht	nh/0451_nh.bmp
480.96	0.72	659	5	8	26	per	con	low	mod	low	tg	ms	wh/0510.bmp
481.68	0.72	660	5	8	67	mem	lib	mod	mod	mod	tg	ht	wh/0957.bmp
482.40	0.72	661	6	8	9	per	lib	low	mod	low	tg	ht	wh/0690.bmp
483.12	0.72	662	6	5	36	mem	con	mod	mod	mod	nt	ms	nh/0876_nh.bmp
483.84	0.72	663	6	5	74	per	lib	low	mod	low	nt	fa	nh/0080_nh.bmp
484.56	0.72	664	4	5	60	per	con	mod	mod	mod	tg	ms	wh/0222.bmp
485.28	0.72	665	5	6	73	per	lib	mod	mod	mod	tg	ht	wh/0446.bmp
486.00	0.72	666	6	6	47	mem	lib	mod	mod	low	nt	ht	nh/0608_nh.bmp
486.72	0.72	667	5	8	57	mem	con	mod	mod	mod	nt	ht	nh/0947_nh.bmp
487.44	0.72	668	1	6	128	mem	con	low	low	mod	tg	ht	wh/0038.bmp
488.16	0.72	669	6	6	66	per	lib	mod	mod	mod	nt	cr	nh/0594_nh.bmp
488.88	0.72	670	5	6	108	mem	con	mod	mod	low	nt	ms	nh/0075_nh.bmp
489.60	0.72	671	5	7	74	mem	con	mod	mod	low	nt	ms	nh/0029_nh.bmp
490.32	0.72	672	5	6	40	mem	lib	mod	mod	low	tg	ms	wh/0934.bmp
491.04	0.72	673	1	6	113	mem	con	low	low	mod	tg	ms	wh/0652.bmp
491.76	0.72	674	3	7	63	mem	lib	mod	mod	low	tg	ht	wh/0613.bmp
492.48	0.72	675	4	5	44	mem	con	mod	mod	mod	tg	ht	wh/0497.bmp
493.20	0.72	676	4	6	11	per	con	low	mod	low	nt	cr	nh/0256_nh.bmp
493.92	0.72	677	4	5	38	mem	con	mod	mod	mod	nt	ht	nh/0697_nh.bmp
494.64	0.72	678	6	6	12	per	con	low	mod	low	tg	ms	wh/0404.bmp
495.36	0.72	679	1	6	124	mem	con	low	low	mod	nt	ht	nh/0774_nh.bmp
496.08	0.72	680	5	8	41	per	con	mod	mod	mod	nt	cr	nh/0650_nh.bmp
496.80	0.72	681	1	5	3	mem	lib	low	low	mod	nt	ms	nh/0569_nh.bmp
497.52	0.72	682	1	6	92	per	con	mod	low	mod	nt	cr	nh/0890_nh.bmp
498.24	0.72	683	6	7	115	per	lib	mod	mod	mod	tg	ms	wh/0371.bmp
498.96	0.72	684	6	7	51	mem	lib	mod	mod	low	nt	ht	nh/0451_nh.bmp
499.68	0.72	685	6	5	121	mem	lib	mod	mod	mod	tg	ht	wh/0684.bmp
500.40	0.72	686	6	6	4	per	con	low	mod	low	tg	ms	wh/0730.bmp
501.12	0.72	687	5	7	66	mem	con	mod	mod	low	tg	ht	wh/0503.bmp
501.84	0.72	688	6	5	59	per	con	mod	mod	mod	nt	cr	nh/0855_nh.bmp
502.56	0.72	689	3	8	42	per	con	mod	mod	mod	tg	ht	wh/0273.bmp
503.28	0.72	690	5	6	110	mem	con	mod	mod	low	nt	ht	nh/0190_nh.bmp
504.00	0.72	691	6	6	65	per	lib	mod	mod	mod	nt	fa	nh/0680_nh.bmp
504.72	0.72	692	5	8	20	per	con	low	mod	low	tg	ms	wh/0345.bmp
505.44	0.72	693	5	6	103	mem	con	mod	mod	low	nt	ht	nh/0967_nh.bmp
506.16	0.72	694	5	5	61	per	con	mod	mod	mod	nt	cr	nh/0187_nh.bmp
506.88	0.72	695	6	6	110	mem	con	mod	mod	low	nt	ht	nh/0190_nh.bmp
507.60	0.72	696	5	5	118	mem	lib	mod	mod	mod	tg	ht	wh/0442.bmp
508.32	0.72	697	5	7	124	per	lib	mod	mod	mod	nt	fa	nh/0807_nh.bmp
509.04	0.72	698	5	5	44	mem	con	mod	mod	mod	tg	ht	wh/0497.bmp
509.76	0.72	699	5	5	120	mem	lib	mod	mod	mod	nt	ht	nh/0398_nh.bmp
510.48	0.72	700	5	6	77	per	lib	mod	mod	mod	tg	ht	wh/0196.bmp
511.20	0.72	701	4	6	78	per	lib	mod	mod	mod	nt	cr	nh/0543_nh.bmp
511.92	0.72	702	6	7	124	per	lib	mod	mod	mod	nt	fa	nh/0807_nh.bmp
512.64	0.72	703	5	8	37	per	con	mod	mod	mod	nt	cr	nh/0904_nh.bmp
513.36	0.72	704	5	5	40	mem	con	mod	mod	mod	nt	ht	nh/0095_nh.bmp
514.08	0.72	705	4	6	37	mem	lib	mod	mod	low	tg	ht	wh/0123.bmp
514.80	0.72	706	1	7	38	mem	lib	low	low	low	nt	ms	nh/0999_nh.bmp
515.52	0.72	707	6	6	77	per	lib	mod	mod	mod	tg	ht	wh/0196.bmp
516.24	0.72	708	4	5	51	per	con	mod	mod	mod	nt	cr	nh/0094_nh.bmp
516.96	0.72	709	6	8	45	per	con	mod	mod	mod	tg	ht	wh/0428.bmp
517.68	0.72	710	6	6	73	per	lib	mod	mod	mod	tg	ht	wh/0446.bmp
518.40	0.72	711	6	6	35	mem	lib	mod	mod	low	tg	ht	wh/0493.bmp
519.12	0.72	712	5	6	15	per	con	low	mod	low	tg	ms	wh/0744.bmp
519.84	0.72	713	6	6	103	mem	con	mod	mod	low	nt	ht	nh/0967_nh.bmp
520.56	0.72	714	6	7	66	mem	con	mod	mod	low	tg	ht	wh/0503.bmp
521.28	0.72	715	5	6	112	mem	con	mod	mod	low	tg	ht	wh/0125.bmp
522.00	0.72	716	5	6	43	mem	lib	mod	mod	low	nt	ht	nh/0082_nh.bmp
522.72	0.72	717	6	6	15	per	con	low	mod	low	tg	ms	wh/0744.bmp
523.44	0.72	718	5	5	79	per	lib	low	mod	low	nt	cr	nh/0646_nh.bmp
524.16	0.72	719	4	8	61	mem	con	mod	mod	mod	tg	ht	wh/0447.bmp
524.88	0.72	720	4	5	47	mem	con	mod	mod	mod	nt	ht	nh/0954_nh.bmp
525.60	0.72	721	3	8	69	mem	lib	mod	mod	mod	nt	ht	nh/0350_nh.bmp
526.32	0.72	722	4	7	63	mem	lib	mod	mod	low	tg	ht	wh/0613.bmp
527.04	0.72	723	5	6	37	mem	lib	mod	mod	low	tg	ht	wh/0123.bmp
527.76	0.72	724	5	6	107	mem	con	mod	mod	low	tg	ms	wh/0238.bmp
528.48	0.72	725	6	6	109	mem	con	mod	mod	low	tg	ht	wh/0465.bmp
529.20	0.72	726	1	7	8	mem	con	low	low	low	tg	ms	wh/0930.bmp
529.92	0.72	727	6	6	40	mem	lib	mod	mod	low	tg	ms	wh/0934.bmp
530.64	0.72	728	5	6	78	per	lib	mod	mod	mod	nt	cr	nh/0543_nh.bmp
531.36	0.72	729	1	7	22	per	con	mod	low	mod	tg	ms	wh/0787.bmp
532.08	0.72	730	6	8	41	per	con	mod	mod	mod	nt	cr	nh/0650_nh.bmp
532.80	0.72	731	5	8	61	mem	con	mod	mod	mod	tg	ht	wh/0447.bmp
533.52	0.72	732	1	5	108	per	lib	mod	low	mod	tg	ht	wh/0267.bmp
534.24	0.72	733	5	8	3	per	lib	low	mod	low	nt	fa	nh/0036_nh.bmp
534.96	0.72	734	4	5	43	mem	con	mod	mod	mod	tg	ms	wh/0843.bmp
535.68	0.72	735	4	8	69	mem	lib	mod	mod	mod	nt	ht	nh/0350_nh.bmp
536.40	0.72	736	6	8	20	per	con	low	mod	low	tg	ms	wh/0345.bmp
537.12	0.72	737	6	7	78	mem	con	mod	mod	low	tg	ms	wh/0568.bmp
537.84	0.72	738	6	7	80	mem	con	mod	mod	low	nt	ht	nh/0619_nh.bmp
538.56	0.72	739	6	7	64	mem	lib	mod	mod	low	nt	ht	nh/0079_nh.bmp
539.28	0.72	740	5	7	127	per	lib	mod	mod	mod	nt	fa	nh/0716_nh.bmp
540.00	0.72	741	6	5	120	mem	lib	mod	mod	mod	nt	ht	nh/0398_nh.bmp
540.72	0.72	742	1	6	123	mem	con	low	low	mod	tg	ms	wh/0721.bmp
541.44	0.72	743	4	8	42	per	con	mod	mod	mod	tg	ht	wh/0273.bmp
542.16	0.72	744	5	8	77	mem	lib	mod	mod	mod	tg	ht	wh/0748.bmp
542.88	0.72	745	6	8	4	per	lib	low	mod	low	tg	ms	wh/0760.bmp
543.60	0.72	746	4	7	59	mem	lib	mod	mod	low	tg	ht	wh/0153.bmp
544.32	0.72	747	6	6	107	mem	con	mod	mod	low	tg	ms	wh/0238.bmp
545.04	0.72	748	6	5	50	per	con	mod	mod	mod	tg	ht	wh/0874.bmp
545.76	0.72	749	5	8	69	mem	lib	mod	mod	mod	nt	ht	nh/0350_nh.bmp
546.48	0.72	750	4	8	54	mem	con	mod	mod	mod	tg	ms	wh/0784.bmp
547.20	0.72	751	5	5	38	mem	con	mod	mod	mod	nt	ht	nh/0697_nh.bmp
547.92	0.72	752	6	5	115	mem	lib	mod	mod	mod	nt	ht	nh/0591_nh.bmp
548.64	0.72	753	5	7	60	mem	lib	mod	mod	low	nt	ht	nh/0150_nh.bmp
549.36	0.72	754	5	7	63	mem	lib	mod	mod	low	tg	ht	wh/0613.bmp
550.08	0.72	755	6	6	112	mem	con	mod	mod	low	tg	ht	wh/0125.bmp
550.80	0.72	756	5	8	2	per	lib	low	mod	low	nt	cr	nh/0232_nh.bmp
551.52	0.72	757	6	7	49	mem	lib	mod	mod	low	nt	ht	nh/0336_nh.bmp
552.24	0.72	758	5	8	54	mem	con	mod	mod	mod	tg	ms	wh/0784.bmp
552.96	0.72	759	6	8	10	per	lib	low	mod	low	tg	ms	wh/0361.bmp
553.68	0.72	760	6	5	127	mem	lib	mod	mod	mod	nt	ht	nh/0902_nh.bmp
554.40	0.72	761	5	8	5	per	lib	low	mod	low	nt	cr	nh/0818_nh.bmp
555.12	0.72	762	6	8	2	per	lib	low	mod	low	nt	cr	nh/0232_nh.bmp
555.84	0.72	763	6	8	54	mem	con	mod	mod	mod	tg	ms	wh/0784.bmp
556.56	0.72	764	1	7	99	per	lib	low	low	low	tg	ht	wh/0292.bmp
557.28	0.72	765	4	8	63	mem	con	mod	mod	mod	nt	ms	nh/0397_nh.bmp
558.00	0.72	766	5	5	68	per	lib	low	mod	low	tg	ms	wh/0035.bmp
558.72	0.72	767	5	7	116	per	lib	mod	mod	mod	nt	cr	nh/0772_nh.bmp
559.44	0.72	768	5	8	42	per	con	mod	mod	mod	tg	ht	wh/0273.bmp
560.16	0.72	769	6	7	127	per	lib	mod	mod	mod	nt	fa	nh/0716_nh.bmp
560.88	0.72	770	5	6	11	per	con	low	mod	low	nt	cr	nh/0256_nh.bmp
561.60	0.72	771	1	6	96	per	con	mod	low	mod	nt	cr	nh/0525_nh.bmp
562.32	0.72	772	1	8	92	per	lib	mod	low	mod	nt	fa	nh/0838_nh.bmp
563.04	0.72	773	6	6	39	mem	lib	mod	mod	low	tg	ht	wh/1023.bmp
563.76	0.72	774	5	5	51	per	con	mod	mod	mod	nt	cr	nh/0094_nh.bmp
564.48	0.72	775	4	8	72	mem	lib	mod	mod	mod	tg	ht	wh/0962.bmp
565.20	0.72	776	6	8	24	per	con	low	mod	low	tg	ms	wh/0134.bmp
565.92	0.72	777	6	5	40	mem	con	mod	mod	mod	nt	ht	nh/0095_nh.bmp
566.64	0.72	778	6	8	37	per	con	mod	mod	mod	nt	cr	nh/0904_nh.bmp
567.36	0.72	779	5	8	72	mem	lib	mod	mod	mod	tg	ht	wh/0962.bmp
568.08	0.72	780	5	5	43	mem	con	mod	mod	mod	tg	ms	wh/0843.bmp
568.80	0.72	781	6	5	51	per	con	mod	mod	mod	nt	cr	nh/0094_nh.bmp
569.52	0.72	782	1	7	4	mem	con	low	low	low	nt	ms	nh/0789_nh.bmp
570.24	0.72	783	6	8	53	mem	con	mod	mod	mod	tg	ms	wh/0563.bmp
570.96	0.72	784	5	8	59	mem	con	mod	mod	mod	tg	ht	wh/0548.bmp
571.68	0.72	785	6	6	5	per	con	low	mod	low	nt	cr	nh/0364_nh.bmp
572.40	0.72	786	6	8	80	mem	lib	mod	mod	mod	nt	ms	nh/0558_nh.bmp
573.12	0.72	787	5	5	70	per	lib	low	mod	low	tg	ht	wh/0963.bmp
573.84	0.72	788	4	7	70	mem	con	mod	mod	low	tg	ht	wh/0508.bmp
574.56	0.72	789	4	8	13	per	lib	low	mod	low	tg	ms	wh/0443.bmp
575.28	0.72	790	6	6	11	per	con	low	mod	low	nt	cr	nh/0256_nh.bmp
576.00	0.72	791	6	8	70	mem	lib	mod	mod	mod	tg	ht	wh/0946.bmp
576.72	0.72	792	1	6	84	per	con	mod	low	mod	tg	ht	wh/0927.bmp
577.44	0.72	793	5	8	63	mem	con	mod	mod	mod	nt	ms	nh/0397_nh.bmp
578.16	0.72	794	6	8	47	per	con	mod	mod	mod	nt	cr	nh/0182_nh.bmp
578.88	0.72	795	1	5	103	per	lib	mod	low	mod	tg	ht	wh/0277.bmp
579.60	0.72	796	6	7	74	mem	con	mod	mod	low	nt	ms	nh/0029_nh.bmp
580.32	0.72	797	5	8	48	per	con	mod	mod	mod	tg	ms	wh/0209.bmp
581.04	0.72	798	4	7	58	mem	lib	mod	mod	low	tg	ht	wh/0802.bmp
581.76	0.72	799	6	5	68	per	lib	low	mod	low	tg	ms	wh/0035.bmp
582.48	0.72	800	4	5	126	mem	lib	mod	mod	mod	tg	ht	wh/0380.bmp
583.20	0.72	801	6	5	79	per	lib	low	mod	low	nt	cr	nh/0646_nh.bmp
583.92	0.72	802	6	8	30	per	con	low	mod	low	nt	cr	nh/0382_nh.bmp
584.64	0.72	803	1	5	9	mem	lib	low	low	mod	tg	ht	wh/0729.bmp
585.36	0.72	804	6	5	43	mem	con	mod	mod	mod	tg	ms	wh/0843.bmp
586.08	0.72	805	5	5	60	per	con	mod	mod	mod	tg	ms	wh/0222.bmp
586.80	0.72	806	6	5	69	per	lib	low	mod	low	nt	fa	nh/0940_nh.bmp
587.52	0.72	807	5	6	9	per	con	low	mod	low	nt	cr	nh/0351_nh.bmp
588.24	0.72	808	6	5	38	mem	con	mod	mod	mod	nt	ht	nh/0697_nh.bmp
588.96	0.72	809	5	7	70	mem	con	mod	mod	low	tg	ht	wh/0508.bmp
589.68	0.72	810	5	5	126	mem	lib	mod	mod	mod	tg	ht	wh/0380.bmp
590.40	0.72	811	1	5	21	mem	con	low	low	low	tg	ht	wh/0146.bmp
591.12	0.72	812	6	6	108	mem	con	mod	mod	low	nt	ms	nh/0075_nh.bmp
591.84	0.72	813	6	8	79	mem	lib	mod	mod	mod	nt	ht	nh/0339_nh.bmp
592.56	0.72	814	6	7	60	mem	lib	mod	mod	low	nt	ht	nh/0150_nh.bmp
593.28	0.72	815	6	6	37	mem	lib	mod	mod	low	tg	ht	wh/0123.bmp
594.00	0.72	816	6	7	125	per	lib	mod	mod	mod	tg	ht	wh/0909.bmp
594.72	0.72	817	5	8	31	per	con	low	mod	low	nt	cr	nh/0329_nh.bmp
595.44	0.72	818	5	8	21	per	con	low	mod	low	nt	cr	nh/0284_nh.bmp
596.16	0.72	819	4	6	74	per	lib	mod	mod	mod	nt	fa	nh/0542_nh.bmp
596.88	0.72	820	5	7	71	mem	con	mod	mod	low	nt	ht	nh/0893_nh.bmp
597.60	0.72	821	6	5	126	mem	lib	mod	mod	mod	tg	ht	wh/0380.bmp
598.32	0.72	822	6	8	61	mem	con	mod	mod	mod	tg	ht	wh/0447.bmp
599.04	0.72	823	6	7	70	mem	con	mod	mod	low	tg	ht	wh/0508.bmp
599.76	0.72	824	1	8	122	mem	lib	low	low	mod	nt	ms	nh/0762_nh.bmp
600.48	0.72	825	6	8	14	per	lib	low	mod	low	nt	fa	nh/0077_nh.bmp
601.20	0.72	826	5	7	58	mem	lib	mod	mod	low	tg	ht	wh/0802.bmp
601.92	0.72	827	6	8	72	mem	lib	mod	mod	mod	tg	ht	wh/0962.bmp
602.64	0.72	828	6	7	58	mem	lib	mod	mod	low	tg	ht	wh/0802.bmp
603.36	0.72	829	5	8	13	per	lib	low	mod	low	tg	ms	wh/0443.bmp
604.08	0.72	830	1	5	88	per	con	low	low	low	nt	cr	nh/0823_nh.bmp
604.80	0.72	831	6	8	59	mem	con	mod	mod	mod	tg	ht	wh/0548.bmp
605.52	0.72	832	5	7	59	mem	lib	mod	mod	low	tg	ht	wh/0153.bmp
606.24	0.72	833	5	6	97	mem	con	mod	mod	low	nt	ht	nh/0074_nh.bmp
606.96	0.72	834	6	6	41	mem	lib	mod	mod	low	nt	ht	nh/0635_nh.bmp
607.68	0.72	835	1	5	20	mem	con	low	low	low	nt	ht	nh/0710_nh.bmp
608.40	0.72	836	5	5	47	mem	con	mod	mod	mod	nt	ht	nh/0954_nh.bmp
609.12	0.72	837	6	7	119	per	lib	mod	mod	mod	nt	cr	nh/0540_nh.bmp
609.84	0.72	838	1	6	89	per	con	mod	low	mod	tg	ms	wh/0301.bmp
610.56	0.72	839	4	6	3	per	con	low	mod	low	tg	ms	wh/0355.bmp
611.28	0.72	840	1	6	22	per	lib	low	low	low	tg	ms	wh/0225.bmp
612.00	0.72	841	5	5	33	mem	con	mod	mod	mod	tg	ms	wh/0588.bmp
612.72	0.72	842	6	7	62	mem	lib	mod	mod	low	tg	ht	wh/0417.bmp
613.44	0.72	843	5	7	77	mem	con	mod	mod	low	nt	ht	nh/0489_nh.bmp
614.16	0.72	844	6	8	77	mem	lib	mod	mod	mod	tg	ht	wh/0748.bmp
614.88	0.72	845	1	8	124	mem	lib	low	low	mod	nt	ht	nh/0469_nh.bmp
615.60	0.72	846	6	6	78	per	lib	mod	mod	mod	nt	cr	nh/0543_nh.bmp
616.32	0.72	847	6	7	71	mem	con	mod	mod	low	nt	ht	nh/0893_nh.bmp
617.04	0.72	848	6	8	55	mem	con	mod	mod	mod	nt	ht	nh/0973_nh.bmp
617.76	0.72	849	5	6	74	per	lib	mod	mod	mod	nt	fa	nh/0542_nh.bmp
618.48	0.72	850	6	5	117	mem	lib	mod	mod	mod	nt	ht	nh/0328_nh.bmp
619.20	0.72	851	6	6	68	per	lib	mod	mod	mod	tg	ht	wh/0099.bmp
619.92	0.72	852	6	8	63	mem	con	mod	mod	mod	nt	ms	nh/0397_nh.bmp
620.64	0.72	853	6	8	5	per	lib	low	mod	low	nt	cr	nh/0818_nh.bmp
621.36	0.72	854	1	7	93	per	con	low	low	low	nt	cr	nh/0513_nh.bmp
622.08	0.72	855	6	8	31	per	con	low	mod	low	nt	cr	nh/0329_nh.bmp
622.80	0.72	856	6	6	101	mem	con	mod	mod	low	tg	ms	wh/0383.bmp
623.52	0.72	857	6	5	66	per	lib	low	mod	low	tg	ms	wh/0660.bmp
624.24	0.72	858	6	6	74	per	lib	mod	mod	mod	nt	fa	nh/0542_nh.bmp
624.96	0.72	859	6	7	77	mem	con	mod	mod	low	nt	ht	nh/0489_nh.bmp
625.68	0.72	860	5	6	3	per	con	low	mod	low	tg	ms	wh/0355.bmp
626.40	0.72	861	1	5	86	per	con	low	low	low	nt	cr	nh/0633_nh.bmp
627.12	0.72	862	6	8	48	per	con	mod	mod	mod	tg	ms	wh/0209.bmp
627.84	0.72	863	6	6	72	per	lib	mod	mod	mod	tg	ht	wh/0714.bmp
628.56	0.72	864	6	8	18	per	con	low	mod	low	tg	ms	wh/0338.bmp
629.28	0.72	865	6	8	69	mem	lib	mod	mod	mod	nt	ht	nh/0350_nh.bmp
630.00	0.72	866	6	6	44	mem	lib	mod	mod	low	nt	ms	nh/0964_nh.bmp
630.72	0.72	867	6	6	3	per	con	low	mod	low	tg	ms	wh/0355.bmp
631.44	0.72	868	6	8	26	per	con	low	mod	low	tg	ms	wh/0510.bmp
632.16	0.72	869	1	5	5	mem	lib	low	low	mod	tg	ht	wh/0044.bmp
632.88	0.72	870	5	5	55	per	con	mod	mod	mod	tg	ht	wh/0199.bmp
633.60	0.72	871	6	5	45	mem	con	mod	mod	mod	tg	ht	wh/0396.bmp
634.32	0.72	872	6	5	44	mem	con	mod	mod	mod	tg	ht	wh/0497.bmp
635.04	0.72	873	6	5	70	per	lib	low	mod	low	tg	ht	wh/0963.bmp
635.76	0.72	874	6	5	47	mem	con	mod	mod	mod	nt	ht	nh/0954_nh.bmp
636.48	0.72	875	6	7	67	mem	con	mod	mod	low	tg	ht	wh/0577.bmp
637.20	0.72	876	6	6	43	mem	lib	mod	mod	low	nt	ht	nh/0082_nh.bmp
637.92	0.72	877	6	7	59	mem	lib	mod	mod	low	tg	ht	wh/0153.bmp
638.64	0.72	878	6	8	60	mem	con	mod	mod	mod	nt	ms	nh/0462_nh.bmp
639.36	0.72	879	6	5	33	mem	con	mod	mod	mod	tg	ms	wh/0588.bmp
640.08	0.72	880	6	7	63	mem	lib	mod	mod	low	tg	ht	wh/0613.bmp
640.80	0.72	881	6	6	97	mem	con	mod	mod	low	nt	ht	nh/0074_nh.bmp
641.52	0.72	882	6	8	42	per	con	mod	mod	mod	tg	ht	wh/0273.bmp
642.24	0.72	883	6	8	3	per	lib	low	mod	low	nt	fa	nh/0036_nh.bmp
642.96	0.72	884	6	5	55	per	con	mod	mod	mod	tg	ht	wh/0199.bmp
643.68	0.72	885	6	8	71	mem	lib	mod	mod	mod	nt	ht	nh/0593_nh.bmp
644.40	0.72	886	6	8	13	per	lib	low	mod	low	tg	ms	wh/0443.bmp
645.12	0.72	887	6	5	118	mem	lib	mod	mod	mod	tg	ht	wh/0442.bmp
645.84	0.72	888	6	7	116	per	lib	mod	mod	mod	nt	cr	nh/0772_nh.bmp
646.56	0.72	889	6	5	61	per	con	mod	mod	mod	nt	cr	nh/0187_nh.bmp
647.28	0.72	890	6	8	21	per	con	low	mod	low	nt	cr	nh/0284_nh.bmp
648.00	0.72	891	6	8	57	mem	con	mod	mod	mod	nt	ht	nh/0947_nh.bmp
648.72	0.72	892	6	6	9	per	con	low	mod	low	nt	cr	nh/0351_nh.bmp
649.44	0.72	893	1	7	85	per	con	low	low	low	nt	cr	nh/0458_nh.bmp
650.16	0.72	894	6	5	60	per	con	mod	mod	mod	tg	ms	wh/0222.bmp
650.88	0.72	895	1	7	25	per	con	mod	low	mod	nt	cr	nh/0860_nh.bmp
651.60	0.72	896	6	8	67	mem	lib	mod	mod	mod	tg	ht	wh/0957.bmp
