onset	duration	trial	pres	ts_blk	ts_trl	task	crit	disc	mem_disc	per_disc	per_type	accuracy	stim_file
7.20	0.72	1	1	4	39	mem	lib	mod	mod	mod	tg	ht	wh/0689.bmp
7.92	0.72	2	1	4	27	per	con	mod	mod	mod	nt	fa	nh/0809_nh.bmp
8.64	0.72	3	1	4	10	mem	con	mod	mod	mod	nt	ms	nh/0049_nh.bmp
9.36	0.72	4	1	2	5	per	lib	low	mod	low	tg	ht	wh/0007.bmp
10.08	0.72	5	1	4	25	per	con	mod	mod	mod	tg	ht	wh/0358.bmp
10.80	0.72	6	1	2	113	mem	con	mod	mod	low	nt	ms	nh/0212_nh.bmp
11.52	0.72	7	1	4	31	per	con	mod	mod	mod	nt	cr	nh/0861_nh.bmp
12.24	0.72	8	1	2	116	mem	con	mod	mod	low	tg	ms	wh/0671.bmp
12.96	0.72	9	1	1	60	mem	con	mod	mod	mod	nt	ht	nh/0562_nh.bmp
13.68	0.72	10	1	3	108	per	lib	low	mod	low	tg	ms	wh/0424.bmp
14.40	0.72	11	1	3	97	per	lib	low	mod	low	nt	cr	nh/0291_nh.bmp
15.12	0.72	12	1	3	118	per	con	mod	low	mod	tg	ht	wh/0872.bmp
15.84	0.72	13	1	1	106	mem	lib	mod	mod	low	nt	ht	nh/0459_nh.bmp
16.56	0.72	14	1	2	98	mem	lib	mod	mod	mod	nt	ms	nh/0137_nh.bmp
17.28	0.72	15	1	1	17	per	con	low	low	low	tg	ms	wh/0369.bmp
18.00	0.72	16	1	2	36	per	con	mod	mod	mod	nt	fa	nh/0413_nh.bmp
18.72	0.72	17	1	3	35	mem	lib	mod	mod	low	nt	ms	nh/0410_nh.bmp
19.44	0.72	18	1	4	105	per	con	low	mod	low	tg	ms	wh/0067.bmp
20.16	0.72	19	1	3	37	mem	lib	mod	mod	low	tg	ht	wh/0315.bmp
20.88	0.72	20	1	3	2	mem	con	mod	mod	low	nt	ht	nh/0641_nh.bmp
21.60	0.72	21	1	3	42	mem	lib	mod	mod	low	tg	ms	wh/0509.bmp
22.32	0.72	22	1	2	104	mem	lib	mod	mod	mod	tg	ht	wh/0665.bmp
23.04	0.72	23	1	3	100	per	lib	low	mod	low	nt	cr	nh/0523_nh.bmp
23.76	0.72	24	1	2	46	per	con	mod	mod	mod	tg	ht	wh/0348.bmp
24.48	0.72	25	1	3	79	mem	con	low	low	low	tg	ms	wh/0430.bmp
25.20	0.72	26	1	4	84	per	lib	mod	mod	mod	tg	ms	wh/0490.bmp
25.92	0.72	27	1	4	6	mem	con	mod	mod	mod	tg	ms	wh/0072.bmp
26.64	0.72	28	2	3	2	mem	con	mod	mod	low	nt	ht	nh/0641_nh.bmp
27.36	0.72	29	1	2	39	per	con	mod	mod	mod	nt	cr	nh/0983_nh.bmp
28.08	0.72	30	1	3	107	per	lib	low	mod	low	nt	fa	nh/0131_nh.bmp
28.80	0.72	31	1	2	87	mem	con	low	low	mod	tg	ht	wh/0917.bmp
29.52	0.72	32	1	1	34	per	lib	mod	mod	mod	nt	fa	nh/0320_nh.bmp
30.24	0.72	33	2	3	35	mem	lib	mod	mod	low	nt	ms	nh/0410_nh.bmp
30.96	0.72	34	1	1	33	per	lib	mod	mod	mod	tg	ht	wh/0487.bmp
31.68	0.72	35	1	2	128	mem	con	mod	mod	low	nt	ht	nh/0302_nh.bmp
32.40	0.72	36	1	4	102	per	con	low	mod	low	tg	ht	wh/0174.bmp
33.12	0.72	37	2	3	97	per	lib	low	mod	low	nt	cr	nh/0291_nh.bmp
33.84	0.72	38	1	1	41	per	lib	mod	mod	mod	nt	fa	nh/0742_nh.bmp
34.56	0.72	39	2	4	10	mem	con	mod	mod	mod	nt	ms	nh/0049_nh.bmp
35.28	0.72	40	1	4	37	mem	lib	mod	mod	mod	nt	ht	nh/0664_nh.bmp
36.00	0.72	41	2	1	41	per	lib	mod	mod	mod	nt	fa	nh/0742_nh.bmp
36.72	0.72	42	1	1	112	mem	lib	mod	mod	low	tg	ht	wh/0765.bmp
37.44	0.72	43	1	3	12	mem	con	mod	mod	low	nt	ms	nh/0132_nh.bmp
38.16	0.72	44	2	4	39	mem	lib	mod	mod	mod	tg	ht	wh/0689.bmp
38.88	0.72	45	1	2	102	mem	lib	mod	mod	mod	nt	ht	nh/0961_nh.bmp
39.60	0.72	46	2	2	98	mem	lib	mod	mod	mod	nt	ms	nh/0137_nh.bmp
40.32	0.72	47	2	2	36	per	con	mod	mod	mod	nt	fa	nh/0413_nh.bmp
41.04	0.72	48	1	4	90	per	lib	mod	mod	mod	nt	cr	nh/0151_nh.bmp
41.76	0.72	49	1	1	58	mem	con	mod	mod	mod	tg	ht	wh/0331.bmp
42.48	0.72	50	1	3	10	mem	con	mod	mod	low	nt	ms	nh/0454_nh.bmp
43.20	0.72	51	1	2	11	per	lib	low	mod	low	tg	ms	wh/1013.bmp
43.92	0.72	52	1	4	92	per	lib	mod	mod	mod	tg	ht	wh/0445.bmp
44.64	0.72	53	1	2	30	per	con	low	mod	low	tg	ms	wh/0368.bmp
45.36	0.72	54	1	2	111	mem	lib	mod	mod	mod	nt	ht	nh/0738_nh.bmp
46.08	0.72	55	1	4	108	per	con	low	mod	low	tg	ms	wh/0643.bmp
46.80	0.72	56	1	1	102	mem	lib	mod	mod	low	nt	ht	nh/0293_nh.bmp
47.52	0.72	57	2	2	102	mem	lib	mod	mod	mod	nt	ht	nh/0961_nh.bmp
48.24	0.72	58	3	2	36	per	con	mod	mod	mod	nt	fa	nh/0413_nh.bmp
48.96	0.72	59	1	4	47	mem	lib	mod	mod	mod	nt	ht	nh/0448_nh.bmp
49.68	0.72	60	1	3	20	per	lib	mod	low	mod	tg	ht	wh/0085.bmp
50.40	0.72	61	1	1	64	mem	con	mod	mod	mod	tg	ht	wh/0097.bmp
51.12	0.72	62	1	1	110	mem	lib	mod	mod	low	nt	ht	nh/0412_nh.bmp
51.84	0.72	63	1	1	103	mem	lib	mod	mod	low	tg	ht	wh/0554.bmp
52.56	0.72	64	1	3	109	per	lib	low	mod	low	tg	ht	wh/0236.bmp
53.28	0.72	65	2	3	100	per	lib	low	mod	low	nt	cr	nh/0523_nh.bmp
54.00	0.72	66	1	1	94	per	lib	low	low	low	nt	fa	nh/0524_nh.bmp
54.72	0.72	67	1	2	28	per	con	low	mod	low	nt	fa	nh/0661_nh.bmp
55.44	0.72	68	1	4	28	per	con	mod	mod	mod	tg	ms	wh/0834.bmp
56.16	0.72	69	2	4	28	per	con	mod	mod	mod	tg	ms	wh/0834.bmp
56.88	0.72	70	1	4	106	per	con	low	mod	low	nt	cr	nh/0976_nh.bmp
57.60	0.72	71	1	4	35	mem	lib	mod	mod	mod	tg	ht	wh/0479.bmp
58.32	0.72	72	2	1	60	mem	con	mod	mod	mod	nt	ht	nh/0562_nh.bmp
59.04	0.72	73	1	4	26	per	con	mod	mod	mod	nt	cr	nh/0477_nh.bmp
59.76	0.72	74	2	2	30	per	con	low	mod	low	tg	ms	wh/0368.bmp
60.48	0.72	75	1	3	122	per	con	mod	low	mod	tg	ms	wh/0304.bmp
61.20	0.72	76	1	3	57	per	con	low	low	low	tg	ht	wh/0252.bmp
61.92	0.72	77	1	2	53	mem	lib	low	low	mod	tg	ht	wh/0754.bmp
62.64	0.72	78	2	4	25	per	con	mod	mod	mod	tg	ht	wh/0358.bmp
63.36	0.72	79	1	3	80	mem	con	low	low	low	nt	ms	nh/0492_nh.bmp
64.08	0.72	80	1	3	106	per	lib	low	mod	low	tg	ht	wh/0615.bmp
64.80	0.72	81	2	1	103	mem	lib	mod	mod	low	tg	ht	wh/0554.bmp
65.52	0.72	82	1	3	128	per	con	mod	low	mod	nt	cr	nh/0192_nh.bmp
66.24	0.72	83	1	2	15	per	lib	low	mod	low	nt	fa	nh/0444_nh.bmp
66.96	0.72	84	3	3	97	per	lib	low	mod	low	nt	cr	nh/0291_nh.bmp
67.68	0.72	85	1	1	127	mem	lib	low	low	low	nt	ht	nh/0916_nh.bmp
68.40	0.72	86	1	2	29	per	con	low	mod	low	nt	cr	nh/0511_nh.bmp
69.12	0.72	87	3	3	35	mem	lib	mod	mod	low	nt	ms	nh/0410_nh.bmp
69.84	0.72	88	1	4	5	mem	con	mod	mod	mod	tg	ht	wh/0427.bmp
70.56	0.72	89	2	3	42	mem	lib	mod	mod	low	tg	ms	wh/0509.bmp
71.28	0.72	90	1	2	4	per	lib	low	mod	low	tg	ht	wh/0494.bmp
72.00	0.72	91	2	4	92	per	lib	mod	mod	mod	tg	ht	wh/0445.bmp
72.72	0.72	92	1	1	82	per	lib	low	low	low	tg	ht	wh/0828.bmp
73.44	0.72	93	1	1	37	per	lib	mod	mod	mod	tg	ht	wh/0576.bmp
74.16	0.72	94	1	3	110	per	lib	low	mod	low	nt	cr	nh/0390_nh.bmp
74.88	0.72	95	1	2	109	mem	lib	mod	mod	mod	tg	ht	wh/0925.bmp
75.60	0.72	96	3	3	100	per	lib	low	mod	low	nt	cr	nh/0523_nh.bmp
76.32	0.72	97	1	3	89	mem	lib	low	low	mod	nt	ht	nh/0985_nh.bmp
77.04	0.72	98	4	2	36	per	con	mod	mod	mod	nt	fa	nh/0413_nh.bmp
77.76	0.72	99	1	4	104	per	con	low	mod	low	nt	cr	nh/0683_nh.bmp
78.48	0.72	100	1	3	127	per	con	mod	low	mod	nt	cr	nh/0230_nh.bmp
79.20	0.72	101	2	1	102	mem	lib	mod	mod	low	nt	ht	nh/0293_nh.bmp
79.92	0.72	102	2	4	106	per	con	low	mod	low	nt	cr	nh/0976_nh.bmp
80.64	0.72	103	1	2	14	per	lib	low	mod	low	nt	cr	nh/0295_nh.bmp
81.36	0.72	104	3	4	106	per	con	low	mod	low	nt	cr	nh/0976_nh.bmp
82.08	0.72	105	3	2	30	per	con	low	mod	low	tg	ms	wh/0368.bmp
82.80	0.72	106	1	1	55	mem	con	mod	mod	mod	nt	ms	nh/0628_nh.bmp
83.52	0.72	107	1	1	35	per	lib	mod	mod	mod	nt	cr	nh/0071_nh.bmp
84.24	0.72	108	2	4	104	per	con	low	mod	low	nt	cr	nh/0683_nh.bmp
84.96	0.72	109	1	2	100	mem	lib	mod	mod	mod	nt	ht	nh/0796_nh.bmp
85.68	0.72	110	1	2	85	mem	con	low	low	mod	tg	ms	wh/0811.bmp
86.40	0.72	111	2	2	116	mem	con	mod	mod	low	tg	ms	wh/0671.bmp
87.12	0.72	112	2	1	112	mem	lib	mod	mod	low	tg	ht	wh/0765.bmp
87.84	0.72	113	1	1	57	mem	con	mod	mod	mod	nt	ht	nh/0333_nh.bmp
88.56	0.72	114	2	4	102	per	con	low	mod	low	tg	ht	wh/0174.bmp
89.28	0.72	115	3	4	102	per	con	low	mod	low	tg	ht	wh/0174.bmp
90.00	0.72	116	1	4	13	mem	con	mod	mod	mod	tg	ms	wh/0061.bmp
90.72	0.72	117	2	3	107	per	lib	low	mod	low	nt	fa	nh/0131_nh.bmp
91.44	0.72	118	1	2	96	mem	con	low	low	mod	nt	ht	nh/0854_nh.bmp
92.16	0.72	119	1	2	16	per	lib	low	mod	low	nt	cr	nh/0415_nh.bmp
92.88	0.72	120	1	4	107	per	con	low	mod	low	nt	cr	nh/0512_nh.bmp
93.60	0.72	121	2	1	35	per	lib	mod	mod	mod	nt	cr	nh/0071_nh.bmp
94.32	0.72	122	2	3	108	per	lib	low	mod	low	tg	ms	wh/0424.bmp
95.04	0.72	123	1	3	101	per	lib	low	mod	low	tg	ms	wh/0798.bmp
95.76	0.72	124	3	1	41	per	lib	mod	mod	mod	nt	fa	nh/0742_nh.bmp
96.48	0.72	125	3	4	39	mem	lib	mod	mod	mod	tg	ht	wh/0689.bmp
97.20	0.72	126	1	2	25	per	con	low	mod	low	nt	fa	nh/0124_nh.bmp
97.92	0.72	127	2	3	10	mem	con	mod	mod	low	nt	ms	nh/0454_nh.bmp
98.64	0.72	128	1	3	27	per	lib	mod	low	mod	nt	cr	nh/0620_nh.bmp
99.36	0.72	129	2	4	6	mem	con	mod	mod	mod	tg	ms	wh/0072.bmp
100.08	0.72	130	1	2	115	mem	con	mod	mod	low	tg	ht	wh/0259.bmp
100.80	0.72	131	1	3	13	mem	con	mod	mod	low	tg	ms	wh/0283.bmp
101.52	0.72	132	3	4	104	per	con	low	mod	low	nt	cr	nh/0683_nh.bmp
102.24	0.72	133	1	1	8	per	con	mod	low	mod	nt	cr	nh/0467_nh.bmp
102.96	0.72	134	1	1	79	mem	con	low	low	low	nt	ms	nh/0987_nh.bmp
103.68	0.72	135	1	2	52	mem	lib	low	low	mod	nt	ht	nh/0630_nh.bmp
104.40	0.72	136	1	3	40	mem	lib	mod	mod	low	nt	ht	nh/0030_nh.bmp
105.12	0.72	137	2	2	28	per	con	low	mod	low	nt	fa	nh/0661_nh.bmp
105.84	0.72	138	1	3	6	mem	con	mod	mod	low	tg	ht	wh/1000.bmp
106.56	0.72	139	1	2	21	per	con	low	mod	low	tg	ms	wh/0323.bmp
107.28	0.72	140	1	3	8	mem	con	mod	mod	low	nt	ms	nh/0703_nh.bmp
108.00	0.72	141	2	3	101	per	lib	low	mod	low	tg	ms	wh/0798.bmp
108.72	0.72	142	4	3	97	per	lib	low	mod	low	nt	cr	nh/0291_nh.bmp
109.44	0.72	143	2	3	8	mem	con	mod	mod	low	nt	ms	nh/0703_nh.bmp
110.16	0.72	144	1	2	42	per	con	mod	mod	mod	nt	cr	nh/0761_nh.bmp
110.88	0.72	145	2	4	108	per	con	low	mod	low	tg	ms	wh/0643.bmp
111.60	0.72	146	1	1	26	per	con	low	low	low	tg	ms	wh/0167.bmp
112.32	0.72	147	2	4	13	mem	con	mod	mod	mod	tg	ms	wh/0061.bmp
113.04	0.72	148	1	2	74	per	lib	mod	low	mod	tg	ht	wh/0886.bmp
113.76	0.72	149	2	2	100	mem	lib	mod	mod	mod	nt	ht	nh/0796_nh.bmp
114.48	0.72	150	1	1	39	per	lib	mod	mod	mod	tg	ht	wh/1006.bmp
115.20	0.72	151	2	2	5	per	lib	low	mod	low	tg	ht	wh/0007.bmp
115.92	0.72	152	1	4	66	per	lib	low	low	low	nt	fa	nh/0242_nh.bmp
116.64	0.72	153	1	2	118	mem	con	mod	mod	low	nt	ms	nh/0882_nh.bmp
117.36	0.72	154	2	4	105	per	con	low	mod	low	tg	ms	wh/0067.bmp
118.08	0.72	155	1	4	122	mem	lib	low	low	low	tg	ht	wh/0819.bmp
118.80	0.72	156	1	1	23	per	con	low	low	low	nt	cr	nh/0335_nh.bmp
119.52	0.72	157	1	4	121	mem	lib	low	low	low	nt	ht	nh/0824_nh.bmp
120.24	0.72	158	1	2	24	per	con	low	mod	low	nt	cr	nh/0988_nh.bmp
120.96	0.72	159	1	1	111	mem	lib	mod	mod	low	tg	ht	wh/0438.bmp
121.68	0.72	160	2	4	31	per	con	mod	mod	mod	nt	cr	nh/0861_nh.bmp
122.40	0.72	161	2	2	115	mem	con	mod	mod	low	tg	ht	wh/0259.bmp
123.12	0.72	162	1	1	101	mem	lib	mod	mod	low	nt	ht	nh/0263_nh.bmp
123.84	0.72	163	1	4	56	mem	con	low	low	mod	nt	ms	nh/0606_nh.bmp
124.56	0.72	164	2	3	12	mem	con	mod	mod	low	nt	ms	nh/0132_nh.bmp
125.28	0.72	165	2	2	24	per	con	low	mod	low	nt	cr	nh/0988_nh.bmp
126.00	0.72	166	1	3	32	per	lib	mod	low	mod	tg	ht	wh/0201.bmp
126.72	0.72	167	3	2	116	mem	con	mod	mod	low	tg	ms	wh/0671.bmp
127.44	0.72	168	1	2	47	per	con	mod	mod	mod	tg	ht	wh/0583.bmp
128.16	0.72	169	1	4	75	per	lib	low	low	low	tg	ms	wh/0653.bmp
128.88	0.72	170	1	2	34	per	con	mod	mod	mod	tg	ht	wh/0674.bmp
129.60	0.72	171	1	1	27	per	con	low	low	low	tg	ht	wh/0010.bmp
130.32	0.72	172	2	2	14	per	lib	low	mod	low	nt	cr	nh/0295_nh.bmp
131.04	0.72	173	4	2	30	per	con	low	mod	low	tg	ms	wh/0368.bmp
131.76	0.72	174	1	4	20	per	con	mod	mod	mod	tg	ms	wh/0759.bmp
132.48	0.72	175	2	3	40	mem	lib	mod	mod	low	nt	ht	nh/0030_nh.bmp
133.20	0.72	176	1	4	3	mem	con	mod	mod	mod	nt	ms	nh/0365_nh.bmp
133.92	0.72	177	1	2	108	mem	lib	mod	mod	mod	tg	ht	wh/0279.bmp
134.64	0.72	178	2	2	29	per	con	low	mod	low	nt	cr	nh/0511_nh.bmp
135.36	0.72	179	1	2	56	mem	lib	low	low	mod	nt	ht	nh/0062_nh.bmp
136.08	0.72	180	2	3	110	per	lib	low	mod	low	nt	cr	nh/0390_nh.bmp
136.80	0.72	181	1	3	123	per	con	mod	low	mod	nt	cr	nh/0707_nh.bmp
137.52	0.72	182	1	4	41	mem	lib	mod	mod	mod	nt	ht	nh/0229_nh.bmp
138.24	0.72	183	2	1	57	mem	con	mod	mod	mod	nt	ht	nh/0333_nh.bmp
138.96	0.72	184	2	2	118	mem	con	mod	mod	low	nt	ms	nh/0882_nh.bmp
139.68	0.72	185	2	2	109	mem	lib	mod	mod	mod	tg	ht	wh/0925.bmp
140.40	0.72	186	2	2	108	mem	lib	mod	mod	mod	tg	ht	wh/0279.bmp
141.12	0.72	187	1	4	51	mem	con	low	low	mod	nt	ms	nh/0557_nh.bmp
141.84	0.72	188	3	2	118	mem	con	mod	mod	low	nt	ms	nh/0882_nh.bmp
142.56	0.72	189	3	4	13	mem	con	mod	mod	mod	tg	ms	wh/0061.bmp
143.28	0.72	190	2	3	6	mem	con	mod	mod	low	tg	ht	wh/1000.bmp
144.00	0.72	191	2	2	47	per	con	mod	mod	mod	tg	ht	wh/0583.bmp
144.72	0.72	192	1	3	47	mem	lib	mod	mod	low	tg	ht	wh/0081.bmp
145.44	0.72	193	1	3	17	per	lib	mod	low	mod	tg	ht	wh/0409.bmp
146.16	0.72	194	4	4	102	per	con	low	mod	low	tg	ht	wh/0174.bmp
146.88	0.72	195	4	4	39	mem	lib	mod	mod	mod	tg	ht	wh/0689.bmp
147.60	0.72	196	1	2	117	mem	con	mod	mod	low	nt	ht	nh/0496_nh.bmp
148.32	0.72	197	1	4	42	mem	lib	mod	mod	mod	tg	ht	wh/0806.bmp
149.04	0.72	198	3	3	2	mem	con	mod	mod	low	nt	ht	nh/0641_nh.bmp
149.76	0.72	199	2	4	107	per	con	low	mod	low	nt	cr	nh/0512_nh.bmp
150.48	0.72	200	2	1	101	mem	lib	mod	mod	low	nt	ht	nh/0263_nh.bmp
151.20	0.72	201	2	2	128	mem	con	mod	mod	low	nt	ht	nh/0302_nh.bmp
151.92	0.72	202	1	4	88	per	lib	mod	mod	mod	nt	cr	nh/0538_nh.bmp
152.64	0.72	203	3	4	108	per	con	low	mod	low	tg	ms	wh/0643.bmp
153.36	0.72	204	3	4	31	per	con	mod	mod	mod	nt	cr	nh/0861_nh.bmp
154.08	0.72	205	1	2	127	mem	con	mod	mod	low	tg	ht	wh/0422.bmp
154.80	0.72	206	1	4	19	per	con	mod	mod	mod	tg	ms	wh/0344.bmp
155.52	0.72	207	1	3	69	mem	con	low	low	low	nt	ht	nh/0607_nh.bmp
156.24	0.72	208	1	2	124	mem	con	mod	mod	low	tg	ms	wh/0672.bmp
156.96	0.72	209	1	3	36	mem	lib	mod	mod	low	nt	ht	nh/0246_nh.bmp
157.68	0.72	210	1	3	33	mem	lib	mod	mod	low	nt	ht	nh/0166_nh.bmp
158.40	0.72	211	2	4	47	mem	lib	mod	mod	mod	nt	ht	nh/0448_nh.bmp
159.12	0.72	212	3	2	102	mem	lib	mod	mod	mod	nt	ht	nh/0961_nh.bmp
159.84	0.72	213	1	4	1	mem	con	mod	mod	mod	nt	ms	nh/0931_nh.bmp
160.56	0.72	214	1	4	85	per	lib	mod	mod	mod	nt	fa	nh/0343_nh.bmp
161.28	0.72	215	1	4	78	per	lib	low	low	low	nt	cr	nh/0877_nh.bmp
162.00	0.72	216	1	3	14	mem	con	mod	mod	low	tg	ms	wh/0195.bmp
162.72	0.72	217	3	2	47	per	con	mod	mod	mod	tg	ht	wh/0583.bmp
163.44	0.72	218	1	1	105	mem	lib	mod	mod	low	tg	ht	wh/0914.bmp
164.16	0.72	219	3	2	5	per	lib	low	mod	low	tg	ht	wh/0007.bmp
164.88	0.72	220	2	2	15	per	lib	low	mod	low	nt	fa	nh/0444_nh.bmp
165.60	0.72	221	1	2	69	per	lib	mod	low	mod	tg	ht	wh/0440.bmp
166.32	0.72	222	1	2	92	mem	con	low	low	mod	tg	ht	wh/0517.bmp
167.04	0.72	223	1	4	55	mem	con	low	low	mod	tg	ms	wh/1020.bmp
167.76	0.72	224	3	2	128	mem	con	mod	mod	low	nt	ht	nh/0302_nh.bmp
168.48	0.72	225	1	2	73	per	lib	mod	low	mod	nt	cr	nh/0991_nh.bmp
169.20	0.72	226	2	4	90	per	lib	mod	mod	mod	nt	cr	nh/0151_nh.bmp
169.92	0.72	227	2	2	104	mem	lib	mod	mod	mod	tg	ht	wh/0665.bmp
170.64	0.72	228	1	1	48	per	lib	mod	mod	mod	tg	ht	wh/1010.bmp
171.36	0.72	229	3	1	60	mem	con	mod	mod	mod	nt	ht	nh/0562_nh.bmp
172.08	0.72	230	1	3	84	mem	lib	low	low	mod	tg	ht	wh/0595.bmp
172.80	0.72	231	1	1	114	mem	lib	low	low	low	tg	ht	wh/0535.bmp
173.52	0.72	232	2	4	26	per	con	mod	mod	mod	nt	cr	nh/0477_nh.bmp
174.24	0.72	233	1	2	18	per	con	low	mod	low	tg	ms	wh/0386.bmp
174.96	0.72	234	1	3	29	per	lib	mod	low	mod	nt	fa	nh/0969_nh.bmp
175.68	0.72	235	2	2	111	mem	lib	mod	mod	mod	nt	ht	nh/0738_nh.bmp
176.40	0.72	236	2	2	46	per	con	mod	mod	mod	tg	ht	wh/0348.bmp
177.12	0.72	237	1	2	23	per	con	low	mod	low	tg	ht	wh/0203.bmp
177.84	0.72	238	1	4	12	mem	con	mod	mod	mod	nt	ms	nh/0604_nh.bmp
178.56	0.72	239	1	2	48	per	con	mod	mod	mod	nt	cr	nh/0104_nh.bmp
179.28	0.72	240	3	4	107	per	con	low	mod	low	nt	cr	nh/0512_nh.bmp
180.00	0.72	241	2	3	109	per	lib	low	mod	low	tg	ht	wh/0236.bmp
180.72	0.72	242	3	4	28	per	con	mod	mod	mod	tg	ms	wh/0834.bmp
181.44	0.72	243	1	1	62	mem	con	mod	mod	mod	tg	ms	wh/0313.bmp
182.16	0.72	244	2	3	13	mem	con	mod	mod	low	tg	ms	wh/0283.bmp
182.88	0.72	245	2	1	62	mem	con	mod	mod	mod	tg	ms	wh/0313.bmp
183.60	0.72	246	3	2	108	mem	lib	mod	mod	mod	tg	ht	wh/0279.bmp
184.32	0.72	247	2	1	39	per	lib	mod	mod	mod	tg	ht	wh/1006.bmp
185.04	0.72	248	1	4	101	per	con	low	mod	low	nt	cr	nh/0792_nh.bmp
185.76	0.72	249	3	2	98	mem	lib	mod	mod	mod	nt	ms	nh/0137_nh.bmp
186.48	0.72	250	1	4	7	mem	con	mod	mod	mod	tg	ms	wh/0943.bmp
187.20	0.72	251	2	2	39	per	con	mod	mod	mod	nt	cr	nh/0983_nh.bmp
187.92	0.72	252	2	4	42	mem	lib	mod	mod	mod	tg	ht	wh/0806.bmp
188.64	0.72	253	3	4	42	mem	lib	mod	mod	mod	tg	ht	wh/0806.bmp
189.36	0.72	254	4	4	107	per	con	low	mod	low	nt	cr	nh/0512_nh.bmp
190.08	0.72	255	2	2	42	per	con	mod	mod	mod	nt	cr	nh/0761_nh.bmp
190.80	0.72	256	2	4	85	per	lib	mod	mod	mod	nt	fa	nh/0343_nh.bmp
191.52	0.72	257	1	1	31	per	con	low	low	low	nt	cr	nh/0783_nh.bmp
192.24	0.72	258	2	4	84	per	lib	mod	mod	mod	tg	ms	wh/0490.bmp
192.96	0.72	259	2	1	33	per	lib	mod	mod	mod	tg	ht	wh/0487.bmp
193.68	0.72	260	1	4	62	mem	con	low	low	mod	tg	ms	wh/0539.bmp
194.40	0.72	261	2	1	64	mem	con	mod	mod	mod	tg	ht	wh/0097.bmp
195.12	0.72	262	3	2	42	per	con	mod	mod	mod	nt	cr	nh/0761_nh.bmp
195.84	0.72	263	1	3	4	mem	con	mod	mod	low	tg	ht	wh/0400.bmp
196.56	0.72	264	1	1	54	mem	con	mod	mod	mod	nt	ms	nh/0799_nh.bmp
197.28	0.72	265	3	2	46	per	con	mod	mod	mod	tg	ht	wh/0348.bmp
198.00	0.72	266	3	1	33	per	lib	mod	mod	mod	tg	ht	wh/0487.bmp
198.72	0.72	267	2	1	55	mem	con	mod	mod	mod	nt	ms	nh/0628_nh.bmp
199.44	0.72	268	2	4	19	per	con	mod	mod	mod	tg	ms	wh/0344.bmp
200.16	0.72	269	3	2	104	mem	lib	mod	mod	mod	tg	ht	wh/0665.bmp
200.88	0.72	270	1	2	58	mem	lib	low	low	mod	tg	ht	wh/0616.bmp
201.60	0.72	271	4	3	100	per	lib	low	mod	low	nt	cr	nh/0523_nh.bmp
202.32	0.72	272	2	4	1	mem	con	mod	mod	mod	nt	ms	nh/0931_nh.bmp
203.04	0.72	273	1	4	115	mem	lib	low	low	low	tg	ht	wh/0743.bmp
203.76	0.72	274	1	4	81	per	lib	mod	mod	mod	tg	ht	wh/0282.bmp
204.48	0.72	275	2	2	117	mem	con	mod	mod	low	nt	ht	nh/0496_nh.bmp
205.20	0.72	276	2	4	41	mem	lib	mod	mod	mod	nt	ht	nh/0229_nh.bmp
205.92	0.72	277	3	1	35	per	lib	mod	mod	mod	nt	cr	nh/0071_nh.bmp
206.64	0.72	278	3	1	64	mem	con	mod	mod	mod	tg	ht	wh/0097.bmp
207.36	0.72	279	2	1	37	per	lib	mod	mod	mod	tg	ht	wh/0576.bmp
208.08	0.72	280	4	4	42	mem	lib	mod	mod	mod	tg	ht	wh/0806.bmp
208.80	0.72	281	1	3	92	mem	lib	low	low	mod	tg	ht	wh/0826.bmp
209.52	0.72	282	3	2	28	per	con	low	mod	low	nt	fa	nh/0661_nh.bmp
210.24	0.72	283	1	4	97	per	con	low	mod	low	tg	ms	wh/0757.bmp
210.96	0.72	284	4	2	5	per	lib	low	mod	low	tg	ht	wh/0007.bmp
211.68	0.72	285	2	3	47	mem	lib	mod	mod	low	tg	ht	wh/0081.bmp
212.40	0.72	286	1	2	91	mem	con	low	low	mod	tg	ht	wh/0773.bmp
213.12	0.72	287	1	1	115	mem	lib	low	low	low	tg	ms	wh/0160.bmp
213.84	0.72	288	4	2	28	per	con	low	mod	low	nt	fa	nh/0661_nh.bmp
214.56	0.72	289	1	1	24	per	con	low	low	low	tg	ms	wh/0161.bmp
215.28	0.72	290	2	2	34	per	con	mod	mod	mod	tg	ht	wh/0674.bmp
216.00	0.72	291	1	2	2	per	lib	low	mod	low	nt	cr	nh/0312_nh.bmp
216.72	0.72	292	4	4	13	mem	con	mod	mod	mod	tg	ms	wh/0061.bmp
217.44	0.72	293	2	3	33	mem	lib	mod	mod	low	nt	ht	nh/0166_nh.bmp
218.16	0.72	294	5	2	28	per	con	low	mod	low	nt	fa	nh/0661_nh.bmp
218.88	0.72	295	2	4	35	mem	lib	mod	mod	mod	tg	ht	wh/0479.bmp
219.60	0.72	296	1	4	118	mem	lib	low	low	low	nt	ht	nh/0356_nh.bmp
220.32	0.72	297	2	2	4	per	lib	low	mod	low	tg	ht	wh/0494.bmp
221.04	0.72	298	1	1	125	mem	lib	low	low	low	tg	ms	wh/0078.bmp
221.76	0.72	299	1	1	72	mem	con	low	low	low	tg	ms	wh/0375.bmp
222.48	0.72	300	1	1	38	per	lib	mod	mod	mod	nt	cr	nh/0901_nh.bmp
223.20	0.72	301	2	1	54	mem	con	mod	mod	mod	nt	ms	nh/0799_nh.bmp
223.92	0.72	302	3	2	117	mem	con	mod	mod	low	nt	ht	nh/0496_nh.bmp
224.64	0.72	303	3	3	13	mem	con	mod	mod	low	tg	ms	wh/0283.bmp
225.36	0.72	304	2	2	2	per	lib	low	mod	low	nt	cr	nh/0312_nh.bmp
226.08	0.72	305	4	3	2	mem	con	mod	mod	low	nt	ht	nh/0641_nh.bmp
226.80	0.72	306	3	4	47	mem	lib	mod	mod	mod	nt	ht	nh/0448_nh.bmp
227.52	0.72	307	1	1	121	mem	lib	low	low	low	nt	ht	nh/0989_nh.bmp
228.24	0.72	308	2	4	81	per	lib	mod	mod	mod	tg	ht	wh/0282.bmp
228.96	0.72	309	3	3	110	per	lib	low	mod	low	nt	cr	nh/0390_nh.bmp
229.68	0.72	310	2	2	23	per	con	low	mod	low	tg	ht	wh/0203.bmp
230.40	0.72	311	1	2	43	per	con	mod	mod	mod	tg	ht	wh/0970.bmp
231.12	0.72	312	1	4	87	per	lib	mod	mod	mod	tg	ms	wh/0753.bmp
231.84	0.72	313	3	3	40	mem	lib	mod	mod	low	nt	ht	nh/0030_nh.bmp
232.56	0.72	314	2	4	87	per	lib	mod	mod	mod	tg	ms	wh/0753.bmp
233.28	0.72	315	1	3	61	per	con	low	low	low	tg	ms	wh/0021.bmp
234.00	0.72	316	3	4	10	mem	con	mod	mod	mod	nt	ms	nh/0049_nh.bmp
234.72	0.72	317	2	4	12	mem	con	mod	mod	mod	nt	ms	nh/0604_nh.bmp
235.44	0.72	318	4	4	10	mem	con	mod	mod	mod	nt	ms	nh/0049_nh.bmp
236.16	0.72	319	1	4	74	per	lib	low	low	low	tg	ms	wh/0713.bmp
236.88	0.72	320	1	1	96	per	lib	low	low	low	tg	ht	wh/0107.bmp
237.60	0.72	321	2	1	106	mem	lib	mod	mod	low	nt	ht	nh/0459_nh.bmp
238.32	0.72	322	1	4	43	mem	lib	mod	mod	mod	tg	ht	wh/0592.bmp
239.04	0.72	323	3	1	62	mem	con	mod	mod	mod	tg	ms	wh/0313.bmp
239.76	0.72	324	4	3	13	mem	con	mod	mod	low	tg	ms	wh/0283.bmp
240.48	0.72	325	3	4	26	per	con	mod	mod	mod	nt	cr	nh/0477_nh.bmp
241.20	0.72	326	2	2	127	mem	con	mod	mod	low	tg	ht	wh/0422.bmp
241.92	0.72	327	5	4	10	mem	con	mod	mod	mod	nt	ms	nh/0049_nh.bmp
242.64	0.72	328	2	1	105	mem	lib	mod	mod	low	tg	ht	wh/0914.bmp
243.36	0.72	329	5	3	100	per	lib	low	mod	low	nt	cr	nh/0523_nh.bmp
244.08	0.72	330	2	3	36	mem	lib	mod	mod	low	nt	ht	nh/0246_nh.bmp
244.80	0.72	331	1	4	54	mem	con	low	low	mod	nt	ms	nh/0346_nh.bmp
245.52	0.72	332	2	1	38	per	lib	mod	mod	mod	nt	cr	nh/0901_nh.bmp
246.24	0.72	333	3	2	100	mem	lib	mod	mod	mod	nt	ht	nh/0796_nh.bmp
246.96	0.72	334	2	4	88	per	lib	mod	mod	mod	nt	cr	nh/0538_nh.bmp
247.68	0.72	335	2	4	7	mem	con	mod	mod	mod	tg	ms	wh/0943.bmp
248.40	0.72	336	3	2	115	mem	con	mod	mod	low	tg	ht	wh/0259.bmp
249.12	0.72	337	2	4	97	per	con	low	mod	low	tg	ms	wh/0757.bmp
249.84	0.72	338	3	2	127	mem	con	mod	mod	low	tg	ht	wh/0422.bmp
250.56	0.72	339	3	2	24	per	con	low	mod	low	nt	cr	nh/0988_nh.bmp
251.28	0.72	340	3	4	1	mem	con	mod	mod	mod	nt	ms	nh/0931_nh.bmp
252.00	0.72	341	3	1	103	mem	lib	mod	mod	low	tg	ht	wh/0554.bmp
252.72	0.72	342	3	1	57	mem	con	mod	mod	mod	nt	ht	nh/0333_nh.bmp
253.44	0.72	343	4	2	115	mem	con	mod	mod	low	tg	ht	wh/0259.bmp
254.16	0.72	344	2	4	43	mem	lib	mod	mod	mod	tg	ht	wh/0592.bmp
254.88	0.72	345	3	1	102	mem	lib	mod	mod	low	nt	ht	nh/0293_nh.bmp
255.60	0.72	346	4	3	40	mem	lib	mod	mod	low	nt	ht	nh/0030_nh.bmp
256.32	0.72	347	4	4	28	per	con	mod	mod	mod	tg	ms	wh/0834.bmp
257.04	0.72	348	2	2	113	mem	con	mod	mod	low	nt	ms	nh/0212_nh.bmp
257.76	0.72	349	3	1	39	per	lib	mod	mod	mod	tg	ht	wh/1006.bmp
258.48	0.72	350	5	4	42	mem	lib	mod	mod	mod	tg	ht	wh/0806.bmp
259.20	0.72	351	3	1	38	per	lib	mod	mod	mod	nt	cr	nh/0901_nh.bmp
259.92	0.72	352	3	1	55	mem	con	mod	mod	mod	nt	ms	nh/0628_nh.bmp
260.64	0.72	353	2	4	37	mem	lib	mod	mod	mod	nt	ht	nh/0664_nh.bmp
261.36	0.72	354	1	1	61	mem	con	mod	mod	mod	tg	ms	wh/0359.bmp
262.08	0.72	355	1	1	95	per	lib	low	low	low	nt	cr	nh/0363_nh.bmp
262.80	0.72	356	1	2	67	per	lib	mod	low	mod	nt	cr	nh/0944_nh.bmp
263.52	0.72	357	2	2	124	mem	con	mod	mod	low	tg	ms	wh/0672.bmp
264.24	0.72	358	1	3	51	per	con	low	low	low	tg	ht	wh/0271.bmp
264.96	0.72	359	4	2	117	mem	con	mod	mod	low	nt	ht	nh/0496_nh.bmp
265.68	0.72	360	3	4	35	mem	lib	mod	mod	mod	tg	ht	wh/0479.bmp
266.40	0.72	361	2	4	101	per	con	low	mod	low	nt	cr	nh/0792_nh.bmp
267.12	0.72	362	2	2	16	per	lib	low	mod	low	nt	cr	nh/0415_nh.bmp
267.84	0.72	363	1	2	13	per	lib	low	mod	low	tg	ht	wh/0791.bmp
268.56	0.72	364	1	4	96	per	lib	mod	mod	mod	nt	fa	nh/0705_nh.bmp
269.28	0.72	365	4	1	64	mem	con	mod	mod	mod	tg	ht	wh/0097.bmp
270.00	0.72	366	1	1	12	per	con	mod	low	mod	tg	ht	wh/0813.bmp
270.72	0.72	367	3	2	124	mem	con	mod	mod	low	tg	ms	wh/0672.bmp
271.44	0.72	368	2	2	11	per	lib	low	mod	low	tg	ms	wh/1013.bmp
272.16	0.72	369	3	3	101	per	lib	low	mod	low	tg	ms	wh/0798.bmp
272.88	0.72	370	3	4	85	per	lib	mod	mod	mod	nt	fa	nh/0343_nh.bmp
273.60	0.72	371	3	4	87	per	lib	mod	mod	mod	tg	ms	wh/0753.bmp
274.32	0.72	372	5	2	36	per	con	mod	mod	mod	nt	fa	nh/0413_nh.bmp
275.04	0.72	373	3	4	90	per	lib	mod	mod	mod	nt	cr	nh/0151_nh.bmp
275.76	0.72	374	4	2	128	mem	con	mod	mod	low	nt	ht	nh/0302_nh.bmp
276.48	0.72	375	4	1	41	per	lib	mod	mod	mod	nt	fa	nh/0742_nh.bmp
277.20	0.72	376	3	4	105	per	con	low	mod	low	tg	ms	wh/0067.bmp
277.92	0.72	377	3	2	11	per	lib	low	mod	low	tg	ms	wh/1013.bmp
278.64	0.72	378	2	4	5	mem	con	mod	mod	mod	tg	ht	wh/0427.bmp
279.36	0.72	379	4	2	24	per	con	low	mod	low	nt	cr	nh/0988_nh.bmp
280.08	0.72	380	3	2	23	per	con	low	mod	low	tg	ht	wh/0203.bmp
280.80	0.72	381	4	1	103	mem	lib	mod	mod	low	tg	ht	wh/0554.bmp
281.52	0.72	382	4	2	118	mem	con	mod	mod	low	nt	ms	nh/0882_nh.bmp
282.24	0.72	383	2	3	14	mem	con	mod	mod	low	tg	ms	wh/0195.bmp
282.96	0.72	384	3	2	113	mem	con	mod	mod	low	nt	ms	nh/0212_nh.bmp
283.68	0.72	385	2	2	25	per	con	low	mod	low	nt	fa	nh/0124_nh.bmp
284.40	0.72	386	4	2	11	per	lib	low	mod	low	tg	ms	wh/1013.bmp
285.12	0.72	387	3	2	39	per	con	mod	mod	mod	nt	cr	nh/0983_nh.bmp
285.84	0.72	388	2	4	27	per	con	mod	mod	mod	nt	fa	nh/0809_nh.bmp
286.56	0.72	389	5	3	2	mem	con	mod	mod	low	nt	ht	nh/0641_nh.bmp
287.28	0.72	390	3	1	101	mem	lib	mod	mod	low	nt	ht	nh/0263_nh.bmp
288.00	0.72	391	2	4	20	per	con	mod	mod	mod	tg	ms	wh/0759.bmp
288.72	0.72	392	2	2	43	per	con	mod	mod	mod	tg	ht	wh/0970.bmp
289.44	0.72	393	3	3	108	per	lib	low	mod	low	tg	ms	wh/0424.bmp
290.16	0.72	394	2	1	48	per	lib	mod	mod	mod	tg	ht	wh/1010.bmp
290.88	0.72	395	3	1	106	mem	lib	mod	mod	low	nt	ht	nh/0459_nh.bmp
291.60	0.72	396	4	4	31	per	con	mod	mod	mod	nt	cr	nh/0861_nh.bmp
292.32	0.72	397	1	2	107	mem	lib	mod	mod	mod	tg	ht	wh/0645.bmp
293.04	0.72	398	5	2	117	mem	con	mod	mod	low	nt	ht	nh/0496_nh.bmp
293.76	0.72	399	4	2	47	per	con	mod	mod	mod	tg	ht	wh/0583.bmp
294.48	0.72	400	2	2	13	per	lib	low	mod	low	tg	ht	wh/0791.bmp
295.20	0.72	401	4	4	87	per	lib	mod	mod	mod	tg	ms	wh/0753.bmp
295.92	0.72	402	1	3	46	mem	lib	mod	mod	low	tg	ht	wh/0575.bmp
296.64	0.72	403	3	1	105	mem	lib	mod	mod	low	tg	ht	wh/0914.bmp
297.36	0.72	404	2	1	34	per	lib	mod	mod	mod	nt	fa	nh/0320_nh.bmp
298.08	0.72	405	3	4	41	mem	lib	mod	mod	mod	nt	ht	nh/0229_nh.bmp
298.80	0.72	406	3	4	7	mem	con	mod	mod	mod	tg	ms	wh/0943.bmp
299.52	0.72	407	2	3	37	mem	lib	mod	mod	low	tg	ht	wh/0315.bmp
300.24	0.72	408	3	1	112	mem	lib	mod	mod	low	tg	ht	wh/0765.bmp
300.96	0.72	409	3	2	111	mem	lib	mod	mod	mod	nt	ht	nh/0738_nh.bmp
301.68	0.72	410	4	2	104	mem	lib	mod	mod	mod	tg	ht	wh/0665.bmp
302.40	0.72	411	1	4	49	mem	con	low	low	mod	nt	ms	nh/0993_nh.bmp
303.12	0.72	412	3	1	37	per	lib	mod	mod	mod	tg	ht	wh/0576.bmp
303.84	0.72	413	4	2	23	per	con	low	mod	low	tg	ht	wh/0203.bmp
304.56	0.72	414	3	2	29	per	con	low	mod	low	nt	cr	nh/0511_nh.bmp
305.28	0.72	415	4	4	7	mem	con	mod	mod	mod	tg	ms	wh/0943.bmp
306.00	0.72	416	2	3	106	per	lib	low	mod	low	tg	ht	wh/0615.bmp
306.72	0.72	417	3	3	33	mem	lib	mod	mod	low	nt	ht	nh/0166_nh.bmp
307.44	0.72	418	4	1	102	mem	lib	mod	mod	low	nt	ht	nh/0293_nh.bmp
308.16	0.72	419	1	2	89	mem	con	low	low	mod	nt	ms	nh/0069_nh.bmp
308.88	0.72	420	3	4	37	mem	lib	mod	mod	mod	nt	ht	nh/0664_nh.bmp
309.60	0.72	421	3	4	92	per	lib	mod	mod	mod	tg	ht	wh/0445.bmp
310.32	0.72	422	4	4	108	per	con	low	mod	low	tg	ms	wh/0643.bmp
311.04	0.72	423	2	2	21	per	con	low	mod	low	tg	ms	wh/0323.bmp
311.76	0.72	424	5	2	23	per	con	low	mod	low	tg	ht	wh/0203.bmp
312.48	0.72	425	3	4	84	per	lib	mod	mod	mod	tg	ms	wh/0490.bmp
313.20	0.72	426	4	2	42	per	con	mod	mod	mod	nt	cr	nh/0761_nh.bmp
313.92	0.72	427	3	4	88	per	lib	mod	mod	mod	nt	cr	nh/0538_nh.bmp
314.64	0.72	428	4	3	101	per	lib	low	mod	low	tg	ms	wh/0798.bmp
315.36	0.72	429	3	4	5	mem	con	mod	mod	mod	tg	ht	wh/0427.bmp
316.08	0.72	430	4	4	37	mem	lib	mod	mod	mod	nt	ht	nh/0664_nh.bmp
316.80	0.72	431	5	3	97	per	lib	low	mod	low	nt	cr	nh/0291_nh.bmp
317.52	0.72	432	4	4	26	per	con	mod	mod	mod	nt	cr	nh/0477_nh.bmp
318.24	0.72	433	2	3	46	mem	lib	mod	mod	low	tg	ht	wh/0575.bmp
318.96	0.72	434	3	2	2	per	lib	low	mod	low	nt	cr	nh/0312_nh.bmp
319.68	0.72	435	2	1	110	mem	lib	mod	mod	low	nt	ht	nh/0412_nh.bmp
320.40	0.72	436	2	2	48	per	con	mod	mod	mod	nt	cr	nh/0104_nh.bmp
321.12	0.72	437	2	4	96	per	lib	mod	mod	mod	nt	fa	nh/0705_nh.bmp
321.84	0.72	438	3	2	25	per	con	low	mod	low	nt	fa	nh/0124_nh.bmp
322.56	0.72	439	4	4	84	per	lib	mod	mod	mod	tg	ms	wh/0490.bmp
323.28	0.72	440	3	3	42	mem	lib	mod	mod	low	tg	ms	wh/0509.bmp
324.00	0.72	441	1	1	87	per	lib	low	low	low	nt	cr	nh/0245_nh.bmp
324.72	0.72	442	4	1	105	mem	lib	mod	mod	low	tg	ht	wh/0914.bmp
325.44	0.72	443	4	4	90	per	lib	mod	mod	mod	nt	cr	nh/0151_nh.bmp
326.16	0.72	444	4	2	127	mem	con	mod	mod	low	tg	ht	wh/0422.bmp
326.88	0.72	445	4	2	108	mem	lib	mod	mod	mod	tg	ht	wh/0279.bmp
327.60	0.72	446	1	1	25	per	con	low	low	low	nt	fa	nh/0110_nh.bmp
328.32	0.72	447	4	3	108	per	lib	low	mod	low	tg	ms	wh/0424.bmp
329.04	0.72	448	5	4	90	per	lib	mod	mod	mod	nt	cr	nh/0151_nh.bmp
329.76	0.72	449	3	3	37	mem	lib	mod	mod	low	tg	ht	wh/0315.bmp
330.48	0.72	450	2	4	3	mem	con	mod	mod	mod	nt	ms	nh/0365_nh.bmp
331.20	0.72	451	5	1	103	mem	lib	mod	mod	low	tg	ht	wh/0554.bmp
331.92	0.72	452	4	2	29	per	con	low	mod	low	nt	cr	nh/0511_nh.bmp
332.64	0.72	453	4	2	2	per	lib	low	mod	low	nt	cr	nh/0312_nh.bmp
333.36	0.72	454	3	3	36	mem	lib	mod	mod	low	nt	ht	nh/0246_nh.bmp
334.08	0.72	455	3	2	15	per	lib	low	mod	low	nt	fa	nh/0444_nh.bmp
334.80	0.72	456	2	1	58	mem	con	mod	mod	mod	tg	ht	wh/0331.bmp
335.52	0.72	457	1	1	86	per	lib	low	low	low	tg	ht	wh/0504.bmp
336.24	0.72	458	4	4	47	mem	lib	mod	mod	mod	nt	ht	nh/0448_nh.bmp
336.96	0.72	459	1	2	55	mem	lib	low	low	mod	nt	ht	nh/0003_nh.bmp
337.68	0.72	460	5	4	102	per	con	low	mod	low	tg	ht	wh/0174.bmp
338.40	0.72	461	5	2	42	per	con	mod	mod	mod	nt	cr	nh/0761_nh.bmp
339.12	0.72	462	6	4	42	mem	lib	mod	mod	mod	tg	ht	wh/0806.bmp
339.84	0.72	463	3	2	43	per	con	mod	mod	mod	tg	ht	wh/0970.bmp
340.56	0.72	464	1	3	81	mem	lib	low	low	mod	nt	ht	nh/0317_nh.bmp
341.28	0.72	465	3	1	54	mem	con	mod	mod	mod	nt	ms	nh/0799_nh.bmp
342.00	0.72	466	1	1	70	mem	con	low	low	low	tg	ms	wh/0911.bmp
342.72	0.72	467	4	1	37	per	lib	mod	mod	mod	tg	ht	wh/0576.bmp
343.44	0.72	468	6	3	2	mem	con	mod	mod	low	nt	ht	nh/0641_nh.bmp
344.16	0.72	469	4	4	106	per	con	low	mod	low	nt	cr	nh/0976_nh.bmp
344.88	0.72	470	4	4	41	mem	lib	mod	mod	mod	nt	ht	nh/0229_nh.bmp
345.60	0.72	471	4	2	25	per	con	low	mod	low	nt	fa	nh/0124_nh.bmp
346.32	0.72	472	3	3	6	mem	con	mod	mod	low	tg	ht	wh/1000.bmp
347.04	0.72	473	5	4	39	mem	lib	mod	mod	mod	tg	ht	wh/0689.bmp
347.76	0.72	474	4	3	37	mem	lib	mod	mod	low	tg	ht	wh/0315.bmp
348.48	0.72	475	3	2	109	mem	lib	mod	mod	mod	tg	ht	wh/0925.bmp
349.20	0.72	476	4	1	55	mem	con	mod	mod	mod	nt	ms	nh/0628_nh.bmp
349.92	0.72	477	3	3	8	mem	con	mod	mod	low	nt	ms	nh/0703_nh.bmp
350.64	0.72	478	6	2	23	per	con	low	mod	low	tg	ht	wh/0203.bmp
351.36	0.72	479	2	1	111	mem	lib	mod	mod	low	tg	ht	wh/0438.bmp
352.08	0.72	480	2	2	18	per	con	low	mod	low	tg	ms	wh/0386.bmp
352.80	0.72	481	3	4	96	per	lib	mod	mod	mod	nt	fa	nh/0705_nh.bmp
353.52	0.72	482	5	2	2	per	lib	low	mod	low	nt	cr	nh/0312_nh.bmp
354.24	0.72	483	3	4	12	mem	con	mod	mod	mod	nt	ms	nh/0604_nh.bmp
354.96	0.72	484	5	4	106	per	con	low	mod	low	nt	cr	nh/0976_nh.bmp
355.68	0.72	485	3	2	48	per	con	mod	mod	mod	nt	cr	nh/0104_nh.bmp
356.40	0.72	486	3	4	6	mem	con	mod	mod	mod	tg	ms	wh/0072.bmp
357.12	0.72	487	3	2	21	per	con	low	mod	low	tg	ms	wh/0323.bmp
357.84	0.72	488	3	4	81	per	lib	mod	mod	mod	tg	ht	wh/0282.bmp
358.56	0.72	489	2	2	107	mem	lib	mod	mod	mod	tg	ht	wh/0645.bmp
359.28	0.72	490	3	4	27	per	con	mod	mod	mod	nt	fa	nh/0809_nh.bmp
360.00	0.72	491	4	4	1	mem	con	mod	mod	mod	nt	ms	nh/0931_nh.bmp
360.72	0.72	492	3	3	109	per	lib	low	mod	low	tg	ht	wh/0236.bmp
361.44	0.72	493	5	2	30	per	con	low	mod	low	tg	ms	wh/0368.bmp
362.16	0.72	494	4	3	36	mem	lib	mod	mod	low	nt	ht	nh/0246_nh.bmp
362.88	0.72	495	3	2	4	per	lib	low	mod	low	tg	ht	wh/0494.bmp
363.60	0.72	496	4	2	43	per	con	mod	mod	mod	tg	ht	wh/0970.bmp
364.32	0.72	497	4	2	15	per	lib	low	mod	low	nt	fa	nh/0444_nh.bmp
365.04	0.72	498	4	1	38	per	lib	mod	mod	mod	nt	cr	nh/0901_nh.bmp
365.76	0.72	499	4	4	6	mem	con	mod	mod	mod	tg	ms	wh/0072.bmp
366.48	0.72	500	5	3	13	mem	con	mod	mod	low	tg	ms	wh/0283.bmp
367.20	0.72	501	3	2	107	mem	lib	mod	mod	mod	tg	ht	wh/0645.bmp
367.92	0.72	502	1	1	11	per	con	mod	low	mod	tg	ht	wh/0050.bmp
368.64	0.72	503	3	3	106	per	lib	low	mod	low	tg	ht	wh/0615.bmp
369.36	0.72	504	5	3	40	mem	lib	mod	mod	low	nt	ht	nh/0030_nh.bmp
370.08	0.72	505	1	2	59	mem	lib	low	low	mod	tg	ms	wh/0891.bmp
370.80	0.72	506	5	3	101	per	lib	low	mod	low	tg	ms	wh/0798.bmp
371.52	0.72	507	3	1	58	mem	con	mod	mod	mod	tg	ht	wh/0331.bmp
372.24	0.72	508	3	2	13	per	lib	low	mod	low	tg	ht	wh/0791.bmp
372.96	0.72	509	4	1	54	mem	con	mod	mod	mod	nt	ms	nh/0799_nh.bmp
373.68	0.72	510	1	4	34	mem	lib	mod	mod	mod	nt	ht	nh/0895_nh.bmp
374.40	0.72	511	3	4	19	per	con	mod	mod	mod	tg	ms	wh/0344.bmp
375.12	0.72	512	4	2	111	mem	lib	mod	mod	mod	nt	ht	nh/0738_nh.bmp
375.84	0.72	513	4	3	33	mem	lib	mod	mod	low	nt	ht	nh/0166_nh.bmp
376.56	0.72	514	5	4	87	per	lib	mod	mod	mod	tg	ms	wh/0753.bmp
377.28	0.72	515	3	1	48	per	lib	mod	mod	mod	tg	ht	wh/1010.bmp
378.00	0.72	516	4	2	13	per	lib	low	mod	low	tg	ht	wh/0791.bmp
378.72	0.72	517	1	3	19	per	lib	mod	low	mod	nt	cr	nh/0457_nh.bmp
379.44	0.72	518	4	1	58	mem	con	mod	mod	mod	tg	ht	wh/0331.bmp
380.16	0.72	519	4	1	106	mem	lib	mod	mod	low	nt	ht	nh/0459_nh.bmp
380.88	0.72	520	3	1	34	per	lib	mod	mod	mod	nt	fa	nh/0320_nh.bmp
381.60	0.72	521	4	2	39	per	con	mod	mod	mod	nt	cr	nh/0983_nh.bmp
382.32	0.72	522	5	2	25	per	con	low	mod	low	nt	fa	nh/0124_nh.bmp
383.04	0.72	523	5	2	47	per	con	mod	mod	mod	tg	ht	wh/0583.bmp
383.76	0.72	524	4	4	92	per	lib	mod	mod	mod	tg	ht	wh/0445.bmp
384.48	0.72	525	5	1	58	mem	con	mod	mod	mod	tg	ht	wh/0331.bmp
385.20	0.72	526	4	2	100	mem	lib	mod	mod	mod	nt	ht	nh/0796_nh.bmp
385.92	0.72	527	5	2	104	mem	lib	mod	mod	mod	tg	ht	wh/0665.bmp
386.64	0.72	528	5	4	108	per	con	low	mod	low	tg	ms	wh/0643.bmp
387.36	0.72	529	3	1	111	mem	lib	mod	mod	low	tg	ht	wh/0438.bmp
388.08	0.72	530	4	4	19	per	con	mod	mod	mod	tg	ms	wh/0344.bmp
388.80	0.72	531	5	2	11	per	lib	low	mod	low	tg	ms	wh/1013.bmp
389.52	0.72	532	4	4	104	per	con	low	mod	low	nt	cr	nh/0683_nh.bmp
390.24	0.72	533	6	3	97	per	lib	low	mod	low	nt	cr	nh/0291_nh.bmp
390.96	0.72	534	5	2	29	per	con	low	mod	low	nt	cr	nh/0511_nh.bmp
391.68	0.72	535	5	4	26	per	con	mod	mod	mod	nt	cr	nh/0477_nh.bmp
392.40	0.72	536	3	3	46	mem	lib	mod	mod	low	tg	ht	wh/0575.bmp
393.12	0.72	537	5	4	19	per	con	mod	mod	mod	tg	ms	wh/0344.bmp
393.84	0.72	538	4	1	39	per	lib	mod	mod	mod	tg	ht	wh/1006.bmp
394.56	0.72	539	4	3	42	mem	lib	mod	mod	low	tg	ms	wh/0509.bmp
395.28	0.72	540	3	3	47	mem	lib	mod	mod	low	tg	ht	wh/0081.bmp
396.00	0.72	541	4	4	88	per	lib	mod	mod	mod	nt	cr	nh/0538_nh.bmp
396.72	0.72	542	6	4	87	per	lib	mod	mod	mod	tg	ms	wh/0753.bmp
397.44	0.72	543	4	2	98	mem	lib	mod	mod	mod	nt	ms	nh/0137_nh.bmp
398.16	0.72	544	3	3	107	per	lib	low	mod	low	nt	fa	nh/0131_nh.bmp
398.88	0.72	545	6	2	28	per	con	low	mod	low	nt	fa	nh/0661_nh.bmp
399.60	0.72	546	1	3	30	per	lib	mod	low	mod	nt	cr	nh/0726_nh.bmp
400.32	0.72	547	1	4	68	per	lib	low	low	low	tg	ms	wh/0500.bmp
401.04	0.72	548	3	3	12	mem	con	mod	mod	low	nt	ms	nh/0132_nh.bmp
401.76	0.72	549	3	1	110	mem	lib	mod	mod	low	nt	ht	nh/0412_nh.bmp
402.48	0.72	550	3	4	43	mem	lib	mod	mod	mod	tg	ht	wh/0592.bmp
403.20	0.72	551	4	4	81	per	lib	mod	mod	mod	tg	ht	wh/0282.bmp
403.92	0.72	552	5	1	55	mem	con	mod	mod	mod	nt	ms	nh/0628_nh.bmp
404.64	0.72	553	4	2	107	mem	lib	mod	mod	mod	tg	ht	wh/0645.bmp
405.36	0.72	554	5	4	47	mem	lib	mod	mod	mod	nt	ht	nh/0448_nh.bmp
406.08	0.72	555	5	1	39	per	lib	mod	mod	mod	tg	ht	wh/1006.bmp
406.80	0.72	556	6	2	25	per	con	low	mod	low	nt	fa	nh/0124_nh.bmp
407.52	0.72	557	1	1	1	per	con	mod	low	mod	tg	ht	wh/0555.bmp
408.24	0.72	558	2	3	4	mem	con	mod	mod	low	tg	ht	wh/0400.bmp
408.96	0.72	559	1	1	18	per	con	low	low	low	nt	cr	nh/0327_nh.bmp
409.68	0.72	560	3	3	4	mem	con	mod	mod	low	tg	ht	wh/0400.bmp
410.40	0.72	561	3	4	20	per	con	mod	mod	mod	tg	ms	wh/0759.bmp
411.12	0.72	562	5	3	37	mem	lib	mod	mod	low	tg	ht	wh/0315.bmp
411.84	0.72	563	1	4	18	per	con	mod	mod	mod	nt	cr	nh/0039_nh.bmp
412.56	0.72	564	5	1	64	mem	con	mod	mod	mod	tg	ht	wh/0097.bmp
413.28	0.72	565	4	1	111	mem	lib	mod	mod	low	tg	ht	wh/0438.bmp
414.00	0.72	566	5	1	54	mem	con	mod	mod	mod	nt	ms	nh/0799_nh.bmp
414.72	0.72	567	4	3	110	per	lib	low	mod	low	nt	cr	nh/0390_nh.bmp
415.44	0.72	568	2	4	18	per	con	mod	mod	mod	nt	cr	nh/0039_nh.bmp
416.16	0.72	569	3	3	14	mem	con	mod	mod	low	tg	ms	wh/0195.bmp
416.88	0.72	570	3	2	18	per	con	low	mod	low	tg	ms	wh/0386.bmp
417.60	0.72	571	5	3	110	per	lib	low	mod	low	nt	cr	nh/0390_nh.bmp
418.32	0.72	572	4	2	113	mem	con	mod	mod	low	nt	ms	nh/0212_nh.bmp
419.04	0.72	573	3	4	97	per	con	low	mod	low	tg	ms	wh/0757.bmp
419.76	0.72	574	4	2	48	per	con	mod	mod	mod	nt	cr	nh/0104_nh.bmp
420.48	0.72	575	5	4	13	mem	con	mod	mod	mod	tg	ms	wh/0061.bmp
421.20	0.72	576	6	3	110	per	lib	low	mod	low	nt	cr	nh/0390_nh.bmp
421.92	0.72	577	5	4	107	per	con	low	mod	low	nt	cr	nh/0512_nh.bmp
422.64	0.72	578	4	4	105	per	con	low	mod	low	tg	ms	wh/0067.bmp
423.36	0.72	579	3	4	101	per	con	low	mod	low	nt	cr	nh/0792_nh.bmp
424.08	0.72	580	5	3	33	mem	lib	mod	mod	low	nt	ht	nh/0166_nh.bmp
424.80	0.72	581	4	1	112	mem	lib	mod	mod	low	tg	ht	wh/0765.bmp
425.52	0.72	582	1	3	68	mem	con	low	low	low	nt	ms	nh/0808_nh.bmp
426.24	0.72	583	5	1	41	per	lib	mod	mod	mod	nt	fa	nh/0742_nh.bmp
426.96	0.72	584	2	1	61	mem	con	mod	mod	mod	tg	ms	wh/0359.bmp
427.68	0.72	585	1	3	73	mem	con	low	low	low	tg	ms	wh/0720.bmp
428.40	0.72	586	3	2	14	per	lib	low	mod	low	nt	cr	nh/0295_nh.bmp
429.12	0.72	587	3	4	18	per	con	mod	mod	mod	nt	cr	nh/0039_nh.bmp
429.84	0.72	588	3	4	25	per	con	mod	mod	mod	tg	ht	wh/0358.bmp
430.56	0.72	589	1	2	50	mem	lib	low	low	mod	tg	ht	wh/0567.bmp
431.28	0.72	590	2	4	34	mem	lib	mod	mod	mod	nt	ht	nh/0895_nh.bmp
432.00	0.72	591	5	2	107	mem	lib	mod	mod	mod	tg	ht	wh/0645.bmp
432.72	0.72	592	3	3	10	mem	con	mod	mod	low	nt	ms	nh/0454_nh.bmp
433.44	0.72	593	5	2	115	mem	con	mod	mod	low	tg	ht	wh/0259.bmp
434.16	0.72	594	6	1	41	per	lib	mod	mod	mod	nt	fa	nh/0742_nh.bmp
434.88	0.72	595	4	2	124	mem	con	mod	mod	low	tg	ms	wh/0672.bmp
435.60	0.72	596	4	2	102	mem	lib	mod	mod	mod	nt	ht	nh/0961_nh.bmp
436.32	0.72	597	5	2	124	mem	con	mod	mod	low	tg	ms	wh/0672.bmp
437.04	0.72	598	5	2	108	mem	lib	mod	mod	mod	tg	ht	wh/0279.bmp
437.76	0.72	599	6	2	30	per	con	low	mod	low	tg	ms	wh/0368.bmp
438.48	0.72	600	4	3	46	mem	lib	mod	mod	low	tg	ht	wh/0575.bmp
439.20	0.72	601	4	4	101	per	con	low	mod	low	nt	cr	nh/0792_nh.bmp
439.92	0.72	602	3	1	61	mem	con	mod	mod	mod	tg	ms	wh/0359.bmp
440.64	0.72	603	4	2	46	per	con	mod	mod	mod	tg	ht	wh/0348.bmp
441.36	0.72	604	1	4	64	mem	con	low	low	mod	tg	ms	wh/0667.bmp
442.08	0.72	605	1	1	80	mem	con	low	low	low	nt	ms	nh/0184_nh.bmp
442.80	0.72	606	6	2	124	mem	con	mod	mod	low	tg	ms	wh/0672.bmp
443.52	0.72	607	1	1	15	per	con	mod	low	mod	nt	cr	nh/0913_nh.bmp
444.24	0.72	608	6	2	107	mem	lib	mod	mod	mod	tg	ht	wh/0645.bmp
444.96	0.72	609	5	3	42	mem	lib	mod	mod	low	tg	ms	wh/0509.bmp
445.68	0.72	610	4	4	43	mem	lib	mod	mod	mod	tg	ht	wh/0592.bmp
446.40	0.72	611	3	4	34	mem	lib	mod	mod	mod	nt	ht	nh/0895_nh.bmp
447.12	0.72	612	5	2	113	mem	con	mod	mod	low	nt	ms	nh/0212_nh.bmp
447.84	0.72	613	5	4	31	per	con	mod	mod	mod	nt	cr	nh/0861_nh.bmp
448.56	0.72	614	5	2	100	mem	lib	mod	mod	mod	nt	ht	nh/0796_nh.bmp
449.28	0.72	615	4	4	85	per	lib	mod	mod	mod	nt	fa	nh/0343_nh.bmp
450.00	0.72	616	5	4	88	per	lib	mod	mod	mod	nt	cr	nh/0538_nh.bmp
450.72	0.72	617	5	2	43	per	con	mod	mod	mod	tg	ht	wh/0970.bmp
451.44	0.72	618	1	4	117	mem	lib	low	low	low	nt	ms	nh/1003_nh.bmp
452.16	0.72	619	4	3	6	mem	con	mod	mod	low	tg	ht	wh/1000.bmp
452.88	0.72	620	4	4	18	per	con	mod	mod	mod	nt	cr	nh/0039_nh.bmp
453.60	0.72	621	6	3	100	per	lib	low	mod	low	nt	cr	nh/0523_nh.bmp
454.32	0.72	622	5	4	37	mem	lib	mod	mod	mod	nt	ht	nh/0664_nh.bmp
455.04	0.72	623	4	2	18	per	con	low	mod	low	tg	ms	wh/0386.bmp
455.76	0.72	624	1	4	116	mem	lib	low	low	low	tg	ms	wh/0243.bmp
456.48	0.72	625	4	1	61	mem	con	mod	mod	mod	tg	ms	wh/0359.bmp
457.20	0.72	626	4	3	12	mem	con	mod	mod	low	nt	ms	nh/0132_nh.bmp
457.92	0.72	627	5	4	28	per	con	mod	mod	mod	tg	ms	wh/0834.bmp
458.64	0.72	628	3	2	16	per	lib	low	mod	low	nt	cr	nh/0415_nh.bmp
459.36	0.72	629	1	2	79	per	lib	mod	low	mod	tg	ht	wh/0858.bmp
460.08	0.72	630	4	3	109	per	lib	low	mod	low	tg	ht	wh/0236.bmp
460.80	0.72	631	5	3	109	per	lib	low	mod	low	tg	ht	wh/0236.bmp
461.52	0.72	632	4	3	8	mem	con	mod	mod	low	nt	ms	nh/0703_nh.bmp
462.24	0.72	633	4	2	21	per	con	low	mod	low	tg	ms	wh/0323.bmp
462.96	0.72	634	1	4	70	per	lib	low	low	low	tg	ht	wh/0171.bmp
463.68	0.72	635	4	1	33	per	lib	mod	mod	mod	tg	ht	wh/0487.bmp
464.40	0.72	636	1	3	95	mem	lib	low	low	mod	tg	ht	wh/0644.bmp
465.12	0.72	637	4	1	101	mem	lib	mod	mod	low	nt	ht	nh/0263_nh.bmp
465.84	0.72	638	5	3	12	mem	con	mod	mod	low	nt	ms	nh/0132_nh.bmp
466.56	0.72	639	5	3	6	mem	con	mod	mod	low	tg	ht	wh/1000.bmp
467.28	0.72	640	6	4	106	per	con	low	mod	low	nt	cr	nh/0976_nh.bmp
468.00	0.72	641	5	3	8	mem	con	mod	mod	low	nt	ms	nh/0703_nh.bmp
468.72	0.72	642	4	4	20	per	con	mod	mod	mod	tg	ms	wh/0759.bmp
469.44	0.72	643	5	3	36	mem	lib	mod	mod	low	nt	ht	nh/0246_nh.bmp
470.16	0.72	644	6	3	42	mem	lib	mod	mod	low	tg	ms	wh/0509.bmp
470.88	0.72	645	1	4	67	per	lib	low	low	low	nt	fa	nh/0117_nh.bmp
471.60	0.72	646	1	2	51	mem	lib	low	low	mod	nt	ms	nh/0033_nh.bmp
472.32	0.72	647	4	4	35	mem	lib	mod	mod	mod	tg	ht	wh/0479.bmp
473.04	0.72	648	5	4	104	per	con	low	mod	low	nt	cr	nh/0683_nh.bmp
473.76	0.72	649	5	3	46	mem	lib	mod	mod	low	tg	ht	wh/0575.bmp
474.48	0.72	650	4	3	107	per	lib	low	mod	low	nt	fa	nh/0131_nh.bmp
475.20	0.72	651	6	2	115	mem	con	mod	mod	low	tg	ht	wh/0259.bmp
475.92	0.72	652	4	1	35	per	lib	mod	mod	mod	nt	cr	nh/0071_nh.bmp
476.64	0.72	653	5	2	127	mem	con	mod	mod	low	tg	ht	wh/0422.bmp
477.36	0.72	654	4	3	35	mem	lib	mod	mod	low	nt	ms	nh/0410_nh.bmp
478.08	0.72	655	5	1	38	per	lib	mod	mod	mod	nt	cr	nh/0901_nh.bmp
478.80	0.72	656	6	3	40	mem	lib	mod	mod	low	nt	ht	nh/0030_nh.bmp
479.52	0.72	657	5	1	105	mem	lib	mod	mod	low	tg	ht	wh/0914.bmp
480.24	0.72	658	5	3	107	per	lib	low	mod	low	nt	fa	nh/0131_nh.bmp
480.96	0.72	659	6	3	36	mem	lib	mod	mod	low	nt	ht	nh/0246_nh.bmp
481.68	0.72	660	6	1	54	mem	con	mod	mod	mod	nt	ms	nh/0799_nh.bmp
482.40	0.72	661	1	3	55	per	con	low	low	low	nt	cr	nh/0632_nh.bmp
483.12	0.72	662	5	1	106	mem	lib	mod	mod	low	nt	ht	nh/0459_nh.bmp
483.84	0.72	663	5	1	102	mem	lib	mod	mod	low	nt	ht	nh/0293_nh.bmp
484.56	0.72	664	5	4	7	mem	con	mod	mod	mod	tg	ms	wh/0943.bmp
485.28	0.72	665	5	4	18	per	con	mod	mod	mod	nt	cr	nh/0039_nh.bmp
486.00	0.72	666	5	1	37	per	lib	mod	mod	mod	tg	ht	wh/0576.bmp
486.72	0.72	667	6	4	102	per	con	low	mod	low	tg	ht	wh/0174.bmp
487.44	0.72	668	1	3	62	per	con	low	low	low	nt	cr	nh/0264_nh.bmp
488.16	0.72	669	4	3	14	mem	con	mod	mod	low	tg	ms	wh/0195.bmp
488.88	0.72	670	6	4	13	mem	con	mod	mod	mod	tg	ms	wh/0061.bmp
489.60	0.72	671	4	2	116	mem	con	mod	mod	low	tg	ms	wh/0671.bmp
490.32	0.72	672	5	4	105	per	con	low	mod	low	tg	ms	wh/0067.bmp
491.04	0.72	673	6	4	18	per	con	mod	mod	mod	nt	cr	nh/0039_nh.bmp
491.76	0.72	674	6	2	2	per	lib	low	mod	low	nt	cr	nh/0312_nh.bmp
492.48	0.72	675	5	1	111	mem	lib	mod	mod	low	tg	ht	wh/0438.bmp
493.20	0.72	676	6	4	104	per	con	low	mod	low	nt	cr	nh/0683_nh.bmp
493.92	0.72	677	4	2	16	per	lib	low	mod	low	nt	cr	nh/0415_nh.bmp
494.64	0.72	678	1	3	31	per	lib	mod	low	mod	tg	ht	wh/0474.bmp
495.36	0.72	679	6	3	46	mem	lib	mod	mod	low	tg	ht	wh/0575.bmp
496.08	0.72	680	4	1	57	mem	con	mod	mod	mod	nt	ht	nh/0333_nh.bmp
496.80	0.72	681	6	2	36	per	con	mod	mod	mod	nt	fa	nh/0413_nh.bmp
497.52	0.72	682	6	1	106	mem	lib	mod	mod	low	nt	ht	nh/0459_nh.bmp
498.24	0.72	683	4	3	47	mem	lib	mod	mod	low	tg	ht	wh/0081.bmp
498.96	0.72	684	5	4	43	mem	lib	mod	mod	mod	tg	ht	wh/0592.bmp
499.68	0.72	685	4	2	14	per	lib	low	mod	low	nt	cr	nh/0295_nh.bmp
500.40	0.72	686	1	4	52	mem	con	low	low	mod	tg	ms	wh/0670.bmp
501.12	0.72	687	1	2	83	mem	con	low	low	mod	nt	ms	nh/0102_nh.bmp
501.84	0.72	688	5	1	35	per	lib	mod	mod	mod	nt	cr	nh/0071_nh.bmp
502.56	0.72	689	5	1	101	mem	lib	mod	mod	low	nt	ht	nh/0263_nh.bmp
503.28	0.72	690	6	4	26	per	con	mod	mod	mod	nt	cr	nh/0477_nh.bmp
504.00	0.72	691	1	1	119	mem	lib	low	low	low	tg	ms	wh/0250.bmp
504.72	0.72	692	4	4	96	per	lib	mod	mod	mod	nt	fa	nh/0705_nh.bmp
505.44	0.72	693	5	4	35	mem	lib	mod	mod	mod	tg	ht	wh/0479.bmp
506.16	0.72	694	4	4	27	per	con	mod	mod	mod	nt	fa	nh/0809_nh.bmp
506.88	0.72	695	5	2	39	per	con	mod	mod	mod	nt	cr	nh/0983_nh.bmp
507.60	0.72	696	1	4	126	mem	lib	low	low	low	tg	ht	wh/0276.bmp
508.32	0.72	697	5	3	35	mem	lib	mod	mod	low	nt	ms	nh/0410_nh.bmp
509.04	0.72	698	4	1	62	mem	con	mod	mod	mod	tg	ms	wh/0313.bmp
509.76	0.72	699	6	2	43	per	con	mod	mod	mod	tg	ht	wh/0970.bmp
510.48	0.72	700	6	3	6	mem	con	mod	mod	low	tg	ht	wh/1000.bmp
511.20	0.72	701	4	4	34	mem	lib	mod	mod	mod	nt	ht	nh/0895_nh.bmp
511.92	0.72	702	4	3	106	per	lib	low	mod	low	tg	ht	wh/0615.bmp
512.64	0.72	703	6	2	100	mem	lib	mod	mod	mod	nt	ht	nh/0796_nh.bmp
513.36	0.72	704	4	4	97	per	con	low	mod	low	tg	ms	wh/0757.bmp
514.08	0.72	705	6	3	13	mem	con	mod	mod	low	tg	ms	wh/0283.bmp
514.80	0.72	706	4	1	48	per	lib	mod	mod	mod	tg	ht	wh/1010.bmp
515.52	0.72	707	5	2	111	mem	lib	mod	mod	mod	nt	ht	nh/0738_nh.bmp
516.24	0.72	708	6	1	64	mem	con	mod	mod	mod	tg	ht	wh/0097.bmp
516.96	0.72	709	3	4	3	mem	con	mod	mod	mod	nt	ms	nh/0365_nh.bmp
517.68	0.72	710	5	3	14	mem	con	mod	mod	low	tg	ms	wh/0195.bmp
518.40	0.72	711	6	4	108	per	con	low	mod	low	tg	ms	wh/0643.bmp
519.12	0.72	712	4	1	110	mem	lib	mod	mod	low	nt	ht	nh/0412_nh.bmp
519.84	0.72	713	5	4	1	mem	con	mod	mod	mod	nt	ms	nh/0931_nh.bmp
520.56	0.72	714	5	2	24	per	con	low	mod	low	nt	cr	nh/0988_nh.bmp
521.28	0.72	715	1	1	69	mem	con	low	low	low	nt	ht	nh/0471_nh.bmp
522.00	0.72	716	4	4	12	mem	con	mod	mod	mod	nt	ms	nh/0604_nh.bmp
522.72	0.72	717	5	4	97	per	con	low	mod	low	tg	ms	wh/0757.bmp
523.44	0.72	718	4	2	109	mem	lib	mod	mod	mod	tg	ht	wh/0925.bmp
524.16	0.72	719	1	1	118	mem	lib	low	low	low	nt	ht	nh/0169_nh.bmp
524.88	0.72	720	5	1	48	per	lib	mod	mod	mod	tg	ht	wh/1010.bmp
525.60	0.72	721	5	2	109	mem	lib	mod	mod	mod	tg	ht	wh/0925.bmp
526.32	0.72	722	6	4	43	mem	lib	mod	mod	mod	tg	ht	wh/0592.bmp
527.04	0.72	723	5	2	18	per	con	low	mod	low	tg	ms	wh/0386.bmp
527.76	0.72	724	5	4	34	mem	lib	mod	mod	mod	nt	ht	nh/0895_nh.bmp
528.48	0.72	725	5	1	112	mem	lib	mod	mod	low	tg	ht	wh/0765.bmp
529.20	0.72	726	6	1	55	mem	con	mod	mod	mod	nt	ms	nh/0628_nh.bmp
529.92	0.72	727	6	3	101	per	lib	low	mod	low	tg	ms	wh/0798.bmp
530.64	0.72	728	6	1	103	mem	lib	mod	mod	low	tg	ht	wh/0554.bmp
531.36	0.72	729	5	2	13	per	lib	low	mod	low	tg	ht	wh/0791.bmp
532.08	0.72	730	5	2	15	per	lib	low	mod	low	nt	fa	nh/0444_nh.bmp
532.80	0.72	731	6	2	108	mem	lib	mod	mod	mod	tg	ht	wh/0279.bmp
533.52	0.72	732	5	4	27	per	con	mod	mod	mod	nt	fa	nh/0809_nh.bmp
534.24	0.72	733	6	3	107	per	lib	low	mod	low	nt	fa	nh/0131_nh.bmp
534.96	0.72	734	4	4	25	per	con	mod	mod	mod	tg	ht	wh/0358.bmp
535.68	0.72	735	5	2	48	per	con	mod	mod	mod	nt	cr	nh/0104_nh.bmp
536.40	0.72	736	5	1	62	mem	con	mod	mod	mod	tg	ms	wh/0313.bmp
537.12	0.72	737	1	3	116	per	con	mod	low	mod	tg	ht	wh/0894.bmp
537.84	0.72	738	5	3	108	per	lib	low	mod	low	tg	ms	wh/0424.bmp
538.56	0.72	739	6	1	38	per	lib	mod	mod	mod	nt	cr	nh/0901_nh.bmp
539.28	0.72	740	6	3	12	mem	con	mod	mod	low	nt	ms	nh/0132_nh.bmp
540.00	0.72	741	5	4	81	per	lib	mod	mod	mod	tg	ht	wh/0282.bmp
540.72	0.72	742	5	2	98	mem	lib	mod	mod	mod	nt	ms	nh/0137_nh.bmp
541.44	0.72	743	1	1	73	mem	con	low	low	low	tg	ms	wh/0309.bmp
542.16	0.72	744	1	3	115	per	con	mod	low	mod	tg	ms	wh/0214.bmp
542.88	0.72	745	6	3	37	mem	lib	mod	mod	low	tg	ht	wh/0315.bmp
543.60	0.72	746	6	3	109	per	lib	low	mod	low	tg	ht	wh/0236.bmp
544.32	0.72	747	5	1	110	mem	lib	mod	mod	low	nt	ht	nh/0412_nh.bmp
545.04	0.72	748	5	4	84	per	lib	mod	mod	mod	tg	ms	wh/0490.bmp
545.76	0.72	749	5	2	128	mem	con	mod	mod	low	nt	ht	nh/0302_nh.bmp
546.48	0.72	750	1	1	83	per	lib	low	low	low	tg	ms	wh/0908.bmp
547.20	0.72	751	1	4	128	mem	lib	low	low	low	nt	ms	nh/0314_nh.bmp
547.92	0.72	752	6	4	39	mem	lib	mod	mod	mod	tg	ht	wh/0689.bmp
548.64	0.72	753	4	2	4	per	lib	low	mod	low	tg	ht	wh/0494.bmp
549.36	0.72	754	6	3	8	mem	con	mod	mod	low	nt	ms	nh/0703_nh.bmp
550.08	0.72	755	6	1	110	mem	lib	mod	mod	low	nt	ht	nh/0412_nh.bmp
550.80	0.72	756	4	3	4	mem	con	mod	mod	low	tg	ht	wh/0400.bmp
551.52	0.72	757	5	4	25	per	con	mod	mod	mod	tg	ht	wh/0358.bmp
552.24	0.72	758	6	3	108	per	lib	low	mod	low	tg	ms	wh/0424.bmp
552.96	0.72	759	5	4	96	per	lib	mod	mod	mod	nt	fa	nh/0705_nh.bmp
553.68	0.72	760	6	1	105	mem	lib	mod	mod	low	tg	ht	wh/0914.bmp
554.40	0.72	761	1	1	14	per	con	mod	low	mod	nt	cr	nh/0470_nh.bmp
555.12	0.72	762	1	2	76	per	lib	mod	low	mod	tg	ht	wh/0719.bmp
555.84	0.72	763	5	4	41	mem	lib	mod	mod	mod	nt	ht	nh/0229_nh.bmp
556.56	0.72	764	1	3	78	mem	con	low	low	low	tg	ht	wh/0130.bmp
557.28	0.72	765	6	4	107	per	con	low	mod	low	nt	cr	nh/0512_nh.bmp
558.00	0.72	766	5	4	20	per	con	mod	mod	mod	tg	ms	wh/0759.bmp
558.72	0.72	767	5	4	85	per	lib	mod	mod	mod	nt	fa	nh/0343_nh.bmp
559.44	0.72	768	5	3	4	mem	con	mod	mod	low	tg	ht	wh/0400.bmp
560.16	0.72	769	5	4	101	per	con	low	mod	low	nt	cr	nh/0792_nh.bmp
560.88	0.72	770	5	1	57	mem	con	mod	mod	mod	nt	ht	nh/0333_nh.bmp
561.60	0.72	771	6	2	109	mem	lib	mod	mod	mod	tg	ht	wh/0925.bmp
562.32	0.72	772	5	4	6	mem	con	mod	mod	mod	tg	ms	wh/0072.bmp
563.04	0.72	773	5	1	33	per	lib	mod	mod	mod	tg	ht	wh/0487.bmp
563.76	0.72	774	5	4	92	per	lib	mod	mod	mod	tg	ht	wh/0445.bmp
564.48	0.72	775	4	4	5	mem	con	mod	mod	mod	tg	ht	wh/0427.bmp
565.20	0.72	776	3	2	34	per	con	mod	mod	mod	tg	ht	wh/0674.bmp
565.92	0.72	777	6	2	113	mem	con	mod	mod	low	nt	ms	nh/0212_nh.bmp
566.64	0.72	778	1	1	122	mem	lib	low	low	low	nt	ht	nh/0357_nh.bmp
567.36	0.72	779	1	3	75	mem	con	low	low	low	tg	ms	wh/0120.bmp
568.08	0.72	780	6	4	6	mem	con	mod	mod	mod	tg	ms	wh/0072.bmp
568.80	0.72	781	1	1	71	mem	con	low	low	low	tg	ms	wh/0505.bmp
569.52	0.72	782	6	2	13	per	lib	low	mod	low	tg	ht	wh/0791.bmp
570.24	0.72	783	6	4	10	mem	con	mod	mod	mod	nt	ms	nh/0049_nh.bmp
570.96	0.72	784	1	2	65	per	lib	mod	low	mod	nt	cr	nh/0950_nh.bmp
571.68	0.72	785	6	2	42	per	con	mod	mod	mod	nt	cr	nh/0761_nh.bmp
572.40	0.72	786	1	3	94	mem	lib	low	low	mod	nt	ht	nh/0052_nh.bmp
573.12	0.72	787	5	4	12	mem	con	mod	mod	mod	nt	ms	nh/0604_nh.bmp
573.84	0.72	788	6	4	85	per	lib	mod	mod	mod	nt	fa	nh/0343_nh.bmp
574.56	0.72	789	5	1	61	mem	con	mod	mod	mod	tg	ms	wh/0359.bmp
575.28	0.72	790	1	1	76	mem	con	low	low	low	nt	ht	nh/0011_nh.bmp
576.00	0.72	791	6	3	35	mem	lib	mod	mod	low	nt	ms	nh/0410_nh.bmp
576.72	0.72	792	6	1	101	mem	lib	mod	mod	low	nt	ht	nh/0263_nh.bmp
577.44	0.72	793	4	4	3	mem	con	mod	mod	mod	nt	ms	nh/0365_nh.bmp
578.16	0.72	794	5	3	47	mem	lib	mod	mod	low	tg	ht	wh/0081.bmp
578.88	0.72	795	6	1	112	mem	lib	mod	mod	low	tg	ht	wh/0765.bmp
579.60	0.72	796	6	1	35	per	lib	mod	mod	mod	nt	cr	nh/0071_nh.bmp
580.32	0.72	797	6	3	33	mem	lib	mod	mod	low	nt	ht	nh/0166_nh.bmp
581.04	0.72	798	5	3	106	per	lib	low	mod	low	tg	ht	wh/0615.bmp
581.76	0.72	799	6	1	62	mem	con	mod	mod	mod	tg	ms	wh/0313.bmp
582.48	0.72	800	5	2	21	per	con	low	mod	low	tg	ms	wh/0323.bmp
583.20	0.72	801	6	2	11	per	lib	low	mod	low	tg	ms	wh/1013.bmp
583.92	0.72	802	6	1	102	mem	lib	mod	mod	low	nt	ht	nh/0293_nh.bmp
584.64	0.72	803	6	1	39	per	lib	mod	mod	mod	tg	ht	wh/1006.bmp
585.36	0.72	804	5	4	3	mem	con	mod	mod	mod	nt	ms	nh/0365_nh.bmp
586.08	0.72	805	5	2	4	per	lib	low	mod	low	tg	ht	wh/0494.bmp
586.80	0.72	806	6	2	48	per	con	mod	mod	mod	nt	cr	nh/0104_nh.bmp
587.52	0.72	807	1	3	50	per	con	low	low	low	tg	ms	wh/0310.bmp
588.24	0.72	808	6	4	88	per	lib	mod	mod	mod	nt	cr	nh/0538_nh.bmp
588.96	0.72	809	4	1	34	per	lib	mod	mod	mod	nt	fa	nh/0320_nh.bmp
589.68	0.72	810	5	4	5	mem	con	mod	mod	mod	tg	ht	wh/0427.bmp
590.40	0.72	811	6	3	4	mem	con	mod	mod	low	tg	ht	wh/0400.bmp
591.12	0.72	812	5	2	102	mem	lib	mod	mod	mod	nt	ht	nh/0961_nh.bmp
591.84	0.72	813	6	3	47	mem	lib	mod	mod	low	tg	ht	wh/0081.bmp
592.56	0.72	814	6	1	37	per	lib	mod	mod	mod	tg	ht	wh/0576.bmp
593.28	0.72	815	1	1	3	per	con	mod	low	mod	tg	ht	wh/0502.bmp
594.00	0.72	816	1	2	70	per	lib	mod	low	mod	nt	fa	nh/0547_nh.bmp
594.72	0.72	817	5	2	5	per	lib	low	mod	low	tg	ht	wh/0007.bmp
595.44	0.72	818	5	2	116	mem	con	mod	mod	low	tg	ms	wh/0671.bmp
596.16	0.72	819	6	4	20	per	con	mod	mod	mod	tg	ms	wh/0759.bmp
596.88	0.72	820	4	1	60	mem	con	mod	mod	mod	nt	ht	nh/0562_nh.bmp
597.60	0.72	821	6	2	116	mem	con	mod	mod	low	tg	ms	wh/0671.bmp
598.32	0.72	822	6	4	3	mem	con	mod	mod	mod	nt	ms	nh/0365_nh.bmp
599.04	0.72	823	6	2	47	per	con	mod	mod	mod	tg	ht	wh/0583.bmp
599.76	0.72	824	6	1	48	per	lib	mod	mod	mod	tg	ht	wh/1010.bmp
600.48	0.72	825	6	4	105	per	con	low	mod	low	tg	ms	wh/0067.bmp
601.20	0.72	826	5	2	14	per	lib	low	mod	low	nt	cr	nh/0295_nh.bmp
601.92	0.72	827	1	1	93	per	lib	low	low	low	nt	cr	nh/0211_nh.bmp
602.64	0.72	828	5	2	118	mem	con	mod	mod	low	nt	ms	nh/0882_nh.bmp
603.36	0.72	829	5	2	16	per	lib	low	mod	low	nt	cr	nh/0415_nh.bmp
604.08	0.72	830	6	2	128	mem	con	mod	mod	low	nt	ht	nh/0302_nh.bmp
604.80	0.72	831	6	4	92	per	lib	mod	mod	mod	tg	ht	wh/0445.bmp
605.52	0.72	832	6	4	47	mem	lib	mod	mod	mod	nt	ht	nh/0448_nh.bmp
606.24	0.72	833	6	4	28	per	con	mod	mod	mod	tg	ms	wh/0834.bmp
606.96	0.72	834	6	2	111	mem	lib	mod	mod	mod	nt	ht	nh/0738_nh.bmp
607.68	0.72	835	6	2	39	per	con	mod	mod	mod	nt	cr	nh/0983_nh.bmp
608.40	0.72	836	1	3	53	per	con	low	low	low	nt	cr	nh/0565_nh.bmp
609.12	0.72	837	4	2	34	per	con	mod	mod	mod	tg	ht	wh/0674.bmp
609.84	0.72	838	5	1	60	mem	con	mod	mod	mod	nt	ht	nh/0562_nh.bmp
610.56	0.72	839	5	2	34	per	con	mod	mod	mod	tg	ht	wh/0674.bmp
611.28	0.72	840	6	4	31	per	con	mod	mod	mod	nt	cr	nh/0861_nh.bmp
612.00	0.72	841	5	1	34	per	lib	mod	mod	mod	nt	fa	nh/0320_nh.bmp
612.72	0.72	842	6	2	29	per	con	low	mod	low	nt	cr	nh/0511_nh.bmp
613.44	0.72	843	6	4	96	per	lib	mod	mod	mod	nt	fa	nh/0705_nh.bmp
614.16	0.72	844	6	4	27	per	con	mod	mod	mod	nt	fa	nh/0809_nh.bmp
614.88	0.72	845	6	3	14	mem	con	mod	mod	low	tg	ms	wh/0195.bmp
615.60	0.72	846	4	3	10	mem	con	mod	mod	low	nt	ms	nh/0454_nh.bmp
616.32	0.72	847	6	2	34	per	con	mod	mod	mod	tg	ht	wh/0674.bmp
617.04	0.72	848	6	1	34	per	lib	mod	mod	mod	nt	fa	nh/0320_nh.bmp
617.76	0.72	849	6	2	18	per	con	low	mod	low	tg	ms	wh/0386.bmp
618.48	0.72	850	6	4	34	mem	lib	mod	mod	mod	nt	ht	nh/0895_nh.bmp
619.20	0.72	851	6	4	12	mem	con	mod	mod	mod	nt	ms	nh/0604_nh.bmp
619.92	0.72	852	6	4	5	mem	con	mod	mod	mod	tg	ht	wh/0427.bmp
620.64	0.72	853	6	4	25	per	con	mod	mod	mod	tg	ht	wh/0358.bmp
621.36	0.72	854	6	2	14	per	lib	low	mod	low	nt	cr	nh/0295_nh.bmp
622.08	0.72	855	6	1	60	mem	con	mod	mod	mod	nt	ht	nh/0562_nh.bmp
622.80	0.72	856	6	2	15	per	lib	low	mod	low	nt	fa	nh/0444_nh.bmp
623.52	0.72	857	6	4	90	per	lib	mod	mod	mod	nt	cr	nh/0151_nh.bmp
624.24	0.72	858	6	1	33	per	lib	mod	mod	mod	tg	ht	wh/0487.bmp
624.96	0.72	859	6	1	57	mem	con	mod	mod	mod	nt	ht	nh/0333_nh.bmp
625.68	0.72	860	6	2	104	mem	lib	mod	mod	mod	tg	ht	wh/0665.bmp
626.40	0.72	861	6	4	19	per	con	mod	mod	mod	tg	ms	wh/0344.bmp
627.12	0.72	862	5	2	46	per	con	mod	mod	mod	tg	ht	wh/0348.bmp
627.84	0.72	863	1	3	70	mem	con	low	low	low	nt	ms	nh/0127_nh.bmp
628.56	0.72	864	1	3	64	per	con	low	low	low	nt	cr	nh/0484_nh.bmp
629.28	0.72	865	1	2	82	mem	con	low	low	mod	nt	ht	nh/0723_nh.bmp
630.00	0.72	866	1	3	93	mem	lib	low	low	mod	tg	ht	wh/0498.bmp
630.72	0.72	867	6	2	16	per	lib	low	mod	low	nt	cr	nh/0415_nh.bmp
631.44	0.72	868	6	2	102	mem	lib	mod	mod	mod	nt	ht	nh/0961_nh.bmp
632.16	0.72	869	6	1	111	mem	lib	mod	mod	low	tg	ht	wh/0438.bmp
632.88	0.72	870	1	3	119	per	con	mod	low	mod	nt	cr	nh/0004_nh.bmp
633.60	0.72	871	6	4	37	mem	lib	mod	mod	mod	nt	ht	nh/0664_nh.bmp
634.32	0.72	872	1	1	6	per	con	mod	low	mod	nt	cr	nh/0208_nh.bmp
635.04	0.72	873	6	4	81	per	lib	mod	mod	mod	tg	ht	wh/0282.bmp
635.76	0.72	874	1	4	73	per	lib	low	low	low	nt	cr	nh/0026_nh.bmp
636.48	0.72	875	6	4	1	mem	con	mod	mod	mod	nt	ms	nh/0931_nh.bmp
637.20	0.72	876	6	4	41	mem	lib	mod	mod	mod	nt	ht	nh/0229_nh.bmp
637.92	0.72	877	6	4	35	mem	lib	mod	mod	mod	tg	ht	wh/0479.bmp
638.64	0.72	878	6	2	24	per	con	low	mod	low	nt	cr	nh/0988_nh.bmp
639.36	0.72	879	6	4	7	mem	con	mod	mod	mod	tg	ms	wh/0943.bmp
640.08	0.72	880	6	4	101	per	con	low	mod	low	nt	cr	nh/0792_nh.bmp
640.80	0.72	881	1	3	87	mem	lib	low	low	mod	nt	ms	nh/0937_nh.bmp
641.52	0.72	882	5	3	10	mem	con	mod	mod	low	nt	ms	nh/0454_nh.bmp
642.24	0.72	883	6	2	21	per	con	low	mod	low	tg	ms	wh/0323.bmp
642.96	0.72	884	6	2	46	per	con	mod	mod	mod	tg	ht	wh/0348.bmp
643.68	0.72	885	6	2	4	per	lib	low	mod	low	tg	ht	wh/0494.bmp
644.40	0.72	886	6	4	84	per	lib	mod	mod	mod	tg	ms	wh/0490.bmp
645.12	0.72	887	6	2	118	mem	con	mod	mod	low	nt	ms	nh/0882_nh.bmp
645.84	0.72	888	6	3	10	mem	con	mod	mod	low	nt	ms	nh/0454_nh.bmp
646.56	0.72	889	6	1	61	mem	con	mod	mod	mod	tg	ms	wh/0359.bmp
647.28	0.72	890	6	2	98	mem	lib	mod	mod	mod	nt	ms	nh/0137_nh.bmp
648.00	0.72	891	6	3	106	per	lib	low	mod	low	tg	ht	wh/0615.bmp
648.72	0.72	892	6	2	117	mem	con	mod	mod	low	nt	ht	nh/0496_nh.bmp
649.44	0.72	893	6	1	58	mem	con	mod	mod	mod	tg	ht	wh/0331.bmp
650.16	0.72	894	6	2	5	per	lib	low	mod	low	tg	ht	wh/0007.bmp
650.88	0.72	895	6	4	97	per	con	low	mod	low	tg	ms	wh/0757.bmp
651.60	0.72	896	6	2	127	mem	con	mod	mod	low	tg	ht	wh/0422.bmp
