onset	duration	trial	pres	ts_blk	ts_trl	task	crit	disc	mem_disc	per_disc	per_type	accuracy	stim_file
7.20	0.72	1	1	5	109	per	con	mod	mod	mod	nt	cr	nh/0447_nh.bmp
7.92	0.72	2	1	6	4	mem	lib	mod	mod	mod	nt	ht	nh/0803_nh.bmp
8.64	0.72	3	1	8	61	mem	lib	low	low	low	nt	ht	nh/0225_nh.bmp
9.36	0.72	4	1	6	93	mem	con	mod	mod	mod	tg	ht	wh/0182.bmp
10.08	0.72	5	1	7	63	per	con	low	mod	low	tg	ms	wh/0075.bmp
10.80	0.72	6	1	8	118	mem	con	low	low	low	nt	ht	nh/0804_nh.bmp
11.52	0.72	7	1	8	72	per	con	mod	mod	mod	nt	cr	nh/0588_nh.bmp
12.24	0.72	8	1	6	59	per	lib	low	mod	low	tg	ht	wh/0451.bmp
12.96	0.72	9	1	6	67	per	con	mod	low	mod	nt	cr	nh/0782_nh.bmp
13.68	0.72	10	1	6	71	per	con	mod	low	mod	tg	ht	wh/0669.bmp
14.40	0.72	11	1	7	21	mem	lib	low	low	mod	tg	ht	wh/0220.bmp
15.12	0.72	12	1	7	70	mem	lib	mod	mod	mod	nt	ms	nh/0099_nh.bmp
15.84	0.72	13	1	6	56	per	lib	low	mod	low	tg	ht	wh/0079.bmp
16.56	0.72	14	1	8	46	per	lib	low	mod	low	nt	cr	nh/0934_nh.bmp
17.28	0.72	15	1	7	56	per	con	low	mod	low	nt	cr	nh/0238_nh.bmp
18.00	0.72	16	1	8	4	per	lib	mod	mod	mod	tg	ht	wh/0328.bmp
18.72	0.72	17	1	6	79	per	con	mod	low	mod	nt	cr	nh/0340_nh.bmp
19.44	0.72	18	1	6	85	mem	con	mod	mod	mod	nt	n/a	nh/0805_nh.bmp
20.16	0.72	19	1	8	80	per	con	mod	mod	mod	tg	ht	wh/0876.bmp
20.88	0.72	20	1	5	1	mem	con	mod	mod	low	tg	ms	wh/0284.bmp
21.60	0.72	21	1	8	8	per	lib	mod	mod	mod	nt	fa	nh/0442_nh.bmp
22.32	0.72	22	2	8	72	per	con	mod	mod	mod	nt	cr	nh/0588_nh.bmp
23.04	0.72	23	1	6	80	per	con	mod	low	mod	nt	n/a	nh/0316_nh.bmp
23.76	0.72	24	1	7	75	mem	lib	mod	mod	mod	nt	ht	nh/0714_nh.bmp
24.48	0.72	25	1	6	48	per	con	low	mod	low	tg	ms	wh/0893.bmp
25.20	0.72	26	1	5	10	mem	con	mod	mod	low	nt	ms	nh/0510_nh.bmp
25.92	0.72	27	1	8	16	per	lib	mod	mod	mod	nt	cr	nh/0795_nh.bmp
26.64	0.72	28	1	7	102	mem	con	mod	mod	low	tg	ht	wh/0351.bmp
27.36	0.72	29	1	7	94	mem	con	low	low	mod	tg	ht	wh/0890.bmp
28.08	0.72	30	1	5	44	per	lib	mod	mod	mod	tg	ht	wh/0350.bmp
28.80	0.72	31	1	5	19	mem	lib	mod	mod	low	nt	ht	nh/0361_nh.bmp
29.52	0.72	32	1	7	74	mem	lib	mod	mod	mod	tg	ht	wh/0542.bmp
30.24	0.72	33	1	7	71	mem	lib	mod	mod	mod	nt	ms	nh/0196_nh.bmp
30.96	0.72	34	1	5	52	per	lib	low	low	low	nt	fa	nh/0148_nh.bmp
31.68	0.72	35	1	5	6	mem	con	mod	mod	low	tg	ms	wh/0329.bmp
32.40	0.72	36	1	6	111	mem	con	low	low	mod	tg	n/a	wh/0584.bmp
33.12	0.72	37	1	7	110	mem	con	mod	mod	low	nt	ht	nh/0730_nh.bmp
33.84	0.72	38	1	8	12	per	lib	mod	mod	mod	tg	ms	wh/0902.bmp
34.56	0.72	39	1	6	50	per	lib	low	mod	low	nt	fa	nh/0802_nh.bmp
35.28	0.72	40	1	8	77	per	con	mod	mod	mod	nt	fa	nh/0843_nh.bmp
36.00	0.72	41	2	6	48	per	con	low	mod	low	tg	ms	wh/0893.bmp
36.72	0.72	42	2	5	109	per	con	mod	mod	mod	nt	cr	nh/0447_nh.bmp
37.44	0.72	43	1	7	101	mem	con	mod	mod	low	tg	ht	wh/0256.bmp
38.16	0.72	44	1	8	97	mem	lib	mod	mod	low	nt	ht	nh/0194_nh.bmp
38.88	0.72	45	1	5	33	per	lib	mod	mod	mod	nt	cr	nh/0962_nh.bmp
39.60	0.72	46	1	7	109	mem	con	mod	mod	low	tg	ht	wh/0364.bmp
40.32	0.72	47	1	5	41	per	lib	mod	mod	mod	nt	fa	nh/0748_nh.bmp
41.04	0.72	48	1	8	5	per	lib	mod	mod	mod	tg	ht	wh/0398.bmp
41.76	0.72	49	2	8	8	per	lib	mod	mod	mod	nt	fa	nh/0442_nh.bmp
42.48	0.72	50	1	8	71	per	con	mod	mod	mod	nt	cr	nh/0396_nh.bmp
43.20	0.72	51	1	7	6	per	lib	low	low	low	tg	ms	wh/0439.bmp
43.92	0.72	52	2	7	70	mem	lib	mod	mod	mod	nt	ms	nh/0099_nh.bmp
44.64	0.72	53	1	5	4	mem	con	mod	mod	low	tg	ms	wh/0299.bmp
45.36	0.72	54	1	6	105	mem	con	low	low	mod	nt	ht	nh/0531_nh.bmp
46.08	0.72	55	2	6	85	mem	con	mod	mod	mod	nt	n/a	nh/0805_nh.bmp
46.80	0.72	56	1	5	37	per	lib	mod	mod	mod	tg	ht	wh/0593.bmp
47.52	0.72	57	1	6	3	mem	lib	mod	mod	mod	nt	ht	nh/0371_nh.bmp
48.24	0.72	58	1	7	91	mem	con	low	low	mod	tg	ht	wh/0129.bmp
48.96	0.72	59	1	7	60	per	con	low	mod	low	tg	ms	wh/0190.bmp
49.68	0.72	60	1	5	95	per	con	low	low	low	nt	cr	nh/0864_nh.bmp
50.40	0.72	61	1	8	66	per	con	mod	mod	mod	tg	ht	wh/0697.bmp
51.12	0.72	62	2	8	66	per	con	mod	mod	mod	tg	ht	wh/0697.bmp
51.84	0.72	63	2	6	3	mem	lib	mod	mod	mod	nt	ht	nh/0371_nh.bmp
52.56	0.72	64	2	8	4	per	lib	mod	mod	mod	tg	ht	wh/0328.bmp
53.28	0.72	65	2	7	102	mem	con	mod	mod	low	tg	ht	wh/0351.bmp
54.00	0.72	66	1	7	103	mem	con	mod	mod	low	nt	ht	nh/0744_nh.bmp
54.72	0.72	67	1	6	76	per	con	mod	low	mod	tg	ms	wh/0059.bmp
55.44	0.72	68	1	6	8	mem	lib	mod	mod	mod	tg	ht	wh/0540.bmp
56.16	0.72	69	1	8	116	mem	con	low	low	low	tg	ht	wh/0823.bmp
56.88	0.72	70	1	8	48	per	lib	low	mod	low	tg	ht	wh/0082.bmp
57.60	0.72	71	1	6	83	mem	con	mod	mod	mod	nt	ht	nh/0273_nh.bmp
58.32	0.72	72	1	5	22	mem	lib	mod	mod	low	nt	ht	nh/0443_nh.bmp
59.04	0.72	73	1	6	88	mem	con	mod	mod	mod	tg	ms	wh/0904.bmp
59.76	0.72	74	2	8	77	per	con	mod	mod	mod	nt	fa	nh/0843_nh.bmp
60.48	0.72	75	1	7	119	per	lib	mod	low	mod	tg	ms	wh/0426.bmp
61.20	0.72	76	3	7	102	mem	con	mod	mod	low	tg	ht	wh/0351.bmp
61.92	0.72	77	1	5	21	mem	lib	mod	mod	low	nt	ht	nh/0760_nh.bmp
62.64	0.72	78	2	7	56	per	con	low	mod	low	nt	cr	nh/0238_nh.bmp
63.36	0.72	79	1	5	9	mem	con	mod	mod	low	nt	ht	nh/0134_nh.bmp
64.08	0.72	80	1	7	10	per	lib	low	low	low	nt	fa	nh/0223_nh.bmp
64.80	0.72	81	1	8	112	mem	lib	mod	mod	low	tg	ht	wh/0646.bmp
65.52	0.72	82	2	8	5	per	lib	mod	mod	mod	tg	ht	wh/0398.bmp
66.24	0.72	83	2	5	4	mem	con	mod	mod	low	tg	ms	wh/0299.bmp
66.96	0.72	84	1	7	72	mem	lib	mod	mod	mod	nt	ht	nh/0446_nh.bmp
67.68	0.72	85	1	6	47	per	con	low	mod	low	nt	cr	nh/0508_nh.bmp
68.40	0.72	86	3	5	4	mem	con	mod	mod	low	tg	ms	wh/0299.bmp
69.12	0.72	87	1	6	40	per	con	low	mod	low	nt	cr	nh/0503_nh.bmp
69.84	0.72	88	1	6	9	mem	lib	mod	mod	mod	tg	ht	wh/0772.bmp
70.56	0.72	89	1	8	96	mem	con	mod	mod	mod	tg	n/a	wh/0187.bmp
71.28	0.72	90	1	5	100	per	con	mod	mod	mod	nt	cr	nh/0548_nh.bmp
72.00	0.72	91	3	8	8	per	lib	mod	mod	mod	nt	fa	nh/0442_nh.bmp
72.72	0.72	92	1	7	52	per	con	low	mod	low	nt	cr	nh/0383_nh.bmp
73.44	0.72	93	1	8	44	per	lib	low	mod	low	nt	fa	nh/0123_nh.bmp
74.16	0.72	94	2	6	88	mem	con	mod	mod	mod	tg	ms	wh/0904.bmp
74.88	0.72	95	2	5	44	per	lib	mod	mod	mod	tg	ht	wh/0350.bmp
75.60	0.72	96	1	5	35	per	lib	mod	mod	mod	nt	cr	nh/0957_nh.bmp
76.32	0.72	97	2	7	109	mem	con	mod	mod	low	tg	ht	wh/0364.bmp
77.04	0.72	98	1	8	107	mem	lib	mod	mod	low	tg	ht	wh/0032.bmp
77.76	0.72	99	1	6	57	per	lib	low	mod	low	nt	fa	nh/0613_nh.bmp
78.48	0.72	100	1	8	88	mem	con	mod	mod	mod	tg	ht	wh/0094.bmp
79.20	0.72	101	1	5	73	mem	con	low	low	low	nt	ht	nh/0261_nh.bmp
79.92	0.72	102	1	7	62	per	con	low	mod	low	tg	ms	wh/0074.bmp
80.64	0.72	103	1	7	87	mem	con	low	low	mod	nt	ht	nh/0301_nh.bmp
81.36	0.72	104	1	6	13	mem	lib	mod	mod	mod	nt	ht	nh/0928_nh.bmp
82.08	0.72	105	1	7	42	per	con	mod	low	mod	nt	cr	nh/0846_nh.bmp
82.80	0.72	106	1	7	53	per	con	low	mod	low	nt	cr	nh/0465_nh.bmp
83.52	0.72	107	1	5	11	mem	con	mod	mod	low	tg	ht	wh/0382.bmp
84.24	0.72	108	1	5	67	mem	con	low	low	low	tg	ms	wh/0845.bmp
84.96	0.72	109	1	8	40	per	lib	low	mod	low	tg	ht	wh/0608.bmp
85.68	0.72	110	1	5	23	mem	lib	mod	mod	low	tg	ht	wh/0077.bmp
86.40	0.72	111	1	6	64	per	lib	low	mod	low	nt	fa	nh/0153_nh.bmp
87.12	0.72	112	2	5	21	mem	lib	mod	mod	low	nt	ht	nh/0760_nh.bmp
87.84	0.72	113	1	8	53	mem	lib	low	low	low	tg	ht	wh/0434.bmp
88.56	0.72	114	2	6	8	mem	lib	mod	mod	mod	tg	ht	wh/0540.bmp
89.28	0.72	115	2	5	11	mem	con	mod	mod	low	tg	ht	wh/0382.bmp
90.00	0.72	116	2	6	59	per	lib	low	mod	low	tg	ht	wh/0451.bmp
90.72	0.72	117	1	5	99	per	con	mod	mod	mod	nt	cr	nh/0784_nh.bmp
91.44	0.72	118	1	5	85	per	con	low	low	low	nt	cr	nh/0701_nh.bmp
92.16	0.72	119	1	8	64	mem	lib	low	low	low	tg	ht	wh/0013.bmp
92.88	0.72	120	2	5	23	mem	lib	mod	mod	low	tg	ht	wh/0077.bmp
93.60	0.72	121	1	8	126	mem	con	low	low	low	nt	ms	nh/0812_nh.bmp
94.32	0.72	122	1	8	91	mem	con	mod	mod	mod	nt	ht	nh/0199_nh.bmp
95.04	0.72	123	1	8	83	mem	con	mod	mod	mod	tg	ht	wh/0855.bmp
95.76	0.72	124	1	8	100	mem	lib	mod	mod	low	tg	ht	wh/0080.bmp
96.48	0.72	125	1	6	39	per	con	low	mod	low	nt	fa	nh/0577_nh.bmp
97.20	0.72	126	2	7	62	per	con	low	mod	low	tg	ms	wh/0074.bmp
97.92	0.72	127	2	7	71	mem	lib	mod	mod	mod	nt	ms	nh/0196_nh.bmp
98.64	0.72	128	1	5	27	mem	lib	mod	mod	low	tg	ht	wh/0818.bmp
99.36	0.72	129	2	8	46	per	lib	low	mod	low	nt	cr	nh/0934_nh.bmp
100.08	0.72	130	1	6	42	per	con	low	mod	low	tg	ms	wh/0619.bmp
100.80	0.72	131	1	8	62	mem	lib	low	low	low	tg	ht	wh/0460.bmp
101.52	0.72	132	1	8	31	per	con	low	low	low	nt	cr	nh/0206_nh.bmp
102.24	0.72	133	2	7	75	mem	lib	mod	mod	mod	nt	ht	nh/0714_nh.bmp
102.96	0.72	134	2	8	80	per	con	mod	mod	mod	tg	ht	wh/0876.bmp
103.68	0.72	135	2	7	63	per	con	low	mod	low	tg	ms	wh/0075.bmp
104.40	0.72	136	1	8	110	mem	lib	mod	mod	low	nt	ht	nh/0035_nh.bmp
105.12	0.72	137	2	8	48	per	lib	low	mod	low	tg	ht	wh/0082.bmp
105.84	0.72	138	1	7	122	per	lib	mod	low	mod	nt	fa	nh/0306_nh.bmp
106.56	0.72	139	2	5	19	mem	lib	mod	mod	low	nt	ht	nh/0361_nh.bmp
107.28	0.72	140	1	6	100	mem	con	low	low	mod	nt	ht	nh/0966_nh.bmp
108.00	0.72	141	1	6	27	mem	lib	low	low	low	tg	ht	wh/0711.bmp
108.72	0.72	142	3	6	3	mem	lib	mod	mod	mod	nt	ht	nh/0371_nh.bmp
109.44	0.72	143	2	6	50	per	lib	low	mod	low	nt	fa	nh/0802_nh.bmp
110.16	0.72	144	1	6	95	mem	con	mod	mod	mod	tg	ht	wh/0650.bmp
110.88	0.72	145	2	8	112	mem	lib	mod	mod	low	tg	ht	wh/0646.bmp
111.60	0.72	146	3	5	11	mem	con	mod	mod	low	tg	ht	wh/0382.bmp
112.32	0.72	147	3	6	8	mem	lib	mod	mod	mod	tg	ht	wh/0540.bmp
113.04	0.72	148	1	6	90	mem	con	mod	mod	mod	nt	ht	nh/0428_nh.bmp
113.76	0.72	149	1	7	22	mem	lib	low	low	mod	nt	ms	nh/0277_nh.bmp
114.48	0.72	150	1	8	105	mem	lib	mod	mod	low	nt	ht	nh/0963_nh.bmp
115.20	0.72	151	1	8	65	per	con	mod	mod	mod	tg	ms	wh/0954.bmp
115.92	0.72	152	1	6	109	mem	con	low	low	mod	nt	ht	nh/0936_nh.bmp
116.64	0.72	153	2	7	103	mem	con	mod	mod	low	nt	ht	nh/0744_nh.bmp
117.36	0.72	154	1	6	35	per	con	low	mod	low	nt	cr	nh/0568_nh.bmp
118.08	0.72	155	1	8	103	mem	lib	mod	mod	low	tg	ht	wh/0940.bmp
118.80	0.72	156	1	6	74	per	con	mod	low	mod	tg	ms	wh/0598.bmp
119.52	0.72	157	1	5	18	mem	lib	mod	mod	low	tg	ms	wh/0232.bmp
120.24	0.72	158	1	8	92	mem	con	mod	mod	mod	nt	ms	nh/0941_nh.bmp
120.96	0.72	159	2	5	41	per	lib	mod	mod	mod	nt	fa	nh/0748_nh.bmp
121.68	0.72	160	2	5	99	per	con	mod	mod	mod	nt	cr	nh/0784_nh.bmp
122.40	0.72	161	3	6	48	per	con	low	mod	low	tg	ms	wh/0893.bmp
123.12	0.72	162	1	5	2	mem	con	mod	mod	low	nt	ms	nh/0345_nh.bmp
123.84	0.72	163	1	5	71	mem	con	low	low	low	tg	ht	wh/0513.bmp
124.56	0.72	164	2	7	60	per	con	low	mod	low	tg	ms	wh/0190.bmp
125.28	0.72	165	1	5	38	per	lib	mod	mod	mod	tg	ht	wh/0558.bmp
126.00	0.72	166	2	8	91	mem	con	mod	mod	mod	nt	ht	nh/0199_nh.bmp
126.72	0.72	167	1	8	39	per	lib	low	mod	low	nt	cr	nh/1023_nh.bmp
127.44	0.72	168	1	7	68	mem	lib	mod	mod	mod	tg	ht	wh/0594.bmp
128.16	0.72	169	1	8	14	per	lib	mod	mod	mod	nt	cr	nh/0380_nh.bmp
128.88	0.72	170	3	7	103	mem	con	mod	mod	low	nt	ht	nh/0744_nh.bmp
129.60	0.72	171	1	5	65	mem	con	low	low	low	nt	ms	nh/0433_nh.bmp
130.32	0.72	172	2	8	83	mem	con	mod	mod	mod	tg	ht	wh/0855.bmp
131.04	0.72	173	1	7	97	mem	con	mod	mod	low	nt	ms	nh/0355_nh.bmp
131.76	0.72	174	1	5	61	per	lib	low	low	low	nt	cr	nh/0488_nh.bmp
132.48	0.72	175	1	5	106	per	con	mod	mod	mod	tg	ms	wh/0973.bmp
133.20	0.72	176	2	5	35	per	lib	mod	mod	mod	nt	cr	nh/0957_nh.bmp
133.92	0.72	177	1	7	30	mem	lib	low	low	mod	tg	ht	wh/0025.bmp
134.64	0.72	178	4	6	48	per	con	low	mod	low	tg	ms	wh/0893.bmp
135.36	0.72	179	3	5	23	mem	lib	mod	mod	low	tg	ht	wh/0077.bmp
136.08	0.72	180	1	5	120	mem	lib	low	low	mod	tg	ht	wh/0736.bmp
136.80	0.72	181	1	8	78	per	con	mod	mod	mod	tg	ms	wh/0095.bmp
137.52	0.72	182	2	8	92	mem	con	mod	mod	mod	nt	ms	nh/0941_nh.bmp
138.24	0.72	183	1	6	2	mem	lib	mod	mod	mod	nt	ht	nh/0909_nh.bmp
138.96	0.72	184	2	6	2	mem	lib	mod	mod	mod	nt	ht	nh/0909_nh.bmp
139.68	0.72	185	4	5	23	mem	lib	mod	mod	low	tg	ht	wh/0077.bmp
140.40	0.72	186	2	5	6	mem	con	mod	mod	low	tg	ms	wh/0329.bmp
141.12	0.72	187	4	8	8	per	lib	mod	mod	mod	nt	fa	nh/0442_nh.bmp
141.84	0.72	188	2	5	106	per	con	mod	mod	mod	tg	ms	wh/0973.bmp
142.56	0.72	189	3	5	99	per	con	mod	mod	mod	nt	cr	nh/0784_nh.bmp
143.28	0.72	190	2	8	88	mem	con	mod	mod	mod	tg	ht	wh/0094.bmp
144.00	0.72	191	1	6	15	mem	lib	mod	mod	mod	tg	ht	wh/0716.bmp
144.72	0.72	192	1	5	34	per	lib	mod	mod	mod	nt	cr	nh/0946_nh.bmp
145.44	0.72	193	2	6	47	per	con	low	mod	low	nt	cr	nh/0508_nh.bmp
146.16	0.72	194	2	8	100	mem	lib	mod	mod	low	tg	ht	wh/0080.bmp
146.88	0.72	195	1	7	98	mem	con	mod	mod	low	tg	ms	wh/0758.bmp
147.60	0.72	196	2	8	97	mem	lib	mod	mod	low	nt	ht	nh/0194_nh.bmp
148.32	0.72	197	1	5	31	mem	lib	mod	mod	low	nt	ht	nh/0690_nh.bmp
149.04	0.72	198	2	5	33	per	lib	mod	mod	mod	nt	cr	nh/0962_nh.bmp
149.76	0.72	199	1	7	46	per	con	mod	low	mod	tg	ht	wh/0900.bmp
150.48	0.72	200	1	8	6	per	lib	mod	mod	mod	tg	ht	wh/0591.bmp
151.20	0.72	201	2	8	96	mem	con	mod	mod	mod	tg	n/a	wh/0187.bmp
151.92	0.72	202	2	6	83	mem	con	mod	mod	mod	nt	ht	nh/0273_nh.bmp
152.64	0.72	203	2	6	56	per	lib	low	mod	low	tg	ht	wh/0079.bmp
153.36	0.72	204	1	8	21	per	con	low	low	low	tg	ht	wh/0571.bmp
154.08	0.72	205	2	6	64	per	lib	low	mod	low	nt	fa	nh/0153_nh.bmp
154.80	0.72	206	1	7	19	mem	lib	low	low	mod	tg	ms	wh/0870.bmp
155.52	0.72	207	2	7	101	mem	con	mod	mod	low	tg	ht	wh/0256.bmp
156.24	0.72	208	2	6	90	mem	con	mod	mod	mod	nt	ht	nh/0428_nh.bmp
156.96	0.72	209	4	6	3	mem	lib	mod	mod	mod	nt	ht	nh/0371_nh.bmp
157.68	0.72	210	2	8	107	mem	lib	mod	mod	low	tg	ht	wh/0032.bmp
158.40	0.72	211	1	7	37	per	con	mod	low	mod	nt	cr	nh/0038_nh.bmp
159.12	0.72	212	2	7	98	mem	con	mod	mod	low	tg	ms	wh/0758.bmp
159.84	0.72	213	1	7	80	mem	lib	mod	mod	mod	tg	ht	wh/0680.bmp
160.56	0.72	214	1	7	106	mem	con	mod	mod	low	nt	ht	nh/0404_nh.bmp
161.28	0.72	215	3	7	63	per	con	low	mod	low	tg	ms	wh/0075.bmp
162.00	0.72	216	3	6	56	per	lib	low	mod	low	tg	ht	wh/0079.bmp
162.72	0.72	217	2	7	53	per	con	low	mod	low	nt	cr	nh/0465_nh.bmp
163.44	0.72	218	3	6	90	mem	con	mod	mod	mod	nt	ht	nh/0428_nh.bmp
164.16	0.72	219	2	5	10	mem	con	mod	mod	low	nt	ms	nh/0510_nh.bmp
164.88	0.72	220	2	5	18	mem	lib	mod	mod	low	tg	ms	wh/0232.bmp
165.60	0.72	221	3	5	35	per	lib	mod	mod	mod	nt	cr	nh/0957_nh.bmp
166.32	0.72	222	3	8	92	mem	con	mod	mod	mod	nt	ms	nh/0941_nh.bmp
167.04	0.72	223	4	5	99	per	con	mod	mod	mod	nt	cr	nh/0784_nh.bmp
167.76	0.72	224	2	8	78	per	con	mod	mod	mod	tg	ms	wh/0095.bmp
168.48	0.72	225	3	8	78	per	con	mod	mod	mod	tg	ms	wh/0095.bmp
169.20	0.72	226	3	5	6	mem	con	mod	mod	low	tg	ms	wh/0329.bmp
169.92	0.72	227	1	8	86	mem	con	mod	mod	mod	nt	ht	nh/0222_nh.bmp
170.64	0.72	228	2	5	2	mem	con	mod	mod	low	nt	ms	nh/0345_nh.bmp
171.36	0.72	229	1	5	108	per	con	mod	mod	mod	tg	ms	wh/0462.bmp
172.08	0.72	230	2	5	100	per	con	mod	mod	mod	nt	cr	nh/0548_nh.bmp
172.80	0.72	231	1	8	18	per	con	low	low	low	tg	ms	wh/0113.bmp
173.52	0.72	232	4	6	90	mem	con	mod	mod	mod	nt	ht	nh/0428_nh.bmp
174.24	0.72	233	2	8	44	per	lib	low	mod	low	nt	fa	nh/0123_nh.bmp
174.96	0.72	234	2	6	35	per	con	low	mod	low	nt	cr	nh/0568_nh.bmp
175.68	0.72	235	2	8	65	per	con	mod	mod	mod	tg	ms	wh/0954.bmp
176.40	0.72	236	2	8	39	per	lib	low	mod	low	nt	cr	nh/1023_nh.bmp
177.12	0.72	237	4	6	8	mem	lib	mod	mod	mod	tg	ht	wh/0540.bmp
177.84	0.72	238	2	5	27	mem	lib	mod	mod	low	tg	ht	wh/0818.bmp
178.56	0.72	239	4	7	63	per	con	low	mod	low	tg	ms	wh/0075.bmp
179.28	0.72	240	2	5	22	mem	lib	mod	mod	low	nt	ht	nh/0443_nh.bmp
180.00	0.72	241	3	8	5	per	lib	mod	mod	mod	tg	ht	wh/0398.bmp
180.72	0.72	242	3	7	71	mem	lib	mod	mod	mod	nt	ms	nh/0196_nh.bmp
181.44	0.72	243	2	7	74	mem	lib	mod	mod	mod	tg	ht	wh/0542.bmp
182.16	0.72	244	1	6	99	mem	con	low	low	mod	tg	ms	wh/0530.bmp
182.88	0.72	245	1	8	111	mem	lib	mod	mod	low	nt	ht	nh/0660_nh.bmp
183.60	0.72	246	2	6	39	per	con	low	mod	low	nt	fa	nh/0577_nh.bmp
184.32	0.72	247	1	8	10	per	lib	mod	mod	mod	nt	fa	nh/0684_nh.bmp
185.04	0.72	248	2	6	40	per	con	low	mod	low	nt	cr	nh/0503_nh.bmp
185.76	0.72	249	2	6	42	per	con	low	mod	low	tg	ms	wh/0619.bmp
186.48	0.72	250	3	6	83	mem	con	mod	mod	mod	nt	ht	nh/0273_nh.bmp
187.20	0.72	251	3	5	21	mem	lib	mod	mod	low	nt	ht	nh/0760_nh.bmp
187.92	0.72	252	1	5	111	per	con	mod	mod	mod	tg	ht	wh/0397.bmp
188.64	0.72	253	1	6	54	per	lib	low	mod	low	nt	cr	nh/0417_nh.bmp
189.36	0.72	254	3	8	97	mem	lib	mod	mod	low	nt	ht	nh/0194_nh.bmp
190.08	0.72	255	1	5	98	per	con	mod	mod	mod	tg	ms	wh/0947.bmp
190.80	0.72	256	1	7	79	mem	lib	mod	mod	mod	tg	ht	wh/0543.bmp
191.52	0.72	257	1	8	20	per	con	low	low	low	nt	cr	nh/0483_nh.bmp
192.24	0.72	258	2	5	111	per	con	mod	mod	mod	tg	ht	wh/0397.bmp
192.96	0.72	259	3	6	64	per	lib	low	mod	low	nt	fa	nh/0153_nh.bmp
193.68	0.72	260	1	8	93	mem	con	mod	mod	mod	tg	ms	wh/0319.bmp
194.40	0.72	261	1	6	37	per	con	low	mod	low	tg	ms	wh/0489.bmp
195.12	0.72	262	1	8	34	per	lib	low	mod	low	tg	ms	wh/0635.bmp
195.84	0.72	263	4	5	6	mem	con	mod	mod	low	tg	ms	wh/0329.bmp
196.56	0.72	264	2	5	34	per	lib	mod	mod	mod	nt	cr	nh/0946_nh.bmp
197.28	0.72	265	3	8	4	per	lib	mod	mod	mod	tg	ht	wh/0328.bmp
198.00	0.72	266	3	8	44	per	lib	low	mod	low	nt	fa	nh/0123_nh.bmp
198.72	0.72	267	2	7	80	mem	lib	mod	mod	mod	tg	ht	wh/0680.bmp
199.44	0.72	268	1	5	7	mem	con	mod	mod	low	nt	ht	nh/0338_nh.bmp
200.16	0.72	269	1	6	49	per	lib	low	mod	low	tg	ht	wh/0336.bmp
200.88	0.72	270	1	7	5	per	lib	low	low	low	nt	cr	nh/0237_nh.bmp
201.60	0.72	271	3	6	59	per	lib	low	mod	low	tg	ht	wh/0451.bmp
202.32	0.72	272	4	8	4	per	lib	mod	mod	mod	tg	ht	wh/0328.bmp
203.04	0.72	273	3	8	65	per	con	mod	mod	mod	tg	ms	wh/0954.bmp
203.76	0.72	274	1	6	101	mem	con	low	low	mod	tg	ht	wh/0581.bmp
204.48	0.72	275	2	7	52	per	con	low	mod	low	nt	cr	nh/0383_nh.bmp
205.20	0.72	276	3	5	19	mem	lib	mod	mod	low	nt	ht	nh/0361_nh.bmp
205.92	0.72	277	4	6	59	per	lib	low	mod	low	tg	ht	wh/0451.bmp
206.64	0.72	278	2	6	9	mem	lib	mod	mod	mod	tg	ht	wh/0772.bmp
207.36	0.72	279	3	6	39	per	con	low	mod	low	nt	fa	nh/0577_nh.bmp
208.08	0.72	280	4	8	65	per	con	mod	mod	mod	tg	ms	wh/0954.bmp
208.80	0.72	281	2	5	37	per	lib	mod	mod	mod	tg	ht	wh/0593.bmp
209.52	0.72	282	2	5	98	per	con	mod	mod	mod	tg	ms	wh/0947.bmp
210.24	0.72	283	2	6	54	per	lib	low	mod	low	nt	cr	nh/0417_nh.bmp
210.96	0.72	284	4	6	83	mem	con	mod	mod	mod	nt	ht	nh/0273_nh.bmp
211.68	0.72	285	1	6	30	mem	lib	low	low	low	nt	n/a	nh/0831_nh.bmp
212.40	0.72	286	4	5	35	per	lib	mod	mod	mod	nt	cr	nh/0957_nh.bmp
213.12	0.72	287	3	8	39	per	lib	low	mod	low	nt	cr	nh/1023_nh.bmp
213.84	0.72	288	2	8	103	mem	lib	mod	mod	low	tg	ht	wh/0940.bmp
214.56	0.72	289	2	7	68	mem	lib	mod	mod	mod	tg	ht	wh/0594.bmp
215.28	0.72	290	1	8	90	mem	con	mod	mod	mod	nt	ms	nh/0874_nh.bmp
216.00	0.72	291	2	8	93	mem	con	mod	mod	mod	tg	ms	wh/0319.bmp
216.72	0.72	292	3	6	50	per	lib	low	mod	low	nt	fa	nh/0802_nh.bmp
217.44	0.72	293	2	8	6	per	lib	mod	mod	mod	tg	ht	wh/0591.bmp
218.16	0.72	294	4	7	71	mem	lib	mod	mod	mod	nt	ms	nh/0196_nh.bmp
218.88	0.72	295	1	8	79	per	con	mod	mod	mod	nt	cr	nh/0497_nh.bmp
219.60	0.72	296	3	5	109	per	con	mod	mod	mod	nt	cr	nh/0447_nh.bmp
220.32	0.72	297	2	6	93	mem	con	mod	mod	mod	tg	ht	wh/0182.bmp
221.04	0.72	298	1	6	81	mem	con	mod	mod	mod	tg	ht	wh/0810.bmp
221.76	0.72	299	2	8	90	mem	con	mod	mod	mod	nt	ms	nh/0874_nh.bmp
222.48	0.72	300	2	8	105	mem	lib	mod	mod	low	nt	ht	nh/0963_nh.bmp
223.20	0.72	301	1	8	42	per	lib	low	mod	low	tg	ms	wh/0964.bmp
223.92	0.72	302	2	5	9	mem	con	mod	mod	low	nt	ht	nh/0134_nh.bmp
224.64	0.72	303	2	6	95	mem	con	mod	mod	mod	tg	ht	wh/0650.bmp
225.36	0.72	304	4	5	19	mem	lib	mod	mod	low	nt	ht	nh/0361_nh.bmp
226.08	0.72	305	3	7	75	mem	lib	mod	mod	mod	nt	ht	nh/0714_nh.bmp
226.80	0.72	306	2	6	13	mem	lib	mod	mod	mod	nt	ht	nh/0928_nh.bmp
227.52	0.72	307	3	5	98	per	con	mod	mod	mod	tg	ms	wh/0947.bmp
228.24	0.72	308	3	8	80	per	con	mod	mod	mod	tg	ht	wh/0876.bmp
228.96	0.72	309	3	6	54	per	lib	low	mod	low	nt	cr	nh/0417_nh.bmp
229.68	0.72	310	2	8	110	mem	lib	mod	mod	low	nt	ht	nh/0035_nh.bmp
230.40	0.72	311	3	8	91	mem	con	mod	mod	mod	nt	ht	nh/0199_nh.bmp
231.12	0.72	312	5	6	8	mem	lib	mod	mod	mod	tg	ht	wh/0540.bmp
231.84	0.72	313	3	8	107	mem	lib	mod	mod	low	tg	ht	wh/0032.bmp
232.56	0.72	314	3	5	22	mem	lib	mod	mod	low	nt	ht	nh/0443_nh.bmp
233.28	0.72	315	4	8	92	mem	con	mod	mod	mod	nt	ms	nh/0941_nh.bmp
234.00	0.72	316	3	6	13	mem	lib	mod	mod	mod	nt	ht	nh/0928_nh.bmp
234.72	0.72	317	2	8	111	mem	lib	mod	mod	low	nt	ht	nh/0660_nh.bmp
235.44	0.72	318	3	6	47	per	con	low	mod	low	nt	cr	nh/0508_nh.bmp
236.16	0.72	319	4	8	97	mem	lib	mod	mod	low	nt	ht	nh/0194_nh.bmp
236.88	0.72	320	3	8	77	per	con	mod	mod	mod	nt	fa	nh/0843_nh.bmp
237.60	0.72	321	1	6	82	mem	con	mod	mod	mod	nt	ht	nh/0209_nh.bmp
238.32	0.72	322	3	8	88	mem	con	mod	mod	mod	tg	ht	wh/0094.bmp
239.04	0.72	323	1	5	110	per	con	mod	mod	mod	nt	cr	nh/0563_nh.bmp
239.76	0.72	324	3	5	2	mem	con	mod	mod	low	nt	ms	nh/0345_nh.bmp
240.48	0.72	325	3	7	60	per	con	low	mod	low	tg	ms	wh/0190.bmp
241.20	0.72	326	4	8	78	per	con	mod	mod	mod	tg	ms	wh/0095.bmp
241.92	0.72	327	3	8	83	mem	con	mod	mod	mod	tg	ht	wh/0855.bmp
242.64	0.72	328	1	7	23	mem	lib	low	low	mod	nt	ht	nh/0572_nh.bmp
243.36	0.72	329	3	6	42	per	con	low	mod	low	tg	ms	wh/0619.bmp
244.08	0.72	330	3	5	9	mem	con	mod	mod	low	nt	ht	nh/0134_nh.bmp
244.80	0.72	331	2	8	79	per	con	mod	mod	mod	nt	cr	nh/0497_nh.bmp
245.52	0.72	332	3	6	2	mem	lib	mod	mod	mod	nt	ht	nh/0909_nh.bmp
246.24	0.72	333	2	7	72	mem	lib	mod	mod	mod	nt	ht	nh/0446_nh.bmp
246.96	0.72	334	3	8	46	per	lib	low	mod	low	nt	cr	nh/0934_nh.bmp
247.68	0.72	335	1	8	125	mem	con	low	low	low	nt	ms	nh/0384_nh.bmp
248.40	0.72	336	5	8	92	mem	con	mod	mod	mod	nt	ms	nh/0941_nh.bmp
249.12	0.72	337	5	8	78	per	con	mod	mod	mod	tg	ms	wh/0095.bmp
249.84	0.72	338	1	8	41	per	lib	low	mod	low	nt	fa	nh/0493_nh.bmp
250.56	0.72	339	1	7	32	mem	lib	low	low	mod	nt	ht	nh/0267_nh.bmp
251.28	0.72	340	2	7	110	mem	con	mod	mod	low	nt	ht	nh/0730_nh.bmp
252.00	0.72	341	2	8	41	per	lib	low	mod	low	nt	fa	nh/0493_nh.bmp
252.72	0.72	342	4	7	102	mem	con	mod	mod	low	tg	ht	wh/0351.bmp
253.44	0.72	343	4	6	64	per	lib	low	mod	low	nt	fa	nh/0153_nh.bmp
254.16	0.72	344	3	5	10	mem	con	mod	mod	low	nt	ms	nh/0510_nh.bmp
254.88	0.72	345	2	8	34	per	lib	low	mod	low	tg	ms	wh/0635.bmp
255.60	0.72	346	1	6	34	per	con	low	mod	low	tg	ms	wh/0029.bmp
256.32	0.72	347	3	6	93	mem	con	mod	mod	mod	tg	ht	wh/0182.bmp
257.04	0.72	348	3	7	80	mem	lib	mod	mod	mod	tg	ht	wh/0680.bmp
257.76	0.72	349	2	8	14	per	lib	mod	mod	mod	nt	cr	nh/0380_nh.bmp
258.48	0.72	350	2	6	4	mem	lib	mod	mod	mod	nt	ht	nh/0803_nh.bmp
259.20	0.72	351	4	5	9	mem	con	mod	mod	low	nt	ht	nh/0134_nh.bmp
259.92	0.72	352	2	5	110	per	con	mod	mod	mod	nt	cr	nh/0563_nh.bmp
260.64	0.72	353	2	6	81	mem	con	mod	mod	mod	tg	ht	wh/0810.bmp
261.36	0.72	354	2	7	97	mem	con	mod	mod	low	nt	ms	nh/0355_nh.bmp
262.08	0.72	355	2	8	10	per	lib	mod	mod	mod	nt	fa	nh/0684_nh.bmp
262.80	0.72	356	3	6	4	mem	lib	mod	mod	mod	nt	ht	nh/0803_nh.bmp
263.52	0.72	357	1	6	53	per	lib	low	mod	low	tg	ht	wh/0150.bmp
264.24	0.72	358	4	5	2	mem	con	mod	mod	low	nt	ms	nh/0345_nh.bmp
264.96	0.72	359	2	5	38	per	lib	mod	mod	mod	tg	ht	wh/0558.bmp
265.68	0.72	360	4	6	42	per	con	low	mod	low	tg	ms	wh/0619.bmp
266.40	0.72	361	4	5	21	mem	lib	mod	mod	low	nt	ht	nh/0760_nh.bmp
267.12	0.72	362	2	7	106	mem	con	mod	mod	low	nt	ht	nh/0404_nh.bmp
267.84	0.72	363	4	5	98	per	con	mod	mod	mod	tg	ms	wh/0947.bmp
268.56	0.72	364	4	6	2	mem	lib	mod	mod	mod	nt	ht	nh/0909_nh.bmp
269.28	0.72	365	6	8	92	mem	con	mod	mod	mod	nt	ms	nh/0941_nh.bmp
270.00	0.72	366	1	7	50	per	con	low	mod	low	nt	fa	nh/0125_nh.bmp
270.72	0.72	367	5	5	19	mem	lib	mod	mod	low	nt	ht	nh/0361_nh.bmp
271.44	0.72	368	3	7	52	per	con	low	mod	low	nt	cr	nh/0383_nh.bmp
272.16	0.72	369	1	7	7	per	lib	low	low	low	tg	ht	wh/0266.bmp
272.88	0.72	370	3	8	96	mem	con	mod	mod	mod	tg	n/a	wh/0187.bmp
273.60	0.72	371	3	5	44	per	lib	mod	mod	mod	tg	ht	wh/0350.bmp
274.32	0.72	372	2	8	71	per	con	mod	mod	mod	nt	cr	nh/0396_nh.bmp
275.04	0.72	373	1	6	21	mem	lib	low	low	low	nt	n/a	nh/1009_nh.bmp
275.76	0.72	374	2	8	86	mem	con	mod	mod	mod	nt	ht	nh/0222_nh.bmp
276.48	0.72	375	5	7	102	mem	con	mod	mod	low	tg	ht	wh/0351.bmp
277.20	0.72	376	2	8	40	per	lib	low	mod	low	tg	ht	wh/0608.bmp
277.92	0.72	377	1	7	48	per	con	mod	low	mod	nt	cr	nh/0721_nh.bmp
278.64	0.72	378	4	8	96	mem	con	mod	mod	mod	tg	n/a	wh/0187.bmp
279.36	0.72	379	3	6	81	mem	con	mod	mod	mod	tg	ht	wh/0810.bmp
280.08	0.72	380	3	8	14	per	lib	mod	mod	mod	nt	cr	nh/0380_nh.bmp
280.80	0.72	381	1	7	128	per	lib	mod	low	mod	tg	ht	wh/0096.bmp
281.52	0.72	382	1	5	60	per	lib	low	low	low	tg	ms	wh/0999.bmp
282.24	0.72	383	4	8	91	mem	con	mod	mod	mod	nt	ht	nh/0199_nh.bmp
282.96	0.72	384	3	8	86	mem	con	mod	mod	mod	nt	ht	nh/0222_nh.bmp
283.68	0.72	385	4	5	4	mem	con	mod	mod	low	tg	ms	wh/0299.bmp
284.40	0.72	386	1	5	45	per	lib	mod	mod	mod	tg	ht	wh/0339.bmp
285.12	0.72	387	4	5	11	mem	con	mod	mod	low	tg	ht	wh/0382.bmp
285.84	0.72	388	2	5	7	mem	con	mod	mod	low	nt	ht	nh/0338_nh.bmp
286.56	0.72	389	1	8	58	mem	lib	low	low	low	nt	ht	nh/0731_nh.bmp
287.28	0.72	390	2	5	31	mem	lib	mod	mod	low	nt	ht	nh/0690_nh.bmp
288.00	0.72	391	5	6	48	per	con	low	mod	low	tg	ms	wh/0893.bmp
288.72	0.72	392	3	7	62	per	con	low	mod	low	tg	ms	wh/0074.bmp
289.44	0.72	393	3	8	105	mem	lib	mod	mod	low	nt	ht	nh/0963_nh.bmp
290.16	0.72	394	2	7	50	per	con	low	mod	low	nt	fa	nh/0125_nh.bmp
290.88	0.72	395	3	5	111	per	con	mod	mod	mod	tg	ht	wh/0397.bmp
291.60	0.72	396	1	6	16	mem	lib	mod	mod	mod	tg	ht	wh/0807.bmp
292.32	0.72	397	2	7	79	mem	lib	mod	mod	mod	tg	ht	wh/0543.bmp
293.04	0.72	398	1	5	29	mem	lib	mod	mod	low	tg	ht	wh/0036.bmp
293.76	0.72	399	4	6	56	per	lib	low	mod	low	tg	ht	wh/0079.bmp
294.48	0.72	400	5	5	11	mem	con	mod	mod	low	tg	ht	wh/0382.bmp
295.20	0.72	401	4	7	60	per	con	low	mod	low	tg	ms	wh/0190.bmp
295.92	0.72	402	3	6	95	mem	con	mod	mod	mod	tg	ht	wh/0650.bmp
296.64	0.72	403	1	5	84	per	con	low	low	low	tg	ms	wh/0579.bmp
297.36	0.72	404	2	6	34	per	con	low	mod	low	tg	ms	wh/0029.bmp
298.08	0.72	405	3	8	112	mem	lib	mod	mod	low	tg	ht	wh/0646.bmp
298.80	0.72	406	4	5	22	mem	lib	mod	mod	low	nt	ht	nh/0443_nh.bmp
299.52	0.72	407	3	6	34	per	con	low	mod	low	tg	ms	wh/0029.bmp
300.24	0.72	408	3	8	111	mem	lib	mod	mod	low	nt	ht	nh/0660_nh.bmp
300.96	0.72	409	2	6	57	per	lib	low	mod	low	nt	fa	nh/0613_nh.bmp
301.68	0.72	410	4	6	81	mem	con	mod	mod	mod	tg	ht	wh/0810.bmp
302.40	0.72	411	4	6	34	per	con	low	mod	low	tg	ms	wh/0029.bmp
303.12	0.72	412	1	5	86	per	con	low	low	low	tg	ms	wh/0789.bmp
303.84	0.72	413	2	6	16	mem	lib	mod	mod	mod	tg	ht	wh/0807.bmp
304.56	0.72	414	1	8	127	mem	con	low	low	low	nt	ht	nh/0956_nh.bmp
305.28	0.72	415	3	8	71	per	con	mod	mod	mod	nt	cr	nh/0396_nh.bmp
306.00	0.72	416	3	8	103	mem	lib	mod	mod	low	tg	ht	wh/0940.bmp
306.72	0.72	417	4	6	54	per	lib	low	mod	low	nt	cr	nh/0417_nh.bmp
307.44	0.72	418	5	6	3	mem	lib	mod	mod	mod	nt	ht	nh/0371_nh.bmp
308.16	0.72	419	2	6	49	per	lib	low	mod	low	tg	ht	wh/0336.bmp
308.88	0.72	420	1	7	124	per	lib	mod	low	mod	nt	fa	nh/0044_nh.bmp
309.60	0.72	421	3	5	41	per	lib	mod	mod	mod	nt	fa	nh/0748_nh.bmp
310.32	0.72	422	1	7	83	mem	con	low	low	mod	nt	ms	nh/0278_nh.bmp
311.04	0.72	423	4	6	50	per	lib	low	mod	low	nt	fa	nh/0802_nh.bmp
311.76	0.72	424	5	7	71	mem	lib	mod	mod	mod	nt	ms	nh/0196_nh.bmp
312.48	0.72	425	3	6	40	per	con	low	mod	low	nt	cr	nh/0503_nh.bmp
313.20	0.72	426	2	8	42	per	lib	low	mod	low	tg	ms	wh/0964.bmp
313.92	0.72	427	3	5	33	per	lib	mod	mod	mod	nt	cr	nh/0962_nh.bmp
314.64	0.72	428	5	8	96	mem	con	mod	mod	mod	tg	n/a	wh/0187.bmp
315.36	0.72	429	4	6	39	per	con	low	mod	low	nt	fa	nh/0577_nh.bmp
316.08	0.72	430	3	5	110	per	con	mod	mod	mod	nt	cr	nh/0563_nh.bmp
316.80	0.72	431	2	6	15	mem	lib	mod	mod	mod	tg	ht	wh/0716.bmp
317.52	0.72	432	4	7	62	per	con	low	mod	low	tg	ms	wh/0074.bmp
318.24	0.72	433	3	7	74	mem	lib	mod	mod	mod	tg	ht	wh/0542.bmp
318.96	0.72	434	4	8	80	per	con	mod	mod	mod	tg	ht	wh/0876.bmp
319.68	0.72	435	3	6	16	mem	lib	mod	mod	mod	tg	ht	wh/0807.bmp
320.40	0.72	436	3	6	15	mem	lib	mod	mod	mod	tg	ht	wh/0716.bmp
321.12	0.72	437	3	8	90	mem	con	mod	mod	mod	nt	ms	nh/0874_nh.bmp
321.84	0.72	438	5	6	56	per	lib	low	mod	low	tg	ht	wh/0079.bmp
322.56	0.72	439	3	8	42	per	lib	low	mod	low	tg	ms	wh/0964.bmp
323.28	0.72	440	5	6	83	mem	con	mod	mod	mod	nt	ht	nh/0273_nh.bmp
324.00	0.72	441	3	6	85	mem	con	mod	mod	mod	nt	n/a	nh/0805_nh.bmp
324.72	0.72	442	4	5	111	per	con	mod	mod	mod	tg	ht	wh/0397.bmp
325.44	0.72	443	6	7	102	mem	con	mod	mod	low	tg	ht	wh/0351.bmp
326.16	0.72	444	1	5	56	per	lib	low	low	low	tg	ht	wh/0112.bmp
326.88	0.72	445	5	6	42	per	con	low	mod	low	tg	ms	wh/0619.bmp
327.60	0.72	446	3	8	48	per	lib	low	mod	low	tg	ht	wh/0082.bmp
328.32	0.72	447	4	8	46	per	lib	low	mod	low	nt	cr	nh/0934_nh.bmp
329.04	0.72	448	6	6	3	mem	lib	mod	mod	mod	nt	ht	nh/0371_nh.bmp
329.76	0.72	449	3	6	88	mem	con	mod	mod	mod	tg	ms	wh/0904.bmp
330.48	0.72	450	3	6	49	per	lib	low	mod	low	tg	ht	wh/0336.bmp
331.20	0.72	451	1	5	116	mem	lib	low	low	mod	nt	ht	nh/0949_nh.bmp
331.92	0.72	452	2	5	1	mem	con	mod	mod	low	tg	ms	wh/0284.bmp
332.64	0.72	453	3	7	53	per	con	low	mod	low	nt	cr	nh/0465_nh.bmp
333.36	0.72	454	3	5	106	per	con	mod	mod	mod	tg	ms	wh/0973.bmp
334.08	0.72	455	4	7	80	mem	lib	mod	mod	mod	tg	ht	wh/0680.bmp
334.80	0.72	456	5	6	90	mem	con	mod	mod	mod	nt	ht	nh/0428_nh.bmp
335.52	0.72	457	4	7	75	mem	lib	mod	mod	mod	nt	ht	nh/0714_nh.bmp
336.24	0.72	458	3	5	34	per	lib	mod	mod	mod	nt	cr	nh/0946_nh.bmp
336.96	0.72	459	1	8	60	mem	lib	low	low	low	tg	n/a	wh/0881.bmp
337.68	0.72	460	4	8	107	mem	lib	mod	mod	low	tg	ht	wh/0032.bmp
338.40	0.72	461	6	6	48	per	con	low	mod	low	tg	ms	wh/0893.bmp
339.12	0.72	462	5	7	80	mem	lib	mod	mod	mod	tg	ht	wh/0680.bmp
339.84	0.72	463	4	6	40	per	con	low	mod	low	nt	cr	nh/0503_nh.bmp
340.56	0.72	464	3	5	18	mem	lib	mod	mod	low	tg	ms	wh/0232.bmp
341.28	0.72	465	1	8	32	per	con	low	low	low	nt	cr	nh/0452_nh.bmp
342.00	0.72	466	4	8	44	per	lib	low	mod	low	nt	fa	nh/0123_nh.bmp
342.72	0.72	467	3	8	6	per	lib	mod	mod	mod	tg	ht	wh/0591.bmp
343.44	0.72	468	4	6	4	mem	lib	mod	mod	mod	nt	ht	nh/0803_nh.bmp
344.16	0.72	469	2	5	45	per	lib	mod	mod	mod	tg	ht	wh/0339.bmp
344.88	0.72	470	1	6	103	mem	con	low	low	mod	nt	ms	nh/0787_nh.bmp
345.60	0.72	471	4	8	77	per	con	mod	mod	mod	nt	fa	nh/0843_nh.bmp
346.32	0.72	472	3	5	38	per	lib	mod	mod	mod	tg	ht	wh/0558.bmp
347.04	0.72	473	4	6	15	mem	lib	mod	mod	mod	tg	ht	wh/0716.bmp
347.76	0.72	474	2	6	53	per	lib	low	mod	low	tg	ht	wh/0150.bmp
348.48	0.72	475	1	7	118	per	lib	mod	low	mod	tg	ht	wh/0569.bmp
349.20	0.72	476	4	5	38	per	lib	mod	mod	mod	tg	ht	wh/0558.bmp
349.92	0.72	477	6	6	8	mem	lib	mod	mod	mod	tg	ht	wh/0540.bmp
350.64	0.72	478	6	8	78	per	con	mod	mod	mod	tg	ms	wh/0095.bmp
351.36	0.72	479	5	5	98	per	con	mod	mod	mod	tg	ms	wh/0947.bmp
352.08	0.72	480	2	8	12	per	lib	mod	mod	mod	tg	ms	wh/0902.bmp
352.80	0.72	481	1	6	20	mem	lib	low	low	low	tg	ht	wh/0197.bmp
353.52	0.72	482	5	5	111	per	con	mod	mod	mod	tg	ht	wh/0397.bmp
354.24	0.72	483	5	7	60	per	con	low	mod	low	tg	ms	wh/0190.bmp
354.96	0.72	484	3	6	35	per	con	low	mod	low	nt	cr	nh/0568_nh.bmp
355.68	0.72	485	3	7	79	mem	lib	mod	mod	mod	tg	ht	wh/0543.bmp
356.40	0.72	486	5	8	46	per	lib	low	mod	low	nt	cr	nh/0934_nh.bmp
357.12	0.72	487	3	7	72	mem	lib	mod	mod	mod	nt	ht	nh/0446_nh.bmp
357.84	0.72	488	4	5	109	per	con	mod	mod	mod	nt	cr	nh/0447_nh.bmp
358.56	0.72	489	4	8	105	mem	lib	mod	mod	low	nt	ht	nh/0963_nh.bmp
359.28	0.72	490	4	8	83	mem	con	mod	mod	mod	tg	ht	wh/0855.bmp
360.00	0.72	491	3	5	45	per	lib	mod	mod	mod	tg	ht	wh/0339.bmp
360.72	0.72	492	3	8	79	per	con	mod	mod	mod	nt	cr	nh/0497_nh.bmp
361.44	0.72	493	4	5	106	per	con	mod	mod	mod	tg	ms	wh/0973.bmp
362.16	0.72	494	1	7	115	per	lib	mod	low	mod	nt	cr	nh/0729_nh.bmp
362.88	0.72	495	4	5	41	per	lib	mod	mod	mod	nt	fa	nh/0748_nh.bmp
363.60	0.72	496	4	8	90	mem	con	mod	mod	mod	nt	ms	nh/0874_nh.bmp
364.32	0.72	497	4	7	72	mem	lib	mod	mod	mod	nt	ht	nh/0446_nh.bmp
365.04	0.72	498	1	7	85	mem	con	low	low	mod	nt	ms	nh/0927_nh.bmp
365.76	0.72	499	3	5	1	mem	con	mod	mod	low	tg	ms	wh/0284.bmp
366.48	0.72	500	5	7	72	mem	lib	mod	mod	mod	nt	ht	nh/0446_nh.bmp
367.20	0.72	501	4	8	88	mem	con	mod	mod	mod	tg	ht	wh/0094.bmp
367.92	0.72	502	1	8	17	per	con	low	low	low	tg	ms	wh/0710.bmp
368.64	0.72	503	5	8	83	mem	con	mod	mod	mod	tg	ht	wh/0855.bmp
369.36	0.72	504	4	6	93	mem	con	mod	mod	mod	tg	ht	wh/0182.bmp
370.08	0.72	505	4	8	111	mem	lib	mod	mod	low	nt	ht	nh/0660_nh.bmp
370.80	0.72	506	4	6	47	per	con	low	mod	low	nt	cr	nh/0508_nh.bmp
371.52	0.72	507	6	6	83	mem	con	mod	mod	mod	nt	ht	nh/0273_nh.bmp
372.24	0.72	508	3	5	31	mem	lib	mod	mod	low	nt	ht	nh/0690_nh.bmp
372.96	0.72	509	3	8	66	per	con	mod	mod	mod	tg	ht	wh/0697.bmp
373.68	0.72	510	5	6	15	mem	lib	mod	mod	mod	tg	ht	wh/0716.bmp
374.40	0.72	511	3	7	101	mem	con	mod	mod	low	tg	ht	wh/0256.bmp
375.12	0.72	512	1	6	28	mem	lib	low	low	low	nt	ht	nh/0292_nh.bmp
375.84	0.72	513	5	6	50	per	lib	low	mod	low	nt	fa	nh/0802_nh.bmp
376.56	0.72	514	4	5	1	mem	con	mod	mod	low	tg	ms	wh/0284.bmp
377.28	0.72	515	4	7	79	mem	lib	mod	mod	mod	tg	ht	wh/0543.bmp
378.00	0.72	516	6	8	96	mem	con	mod	mod	mod	tg	n/a	wh/0187.bmp
378.72	0.72	517	1	7	86	mem	con	low	low	mod	tg	ht	wh/0718.bmp
379.44	0.72	518	3	8	41	per	lib	low	mod	low	nt	fa	nh/0493_nh.bmp
380.16	0.72	519	5	7	79	mem	lib	mod	mod	mod	tg	ht	wh/0543.bmp
380.88	0.72	520	3	8	72	per	con	mod	mod	mod	nt	cr	nh/0588_nh.bmp
381.60	0.72	521	6	6	15	mem	lib	mod	mod	mod	tg	ht	wh/0716.bmp
382.32	0.72	522	5	5	22	mem	lib	mod	mod	low	nt	ht	nh/0443_nh.bmp
383.04	0.72	523	4	5	44	per	lib	mod	mod	mod	tg	ht	wh/0350.bmp
383.76	0.72	524	3	8	100	mem	lib	mod	mod	low	tg	ht	wh/0080.bmp
384.48	0.72	525	4	6	35	per	con	low	mod	low	nt	cr	nh/0568_nh.bmp
385.20	0.72	526	1	5	69	mem	con	low	low	low	tg	ms	wh/0706.bmp
385.92	0.72	527	4	5	10	mem	con	mod	mod	low	nt	ms	nh/0510_nh.bmp
386.64	0.72	528	3	7	70	mem	lib	mod	mod	mod	nt	ms	nh/0099_nh.bmp
387.36	0.72	529	3	7	50	per	con	low	mod	low	nt	fa	nh/0125_nh.bmp
388.08	0.72	530	5	5	38	per	lib	mod	mod	mod	tg	ht	wh/0558.bmp
388.80	0.72	531	3	8	93	mem	con	mod	mod	mod	tg	ms	wh/0319.bmp
389.52	0.72	532	4	8	41	per	lib	low	mod	low	nt	fa	nh/0493_nh.bmp
390.24	0.72	533	3	7	56	per	con	low	mod	low	nt	cr	nh/0238_nh.bmp
390.96	0.72	534	3	6	9	mem	lib	mod	mod	mod	tg	ht	wh/0772.bmp
391.68	0.72	535	5	8	8	per	lib	mod	mod	mod	nt	fa	nh/0442_nh.bmp
392.40	0.72	536	4	8	39	per	lib	low	mod	low	nt	cr	nh/1023_nh.bmp
393.12	0.72	537	5	8	91	mem	con	mod	mod	mod	nt	ht	nh/0199_nh.bmp
393.84	0.72	538	4	6	85	mem	con	mod	mod	mod	nt	n/a	nh/0805_nh.bmp
394.56	0.72	539	4	6	95	mem	con	mod	mod	mod	tg	ht	wh/0650.bmp
395.28	0.72	540	4	6	49	per	lib	low	mod	low	tg	ht	wh/0336.bmp
396.00	0.72	541	1	6	114	per	lib	mod	low	mod	tg	ht	wh/0762.bmp
396.72	0.72	542	6	7	72	mem	lib	mod	mod	mod	nt	ht	nh/0446_nh.bmp
397.44	0.72	543	1	7	57	per	con	low	mod	low	tg	ms	wh/0967.bmp
398.16	0.72	544	3	5	100	per	con	mod	mod	mod	nt	cr	nh/0548_nh.bmp
398.88	0.72	545	4	8	93	mem	con	mod	mod	mod	tg	ms	wh/0319.bmp
399.60	0.72	546	2	6	37	per	con	low	mod	low	tg	ms	wh/0489.bmp
400.32	0.72	547	4	5	18	mem	lib	mod	mod	low	tg	ms	wh/0232.bmp
401.04	0.72	548	4	8	42	per	lib	low	mod	low	tg	ms	wh/0964.bmp
401.76	0.72	549	1	5	70	mem	con	low	low	low	tg	ms	wh/0458.bmp
402.48	0.72	550	2	5	108	per	con	mod	mod	mod	tg	ms	wh/0462.bmp
403.20	0.72	551	3	8	10	per	lib	mod	mod	mod	nt	fa	nh/0684_nh.bmp
403.92	0.72	552	1	5	72	mem	con	low	low	low	nt	ms	nh/0055_nh.bmp
404.64	0.72	553	4	7	101	mem	con	mod	mod	low	tg	ht	wh/0256.bmp
405.36	0.72	554	3	7	98	mem	con	mod	mod	low	tg	ms	wh/0758.bmp
406.08	0.72	555	5	7	101	mem	con	mod	mod	low	tg	ht	wh/0256.bmp
406.80	0.72	556	4	5	45	per	lib	mod	mod	mod	tg	ht	wh/0339.bmp
407.52	0.72	557	5	5	35	per	lib	mod	mod	mod	nt	cr	nh/0957_nh.bmp
408.24	0.72	558	1	8	24	per	con	low	low	low	nt	cr	nh/0146_nh.bmp
408.96	0.72	559	4	8	103	mem	lib	mod	mod	low	tg	ht	wh/0940.bmp
409.68	0.72	560	3	8	12	per	lib	mod	mod	mod	tg	ms	wh/0902.bmp
410.40	0.72	561	5	8	93	mem	con	mod	mod	mod	tg	ms	wh/0319.bmp
411.12	0.72	562	4	7	74	mem	lib	mod	mod	mod	tg	ht	wh/0542.bmp
411.84	0.72	563	3	8	40	per	lib	low	mod	low	tg	ht	wh/0608.bmp
412.56	0.72	564	1	8	122	mem	con	low	low	low	tg	ms	wh/0633.bmp
413.28	0.72	565	5	6	95	mem	con	mod	mod	mod	tg	ht	wh/0650.bmp
414.00	0.72	566	3	7	110	mem	con	mod	mod	low	nt	ht	nh/0730_nh.bmp
414.72	0.72	567	4	8	100	mem	lib	mod	mod	low	tg	ht	wh/0080.bmp
415.44	0.72	568	1	6	123	per	lib	mod	low	mod	nt	cr	nh/0068_nh.bmp
416.16	0.72	569	5	8	90	mem	con	mod	mod	mod	nt	ms	nh/0874_nh.bmp
416.88	0.72	570	4	8	112	mem	lib	mod	mod	low	tg	ht	wh/0646.bmp
417.60	0.72	571	5	5	106	per	con	mod	mod	mod	tg	ms	wh/0973.bmp
418.32	0.72	572	4	7	52	per	con	low	mod	low	nt	cr	nh/0383_nh.bmp
419.04	0.72	573	1	7	18	mem	lib	low	low	mod	tg	ht	wh/0699.bmp
419.76	0.72	574	4	8	86	mem	con	mod	mod	mod	nt	ht	nh/0222_nh.bmp
420.48	0.72	575	2	7	57	per	con	low	mod	low	tg	ms	wh/0967.bmp
421.20	0.72	576	3	5	37	per	lib	mod	mod	mod	tg	ht	wh/0593.bmp
421.92	0.72	577	1	6	17	mem	lib	low	low	low	tg	ht	wh/0053.bmp
422.64	0.72	578	5	5	21	mem	lib	mod	mod	low	nt	ht	nh/0760_nh.bmp
423.36	0.72	579	4	5	100	per	con	mod	mod	mod	nt	cr	nh/0548_nh.bmp
424.08	0.72	580	4	8	40	per	lib	low	mod	low	tg	ht	wh/0608.bmp
424.80	0.72	581	5	5	4	mem	con	mod	mod	low	tg	ms	wh/0299.bmp
425.52	0.72	582	5	6	93	mem	con	mod	mod	mod	tg	ht	wh/0182.bmp
426.24	0.72	583	4	8	5	per	lib	mod	mod	mod	tg	ht	wh/0398.bmp
426.96	0.72	584	5	8	111	mem	lib	mod	mod	low	nt	ht	nh/0660_nh.bmp
427.68	0.72	585	2	5	29	mem	lib	mod	mod	low	tg	ht	wh/0036.bmp
428.40	0.72	586	3	6	53	per	lib	low	mod	low	tg	ht	wh/0150.bmp
429.12	0.72	587	5	8	41	per	lib	low	mod	low	nt	fa	nh/0493_nh.bmp
429.84	0.72	588	4	7	53	per	con	low	mod	low	nt	cr	nh/0465_nh.bmp
430.56	0.72	589	4	8	72	per	con	mod	mod	mod	nt	cr	nh/0588_nh.bmp
431.28	0.72	590	1	5	121	mem	lib	low	low	mod	nt	ht	nh/0849_nh.bmp
432.00	0.72	591	4	8	66	per	con	mod	mod	mod	tg	ht	wh/0697.bmp
432.72	0.72	592	5	6	54	per	lib	low	mod	low	nt	cr	nh/0417_nh.bmp
433.44	0.72	593	5	6	35	per	con	low	mod	low	nt	cr	nh/0568_nh.bmp
434.16	0.72	594	6	8	111	mem	lib	mod	mod	low	nt	ht	nh/0660_nh.bmp
434.88	0.72	595	4	7	56	per	con	low	mod	low	nt	cr	nh/0238_nh.bmp
435.60	0.72	596	5	6	39	per	con	low	mod	low	nt	fa	nh/0577_nh.bmp
436.32	0.72	597	4	8	71	per	con	mod	mod	mod	nt	cr	nh/0396_nh.bmp
437.04	0.72	598	4	5	110	per	con	mod	mod	mod	nt	cr	nh/0563_nh.bmp
437.76	0.72	599	1	5	124	mem	lib	low	low	mod	tg	ht	wh/1018.bmp
438.48	0.72	600	6	6	90	mem	con	mod	mod	mod	nt	ht	nh/0428_nh.bmp
439.20	0.72	601	2	8	16	per	lib	mod	mod	mod	nt	cr	nh/0795_nh.bmp
439.92	0.72	602	3	7	97	mem	con	mod	mod	low	nt	ms	nh/0355_nh.bmp
440.64	0.72	603	4	7	97	mem	con	mod	mod	low	nt	ms	nh/0355_nh.bmp
441.36	0.72	604	4	8	48	per	lib	low	mod	low	tg	ht	wh/0082.bmp
442.08	0.72	605	3	5	7	mem	con	mod	mod	low	nt	ht	nh/0338_nh.bmp
442.80	0.72	606	5	5	23	mem	lib	mod	mod	low	tg	ht	wh/0077.bmp
443.52	0.72	607	5	7	74	mem	lib	mod	mod	mod	tg	ht	wh/0542.bmp
444.24	0.72	608	1	7	33	per	con	mod	low	mod	tg	ms	wh/0933.bmp
444.96	0.72	609	1	5	122	mem	lib	low	low	mod	tg	ms	wh/0838.bmp
445.68	0.72	610	1	6	24	mem	lib	low	low	low	tg	ht	wh/0090.bmp
446.40	0.72	611	1	7	81	mem	con	low	low	mod	nt	ht	nh/0520_nh.bmp
447.12	0.72	612	1	5	62	per	lib	low	low	low	tg	ht	wh/1007.bmp
447.84	0.72	613	3	6	57	per	lib	low	mod	low	nt	fa	nh/0613_nh.bmp
448.56	0.72	614	1	8	117	mem	con	low	low	low	tg	ms	wh/0507.bmp
449.28	0.72	615	1	6	106	mem	con	low	low	mod	tg	ms	wh/0860.bmp
450.00	0.72	616	5	8	77	per	con	mod	mod	mod	nt	fa	nh/0843_nh.bmp
450.72	0.72	617	3	7	106	mem	con	mod	mod	low	nt	ht	nh/0404_nh.bmp
451.44	0.72	618	4	7	110	mem	con	mod	mod	low	nt	ht	nh/0730_nh.bmp
452.16	0.72	619	1	5	77	mem	con	low	low	low	nt	ms	nh/0768_nh.bmp
452.88	0.72	620	4	7	106	mem	con	mod	mod	low	nt	ht	nh/0404_nh.bmp
453.60	0.72	621	5	5	99	per	con	mod	mod	mod	nt	cr	nh/0784_nh.bmp
454.32	0.72	622	5	5	10	mem	con	mod	mod	low	nt	ms	nh/0510_nh.bmp
455.04	0.72	623	3	5	29	mem	lib	mod	mod	low	tg	ht	wh/0036.bmp
455.76	0.72	624	3	5	27	mem	lib	mod	mod	low	tg	ht	wh/0818.bmp
456.48	0.72	625	3	8	34	per	lib	low	mod	low	tg	ms	wh/0635.bmp
457.20	0.72	626	5	6	2	mem	lib	mod	mod	mod	nt	ht	nh/0909_nh.bmp
457.92	0.72	627	6	8	90	mem	con	mod	mod	mod	nt	ms	nh/0874_nh.bmp
458.64	0.72	628	6	7	80	mem	lib	mod	mod	mod	tg	ht	wh/0680.bmp
459.36	0.72	629	5	7	62	per	con	low	mod	low	tg	ms	wh/0074.bmp
460.08	0.72	630	3	7	109	mem	con	mod	mod	low	tg	ht	wh/0364.bmp
460.80	0.72	631	1	7	34	per	con	mod	low	mod	tg	ht	wh/0774.bmp
461.52	0.72	632	2	6	82	mem	con	mod	mod	mod	nt	ht	nh/0209_nh.bmp
462.24	0.72	633	5	8	71	per	con	mod	mod	mod	nt	cr	nh/0396_nh.bmp
462.96	0.72	634	4	6	53	per	lib	low	mod	low	tg	ht	wh/0150.bmp
463.68	0.72	635	6	5	22	mem	lib	mod	mod	low	nt	ht	nh/0443_nh.bmp
464.40	0.72	636	3	6	37	per	con	low	mod	low	tg	ms	wh/0489.bmp
465.12	0.72	637	5	8	112	mem	lib	mod	mod	low	tg	ht	wh/0646.bmp
465.84	0.72	638	6	7	71	mem	lib	mod	mod	mod	nt	ms	nh/0196_nh.bmp
466.56	0.72	639	4	7	70	mem	lib	mod	mod	mod	nt	ms	nh/0099_nh.bmp
467.28	0.72	640	4	7	50	per	con	low	mod	low	nt	fa	nh/0125_nh.bmp
468.00	0.72	641	5	8	97	mem	lib	mod	mod	low	nt	ht	nh/0194_nh.bmp
468.72	0.72	642	5	6	81	mem	con	mod	mod	mod	tg	ht	wh/0810.bmp
469.44	0.72	643	4	5	34	per	lib	mod	mod	mod	nt	cr	nh/0946_nh.bmp
470.16	0.72	644	4	6	37	per	con	low	mod	low	tg	ms	wh/0489.bmp
470.88	0.72	645	5	6	64	per	lib	low	mod	low	nt	fa	nh/0153_nh.bmp
471.60	0.72	646	5	7	97	mem	con	mod	mod	low	nt	ms	nh/0355_nh.bmp
472.32	0.72	647	5	8	65	per	con	mod	mod	mod	tg	ms	wh/0954.bmp
473.04	0.72	648	4	6	13	mem	lib	mod	mod	mod	nt	ht	nh/0928_nh.bmp
473.76	0.72	649	1	7	1	per	lib	low	low	low	tg	ht	wh/0655.bmp
474.48	0.72	650	6	5	99	per	con	mod	mod	mod	nt	cr	nh/0784_nh.bmp
475.20	0.72	651	5	5	18	mem	lib	mod	mod	low	tg	ms	wh/0232.bmp
475.92	0.72	652	6	5	106	per	con	mod	mod	mod	tg	ms	wh/0973.bmp
476.64	0.72	653	1	5	55	per	lib	low	low	low	tg	ms	wh/0431.bmp
477.36	0.72	654	1	6	73	per	con	mod	low	mod	nt	cr	nh/0708_nh.bmp
478.08	0.72	655	5	7	75	mem	lib	mod	mod	mod	nt	ht	nh/0714_nh.bmp
478.80	0.72	656	4	6	16	mem	lib	mod	mod	mod	tg	ht	wh/0807.bmp
479.52	0.72	657	4	5	29	mem	lib	mod	mod	low	tg	ht	wh/0036.bmp
480.24	0.72	658	3	7	57	per	con	low	mod	low	tg	ms	wh/0967.bmp
480.96	0.72	659	6	5	38	per	lib	mod	mod	mod	tg	ht	wh/0558.bmp
481.68	0.72	660	4	7	57	per	con	low	mod	low	tg	ms	wh/0967.bmp
482.40	0.72	661	6	7	62	per	con	low	mod	low	tg	ms	wh/0074.bmp
483.12	0.72	662	4	8	79	per	con	mod	mod	mod	nt	cr	nh/0497_nh.bmp
483.84	0.72	663	5	8	88	mem	con	mod	mod	mod	tg	ht	wh/0094.bmp
484.56	0.72	664	5	8	107	mem	lib	mod	mod	low	tg	ht	wh/0032.bmp
485.28	0.72	665	6	6	39	per	con	low	mod	low	nt	fa	nh/0577_nh.bmp
486.00	0.72	666	5	7	53	per	con	low	mod	low	nt	cr	nh/0465_nh.bmp
486.72	0.72	667	5	8	80	per	con	mod	mod	mod	tg	ht	wh/0876.bmp
487.44	0.72	668	1	6	113	per	lib	mod	low	mod	tg	ht	wh/0469.bmp
488.16	0.72	669	5	6	34	per	con	low	mod	low	tg	ms	wh/0029.bmp
488.88	0.72	670	5	8	48	per	lib	low	mod	low	tg	ht	wh/0082.bmp
489.60	0.72	671	3	7	68	mem	lib	mod	mod	mod	tg	ht	wh/0594.bmp
490.32	0.72	672	5	7	110	mem	con	mod	mod	low	nt	ht	nh/0730_nh.bmp
491.04	0.72	673	5	5	2	mem	con	mod	mod	low	nt	ms	nh/0345_nh.bmp
491.76	0.72	674	5	7	106	mem	con	mod	mod	low	nt	ht	nh/0404_nh.bmp
492.48	0.72	675	5	5	1	mem	con	mod	mod	low	tg	ms	wh/0284.bmp
493.20	0.72	676	5	7	70	mem	lib	mod	mod	mod	nt	ms	nh/0099_nh.bmp
493.92	0.72	677	1	6	32	mem	lib	low	low	low	nt	ht	nh/0088_nh.bmp
494.64	0.72	678	5	8	42	per	lib	low	mod	low	tg	ms	wh/0964.bmp
495.36	0.72	679	3	8	110	mem	lib	mod	mod	low	nt	ht	nh/0035_nh.bmp
496.08	0.72	680	6	6	93	mem	con	mod	mod	mod	tg	ht	wh/0182.bmp
496.80	0.72	681	5	6	53	per	lib	low	mod	low	tg	ht	wh/0150.bmp
497.52	0.72	682	5	6	37	per	con	low	mod	low	tg	ms	wh/0489.bmp
498.24	0.72	683	3	8	16	per	lib	mod	mod	mod	nt	cr	nh/0795_nh.bmp
498.96	0.72	684	4	7	98	mem	con	mod	mod	low	tg	ms	wh/0758.bmp
499.68	0.72	685	5	8	39	per	lib	low	mod	low	nt	cr	nh/1023_nh.bmp
500.40	0.72	686	5	8	79	per	con	mod	mod	mod	nt	cr	nh/0497_nh.bmp
501.12	0.72	687	5	5	45	per	lib	mod	mod	mod	tg	ht	wh/0339.bmp
501.84	0.72	688	5	7	56	per	con	low	mod	low	nt	cr	nh/0238_nh.bmp
502.56	0.72	689	6	8	71	per	con	mod	mod	mod	nt	cr	nh/0396_nh.bmp
503.28	0.72	690	4	8	10	per	lib	mod	mod	mod	nt	fa	nh/0684_nh.bmp
504.00	0.72	691	5	6	40	per	con	low	mod	low	nt	cr	nh/0503_nh.bmp
504.72	0.72	692	1	5	88	per	con	low	low	low	nt	cr	nh/0370_nh.bmp
505.44	0.72	693	4	5	31	mem	lib	mod	mod	low	nt	ht	nh/0690_nh.bmp
506.16	0.72	694	5	7	98	mem	con	mod	mod	low	tg	ms	wh/0758.bmp
506.88	0.72	695	5	8	86	mem	con	mod	mod	mod	nt	ht	nh/0222_nh.bmp
507.60	0.72	696	5	7	57	per	con	low	mod	low	tg	ms	wh/0967.bmp
508.32	0.72	697	3	5	108	per	con	mod	mod	mod	tg	ms	wh/0462.bmp
509.04	0.72	698	5	7	52	per	con	low	mod	low	nt	cr	nh/0383_nh.bmp
509.76	0.72	699	5	8	72	per	con	mod	mod	mod	nt	cr	nh/0588_nh.bmp
510.48	0.72	700	6	8	91	mem	con	mod	mod	mod	nt	ht	nh/0199_nh.bmp
511.20	0.72	701	5	5	109	per	con	mod	mod	mod	nt	cr	nh/0447_nh.bmp
511.92	0.72	702	4	7	103	mem	con	mod	mod	low	nt	ht	nh/0744_nh.bmp
512.64	0.72	703	1	7	36	per	con	mod	low	mod	tg	ms	wh/0281.bmp
513.36	0.72	704	4	8	12	per	lib	mod	mod	mod	tg	ms	wh/0902.bmp
514.08	0.72	705	6	6	54	per	lib	low	mod	low	nt	cr	nh/0417_nh.bmp
514.80	0.72	706	6	5	1	mem	con	mod	mod	low	tg	ms	wh/0284.bmp
515.52	0.72	707	6	6	34	per	con	low	mod	low	tg	ms	wh/0029.bmp
516.24	0.72	708	1	6	124	per	lib	mod	low	mod	nt	cr	nh/0048_nh.bmp
516.96	0.72	709	4	8	16	per	lib	mod	mod	mod	nt	cr	nh/0795_nh.bmp
517.68	0.72	710	6	7	52	per	con	low	mod	low	nt	cr	nh/0383_nh.bmp
518.40	0.72	711	4	5	33	per	lib	mod	mod	mod	nt	cr	nh/0962_nh.bmp
519.12	0.72	712	4	6	57	per	lib	low	mod	low	nt	fa	nh/0613_nh.bmp
519.84	0.72	713	5	5	110	per	con	mod	mod	mod	nt	cr	nh/0563_nh.bmp
520.56	0.72	714	5	8	100	mem	lib	mod	mod	low	tg	ht	wh/0080.bmp
521.28	0.72	715	5	6	13	mem	lib	mod	mod	mod	nt	ht	nh/0928_nh.bmp
522.00	0.72	716	5	5	9	mem	con	mod	mod	low	nt	ht	nh/0134_nh.bmp
522.72	0.72	717	5	6	16	mem	lib	mod	mod	mod	tg	ht	wh/0807.bmp
523.44	0.72	718	3	6	82	mem	con	mod	mod	mod	nt	ht	nh/0209_nh.bmp
524.16	0.72	719	5	7	103	mem	con	mod	mod	low	nt	ht	nh/0744_nh.bmp
524.88	0.72	720	5	5	29	mem	lib	mod	mod	low	tg	ht	wh/0036.bmp
525.60	0.72	721	5	6	85	mem	con	mod	mod	mod	nt	n/a	nh/0805_nh.bmp
526.32	0.72	722	6	7	110	mem	con	mod	mod	low	nt	ht	nh/0730_nh.bmp
527.04	0.72	723	5	7	50	per	con	low	mod	low	nt	fa	nh/0125_nh.bmp
527.76	0.72	724	5	8	40	per	lib	low	mod	low	tg	ht	wh/0608.bmp
528.48	0.72	725	5	5	41	per	lib	mod	mod	mod	nt	fa	nh/0748_nh.bmp
529.20	0.72	726	6	8	8	per	lib	mod	mod	mod	nt	fa	nh/0442_nh.bmp
529.92	0.72	727	4	8	14	per	lib	mod	mod	mod	nt	cr	nh/0380_nh.bmp
530.64	0.72	728	1	7	88	mem	con	low	low	mod	tg	ht	wh/0525.bmp
531.36	0.72	729	6	8	100	mem	lib	mod	mod	low	tg	ht	wh/0080.bmp
532.08	0.72	730	4	5	7	mem	con	mod	mod	low	nt	ht	nh/0338_nh.bmp
532.80	0.72	731	5	5	7	mem	con	mod	mod	low	nt	ht	nh/0338_nh.bmp
533.52	0.72	732	5	5	34	per	lib	mod	mod	mod	nt	cr	nh/0946_nh.bmp
534.24	0.72	733	5	8	10	per	lib	mod	mod	mod	nt	fa	nh/0684_nh.bmp
534.96	0.72	734	1	8	19	per	con	low	low	low	tg	ms	wh/0695.bmp
535.68	0.72	735	6	5	34	per	lib	mod	mod	mod	nt	cr	nh/0946_nh.bmp
536.40	0.72	736	4	6	82	mem	con	mod	mod	mod	nt	ht	nh/0209_nh.bmp
537.12	0.72	737	5	5	6	mem	con	mod	mod	low	tg	ms	wh/0329.bmp
537.84	0.72	738	6	8	86	mem	con	mod	mod	mod	nt	ht	nh/0222_nh.bmp
538.56	0.72	739	1	8	121	mem	con	low	low	low	tg	ms	wh/0998.bmp
539.28	0.72	740	6	5	29	mem	lib	mod	mod	low	tg	ht	wh/0036.bmp
540.00	0.72	741	5	6	57	per	lib	low	mod	low	nt	fa	nh/0613_nh.bmp
540.72	0.72	742	4	8	34	per	lib	low	mod	low	tg	ms	wh/0635.bmp
541.44	0.72	743	6	7	70	mem	lib	mod	mod	mod	nt	ms	nh/0099_nh.bmp
542.16	0.72	744	5	8	16	per	lib	mod	mod	mod	nt	cr	nh/0795_nh.bmp
542.88	0.72	745	6	8	39	per	lib	low	mod	low	nt	cr	nh/1023_nh.bmp
543.60	0.72	746	1	5	118	mem	lib	low	low	mod	tg	ms	wh/0781.bmp
544.32	0.72	747	5	5	31	mem	lib	mod	mod	low	nt	ht	nh/0690_nh.bmp
545.04	0.72	748	6	7	74	mem	lib	mod	mod	mod	tg	ht	wh/0542.bmp
545.76	0.72	749	5	8	34	per	lib	low	mod	low	tg	ms	wh/0635.bmp
546.48	0.72	750	1	5	91	per	con	low	low	low	tg	ms	wh/0815.bmp
547.20	0.72	751	5	7	63	per	con	low	mod	low	tg	ms	wh/0075.bmp
547.92	0.72	752	4	5	37	per	lib	mod	mod	mod	tg	ht	wh/0593.bmp
548.64	0.72	753	5	6	4	mem	lib	mod	mod	mod	nt	ht	nh/0803_nh.bmp
549.36	0.72	754	6	8	83	mem	con	mod	mod	mod	tg	ht	wh/0855.bmp
550.08	0.72	755	5	8	105	mem	lib	mod	mod	low	nt	ht	nh/0963_nh.bmp
550.80	0.72	756	5	8	103	mem	lib	mod	mod	low	tg	ht	wh/0940.bmp
551.52	0.72	757	6	8	46	per	lib	low	mod	low	nt	cr	nh/0934_nh.bmp
552.24	0.72	758	4	5	108	per	con	mod	mod	mod	tg	ms	wh/0462.bmp
552.96	0.72	759	6	5	6	mem	con	mod	mod	low	tg	ms	wh/0329.bmp
553.68	0.72	760	4	8	110	mem	lib	mod	mod	low	nt	ht	nh/0035_nh.bmp
554.40	0.72	761	6	7	75	mem	lib	mod	mod	mod	nt	ht	nh/0714_nh.bmp
555.12	0.72	762	6	7	101	mem	con	mod	mod	low	tg	ht	wh/0256.bmp
555.84	0.72	763	6	5	18	mem	lib	mod	mod	low	tg	ms	wh/0232.bmp
556.56	0.72	764	6	5	10	mem	con	mod	mod	low	nt	ms	nh/0510_nh.bmp
557.28	0.72	765	6	7	50	per	con	low	mod	low	nt	fa	nh/0125_nh.bmp
558.00	0.72	766	4	6	88	mem	con	mod	mod	mod	tg	ms	wh/0904.bmp
558.72	0.72	767	5	5	108	per	con	mod	mod	mod	tg	ms	wh/0462.bmp
559.44	0.72	768	4	7	109	mem	con	mod	mod	low	tg	ht	wh/0364.bmp
560.16	0.72	769	5	8	5	per	lib	mod	mod	mod	tg	ht	wh/0398.bmp
560.88	0.72	770	6	7	63	per	con	low	mod	low	tg	ms	wh/0075.bmp
561.60	0.72	771	1	6	116	per	lib	mod	low	mod	nt	cr	nh/0216_nh.bmp
562.32	0.72	772	5	6	88	mem	con	mod	mod	mod	tg	ms	wh/0904.bmp
563.04	0.72	773	6	7	103	mem	con	mod	mod	low	nt	ht	nh/0744_nh.bmp
563.76	0.72	774	6	6	88	mem	con	mod	mod	mod	tg	ms	wh/0904.bmp
564.48	0.72	775	5	5	37	per	lib	mod	mod	mod	tg	ht	wh/0593.bmp
565.20	0.72	776	6	8	65	per	con	mod	mod	mod	tg	ms	wh/0954.bmp
565.92	0.72	777	1	7	44	per	con	mod	low	mod	nt	cr	nh/0652_nh.bmp
566.64	0.72	778	5	8	110	mem	lib	mod	mod	low	nt	ht	nh/0035_nh.bmp
567.36	0.72	779	4	7	68	mem	lib	mod	mod	mod	tg	ht	wh/0594.bmp
568.08	0.72	780	5	5	44	per	lib	mod	mod	mod	tg	ht	wh/0350.bmp
568.80	0.72	781	5	8	12	per	lib	mod	mod	mod	tg	ms	wh/0902.bmp
569.52	0.72	782	6	7	106	mem	con	mod	mod	low	nt	ht	nh/0404_nh.bmp
570.24	0.72	783	6	8	77	per	con	mod	mod	mod	nt	fa	nh/0843_nh.bmp
570.96	0.72	784	4	6	9	mem	lib	mod	mod	mod	tg	ht	wh/0772.bmp
571.68	0.72	785	6	6	42	per	con	low	mod	low	tg	ms	wh/0619.bmp
572.40	0.72	786	5	6	49	per	lib	low	mod	low	tg	ht	wh/0336.bmp
573.12	0.72	787	6	5	37	per	lib	mod	mod	mod	tg	ht	wh/0593.bmp
573.84	0.72	788	4	8	6	per	lib	mod	mod	mod	tg	ht	wh/0591.bmp
574.56	0.72	789	6	5	23	mem	lib	mod	mod	low	tg	ht	wh/0077.bmp
575.28	0.72	790	6	6	49	per	lib	low	mod	low	tg	ht	wh/0336.bmp
576.00	0.72	791	6	5	35	per	lib	mod	mod	mod	nt	cr	nh/0957_nh.bmp
576.72	0.72	792	1	7	12	per	lib	low	low	low	nt	cr	nh/0536_nh.bmp
577.44	0.72	793	1	5	115	mem	lib	low	low	mod	nt	ht	nh/1024_nh.bmp
578.16	0.72	794	1	6	78	per	con	mod	low	mod	tg	n/a	wh/0290.bmp
578.88	0.72	795	6	8	110	mem	lib	mod	mod	low	nt	ht	nh/0035_nh.bmp
579.60	0.72	796	6	8	12	per	lib	mod	mod	mod	tg	ms	wh/0902.bmp
580.32	0.72	797	6	5	21	mem	lib	mod	mod	low	nt	ht	nh/0760_nh.bmp
581.04	0.72	798	6	5	111	per	con	mod	mod	mod	tg	ht	wh/0397.bmp
581.76	0.72	799	5	5	100	per	con	mod	mod	mod	nt	cr	nh/0548_nh.bmp
582.48	0.72	800	5	8	14	per	lib	mod	mod	mod	nt	cr	nh/0380_nh.bmp
583.20	0.72	801	5	8	44	per	lib	low	mod	low	nt	fa	nh/0123_nh.bmp
583.92	0.72	802	5	8	4	per	lib	mod	mod	mod	tg	ht	wh/0328.bmp
584.64	0.72	803	6	8	14	per	lib	mod	mod	mod	nt	cr	nh/0380_nh.bmp
585.36	0.72	804	6	6	40	per	con	low	mod	low	nt	cr	nh/0503_nh.bmp
586.08	0.72	805	6	8	79	per	con	mod	mod	mod	nt	cr	nh/0497_nh.bmp
586.80	0.72	806	6	6	50	per	lib	low	mod	low	nt	fa	nh/0802_nh.bmp
587.52	0.72	807	6	7	98	mem	con	mod	mod	low	tg	ms	wh/0758.bmp
588.24	0.72	808	5	7	68	mem	lib	mod	mod	mod	tg	ht	wh/0594.bmp
588.96	0.72	809	5	6	47	per	con	low	mod	low	nt	cr	nh/0508_nh.bmp
589.68	0.72	810	6	5	11	mem	con	mod	mod	low	tg	ht	wh/0382.bmp
590.40	0.72	811	6	5	31	mem	lib	mod	mod	low	nt	ht	nh/0690_nh.bmp
591.12	0.72	812	1	5	59	per	lib	low	low	low	nt	fa	nh/0215_nh.bmp
591.84	0.72	813	6	8	48	per	lib	low	mod	low	tg	ht	wh/0082.bmp
592.56	0.72	814	6	6	37	per	con	low	mod	low	tg	ms	wh/0489.bmp
593.28	0.72	815	6	5	41	per	lib	mod	mod	mod	nt	fa	nh/0748_nh.bmp
594.00	0.72	816	6	6	53	per	lib	low	mod	low	tg	ht	wh/0150.bmp
594.72	0.72	817	6	5	44	per	lib	mod	mod	mod	tg	ht	wh/0350.bmp
595.44	0.72	818	6	5	19	mem	lib	mod	mod	low	nt	ht	nh/0361_nh.bmp
596.16	0.72	819	5	7	109	mem	con	mod	mod	low	tg	ht	wh/0364.bmp
596.88	0.72	820	6	8	80	per	con	mod	mod	mod	tg	ht	wh/0876.bmp
597.60	0.72	821	6	8	112	mem	lib	mod	mod	low	tg	ht	wh/0646.bmp
598.32	0.72	822	5	6	82	mem	con	mod	mod	mod	nt	ht	nh/0209_nh.bmp
599.04	0.72	823	5	6	9	mem	lib	mod	mod	mod	tg	ht	wh/0772.bmp
599.76	0.72	824	6	6	85	mem	con	mod	mod	mod	nt	n/a	nh/0805_nh.bmp
600.48	0.72	825	6	6	64	per	lib	low	mod	low	nt	fa	nh/0153_nh.bmp
601.20	0.72	826	5	5	33	per	lib	mod	mod	mod	nt	cr	nh/0962_nh.bmp
601.92	0.72	827	6	8	72	per	con	mod	mod	mod	nt	cr	nh/0588_nh.bmp
602.64	0.72	828	5	8	6	per	lib	mod	mod	mod	tg	ht	wh/0591.bmp
603.36	0.72	829	6	5	4	mem	con	mod	mod	low	tg	ms	wh/0299.bmp
604.08	0.72	830	6	7	57	per	con	low	mod	low	tg	ms	wh/0967.bmp
604.80	0.72	831	6	7	56	per	con	low	mod	low	nt	cr	nh/0238_nh.bmp
605.52	0.72	832	6	8	103	mem	lib	mod	mod	low	tg	ht	wh/0940.bmp
606.24	0.72	833	6	5	9	mem	con	mod	mod	low	nt	ht	nh/0134_nh.bmp
606.96	0.72	834	6	5	109	per	con	mod	mod	mod	nt	cr	nh/0447_nh.bmp
607.68	0.72	835	1	7	113	per	lib	mod	low	mod	tg	ms	wh/0626.bmp
608.40	0.72	836	6	7	60	per	con	low	mod	low	tg	ms	wh/0190.bmp
609.12	0.72	837	6	6	4	mem	lib	mod	mod	mod	nt	ht	nh/0803_nh.bmp
609.84	0.72	838	5	6	59	per	lib	low	mod	low	tg	ht	wh/0451.bmp
610.56	0.72	839	6	6	35	per	con	low	mod	low	nt	cr	nh/0568_nh.bmp
611.28	0.72	840	6	6	9	mem	lib	mod	mod	mod	tg	ht	wh/0772.bmp
612.00	0.72	841	6	5	108	per	con	mod	mod	mod	tg	ms	wh/0462.bmp
612.72	0.72	842	5	8	66	per	con	mod	mod	mod	tg	ht	wh/0697.bmp
613.44	0.72	843	6	7	79	mem	lib	mod	mod	mod	tg	ht	wh/0543.bmp
614.16	0.72	844	6	6	2	mem	lib	mod	mod	mod	nt	ht	nh/0909_nh.bmp
614.88	0.72	845	6	5	98	per	con	mod	mod	mod	tg	ms	wh/0947.bmp
615.60	0.72	846	6	6	56	per	lib	low	mod	low	tg	ht	wh/0079.bmp
616.32	0.72	847	6	8	4	per	lib	mod	mod	mod	tg	ht	wh/0328.bmp
617.04	0.72	848	1	7	13	per	lib	low	low	low	tg	ht	wh/0158.bmp
617.76	0.72	849	6	8	88	mem	con	mod	mod	mod	tg	ht	wh/0094.bmp
618.48	0.72	850	6	8	105	mem	lib	mod	mod	low	nt	ht	nh/0963_nh.bmp
619.20	0.72	851	6	8	97	mem	lib	mod	mod	low	nt	ht	nh/0194_nh.bmp
619.92	0.72	852	6	8	44	per	lib	low	mod	low	nt	fa	nh/0123_nh.bmp
620.64	0.72	853	6	6	47	per	con	low	mod	low	nt	cr	nh/0508_nh.bmp
621.36	0.72	854	6	8	10	per	lib	mod	mod	mod	nt	fa	nh/0684_nh.bmp
622.08	0.72	855	6	7	53	per	con	low	mod	low	nt	cr	nh/0465_nh.bmp
622.80	0.72	856	6	6	82	mem	con	mod	mod	mod	nt	ht	nh/0209_nh.bmp
623.52	0.72	857	6	8	34	per	lib	low	mod	low	tg	ms	wh/0635.bmp
624.24	0.72	858	6	6	59	per	lib	low	mod	low	tg	ht	wh/0451.bmp
624.96	0.72	859	6	5	45	per	lib	mod	mod	mod	tg	ht	wh/0339.bmp
625.68	0.72	860	6	8	41	per	lib	low	mod	low	nt	fa	nh/0493_nh.bmp
626.40	0.72	861	1	8	59	mem	lib	low	low	low	nt	ht	nh/0437_nh.bmp
627.12	0.72	862	6	8	40	per	lib	low	mod	low	tg	ht	wh/0608.bmp
627.84	0.72	863	6	8	93	mem	con	mod	mod	mod	tg	ms	wh/0319.bmp
628.56	0.72	864	6	6	13	mem	lib	mod	mod	mod	nt	ht	nh/0928_nh.bmp
629.28	0.72	865	1	6	125	per	lib	mod	low	mod	tg	ms	wh/0419.bmp
630.00	0.72	866	6	6	95	mem	con	mod	mod	mod	tg	ht	wh/0650.bmp
630.72	0.72	867	6	7	68	mem	lib	mod	mod	mod	tg	ht	wh/0594.bmp
631.44	0.72	868	1	7	24	mem	lib	low	low	mod	nt	ht	nh/0092_nh.bmp
632.16	0.72	869	6	6	81	mem	con	mod	mod	mod	tg	ht	wh/0810.bmp
632.88	0.72	870	6	6	57	per	lib	low	mod	low	nt	fa	nh/0613_nh.bmp
633.60	0.72	871	6	6	16	mem	lib	mod	mod	mod	tg	ht	wh/0807.bmp
634.32	0.72	872	6	7	109	mem	con	mod	mod	low	tg	ht	wh/0364.bmp
635.04	0.72	873	6	8	107	mem	lib	mod	mod	low	tg	ht	wh/0032.bmp
635.76	0.72	874	6	8	5	per	lib	mod	mod	mod	tg	ht	wh/0398.bmp
636.48	0.72	875	1	5	64	per	lib	low	low	low	nt	fa	nh/0528_nh.bmp
637.20	0.72	876	1	5	117	mem	lib	low	low	mod	nt	ht	nh/0461_nh.bmp
637.92	0.72	877	1	7	3	per	lib	low	low	low	nt	cr	nh/0691_nh.bmp
638.64	0.72	878	6	5	100	per	con	mod	mod	mod	nt	cr	nh/0548_nh.bmp
639.36	0.72	879	6	8	6	per	lib	mod	mod	mod	tg	ht	wh/0591.bmp
640.08	0.72	880	1	5	93	per	con	low	low	low	nt	fa	nh/0930_nh.bmp
640.80	0.72	881	1	5	81	per	con	low	low	low	tg	ms	wh/0185.bmp
641.52	0.72	882	6	5	33	per	lib	mod	mod	mod	nt	cr	nh/0962_nh.bmp
642.24	0.72	883	4	5	27	mem	lib	mod	mod	low	tg	ht	wh/0818.bmp
642.96	0.72	884	5	5	27	mem	lib	mod	mod	low	tg	ht	wh/0818.bmp
643.68	0.72	885	6	8	66	per	con	mod	mod	mod	tg	ht	wh/0697.bmp
644.40	0.72	886	6	7	97	mem	con	mod	mod	low	nt	ms	nh/0355_nh.bmp
645.12	0.72	887	6	5	110	per	con	mod	mod	mod	nt	cr	nh/0563_nh.bmp
645.84	0.72	888	1	8	56	mem	lib	low	low	low	nt	ht	nh/0173_nh.bmp
646.56	0.72	889	1	6	127	per	lib	mod	low	mod	tg	ht	wh/0923.bmp
647.28	0.72	890	6	8	16	per	lib	mod	mod	mod	nt	cr	nh/0795_nh.bmp
648.00	0.72	891	6	5	27	mem	lib	mod	mod	low	tg	ht	wh/0818.bmp
648.72	0.72	892	6	8	42	per	lib	low	mod	low	tg	ms	wh/0964.bmp
649.44	0.72	893	6	5	2	mem	con	mod	mod	low	nt	ms	nh/0345_nh.bmp
650.16	0.72	894	6	5	7	mem	con	mod	mod	low	nt	ht	nh/0338_nh.bmp
650.88	0.72	895	1	7	116	per	lib	mod	low	mod	nt	fa	nh/0693_nh.bmp
651.60	0.72	896	1	6	122	per	lib	mod	low	mod	nt	cr	nh/0992_nh.bmp
