onset	duration	trial	pres	ts_blk	ts_trl	task	crit	disc	mem_disc	per_disc	per_type	accuracy	stim_file
7.20	0.72	1	1	4	89	per	lib	mod	mod	mod	tg	ht	wh/0628.bmp
7.92	0.72	2	1	2	121	per	lib	low	mod	low	tg	ht	wh/0703.bmp
8.64	0.72	3	1	1	117	mem	lib	mod	mod	low	tg	ht	wh/0512.bmp
9.36	0.72	4	1	1	121	mem	lib	mod	mod	low	tg	ht	wh/0976.bmp
10.08	0.72	5	1	3	23	per	lib	low	mod	low	tg	ht	wh/0882.bmp
10.80	0.72	6	1	2	74	per	con	low	mod	low	nt	cr	nh/0315_nh.bmp
11.52	0.72	7	1	3	1	mem	con	low	low	low	nt	ms	nh/0107_nh.bmp
12.24	0.72	8	1	1	6	per	lib	mod	mod	mod	nt	cr	nh/0061_nh.bmp
12.96	0.72	9	1	3	59	per	lib	mod	low	mod	nt	fa	nh/0917_nh.bmp
13.68	0.72	10	1	2	114	per	lib	low	mod	low	nt	cr	nh/1000_nh.bmp
14.40	0.72	11	1	3	85	mem	con	mod	mod	mod	nt	ht	nh/0576_nh.bmp
15.12	0.72	12	1	4	112	mem	con	mod	mod	low	tg	ms	wh/0415.bmp
15.84	0.72	13	1	1	88	per	con	low	low	low	nt	fa	nh/0819_nh.bmp
16.56	0.72	14	1	2	101	mem	con	mod	mod	mod	nt	ht	nh/0445_nh.bmp
17.28	0.72	15	1	2	123	per	lib	low	mod	low	nt	fa	nh/0195_nh.bmp
18.00	0.72	16	2	2	123	per	lib	low	mod	low	nt	fa	nh/0195_nh.bmp
18.72	0.72	17	1	2	109	mem	con	mod	mod	mod	tg	ms	wh/0151.bmp
19.44	0.72	18	1	3	119	per	con	low	mod	low	tg	ms	wh/0459.bmp
20.16	0.72	19	1	4	96	per	lib	mod	mod	mod	nt	cr	nh/0097_nh.bmp
20.88	0.72	20	1	2	78	per	con	low	mod	low	tg	ht	wh/0410.bmp
21.60	0.72	21	2	1	121	mem	lib	mod	mod	low	tg	ht	wh/0976.bmp
22.32	0.72	22	1	3	75	mem	lib	low	low	mod	nt	ht	nh/0555_nh.bmp
23.04	0.72	23	1	4	31	per	con	mod	mod	mod	nt	cr	nh/0665_nh.bmp
23.76	0.72	24	1	3	15	mem	con	low	low	low	nt	ms	nh/0908_nh.bmp
24.48	0.72	25	1	4	44	mem	lib	low	low	low	nt	ht	nh/0369_nh.bmp
25.20	0.72	26	1	3	40	mem	lib	mod	mod	low	nt	ht	nh/0323_nh.bmp
25.92	0.72	27	1	2	107	mem	con	mod	mod	mod	tg	ht	wh/0343.bmp
26.64	0.72	28	1	2	23	mem	lib	low	low	low	tg	ht	wh/0484.bmp
27.36	0.72	29	1	3	127	per	con	low	mod	low	tg	ms	wh/0293.bmp
28.08	0.72	30	1	3	116	per	con	low	mod	low	nt	cr	nh/0765_nh.bmp
28.80	0.72	31	1	3	81	mem	con	mod	mod	mod	tg	ht	wh/0071.bmp
29.52	0.72	32	1	2	69	per	con	low	mod	low	tg	ht	wh/0030.bmp
30.24	0.72	33	1	4	116	mem	lib	mod	mod	mod	tg	ht	wh/0413.bmp
30.96	0.72	34	1	2	24	mem	lib	low	low	low	tg	ht	wh/0565.bmp
31.68	0.72	35	1	1	43	mem	con	mod	mod	low	tg	ms	wh/0390.bmp
32.40	0.72	36	1	3	33	mem	lib	mod	mod	low	tg	ht	wh/0661.bmp
33.12	0.72	37	1	4	32	per	con	mod	mod	mod	tg	ht	wh/0961.bmp
33.84	0.72	38	2	3	33	mem	lib	mod	mod	low	tg	ht	wh/0661.bmp
34.56	0.72	39	1	3	87	mem	con	mod	mod	mod	tg	ht	wh/0901.bmp
35.28	0.72	40	1	2	4	per	con	mod	low	mod	tg	ms	wh/0985.bmp
36.00	0.72	41	1	4	24	per	con	mod	mod	mod	nt	cr	nh/0925_nh.bmp
36.72	0.72	42	1	3	37	mem	lib	mod	mod	low	tg	ht	wh/0124.bmp
37.44	0.72	43	2	2	74	per	con	low	mod	low	nt	cr	nh/0315_nh.bmp
38.16	0.72	44	2	3	116	per	con	low	mod	low	nt	cr	nh/0765_nh.bmp
38.88	0.72	45	2	4	116	mem	lib	mod	mod	mod	tg	ht	wh/0413.bmp
39.60	0.72	46	2	2	101	mem	con	mod	mod	mod	nt	ht	nh/0445_nh.bmp
40.32	0.72	47	1	2	80	per	con	low	mod	low	nt	cr	nh/0575_nh.bmp
41.04	0.72	48	1	2	71	per	con	low	mod	low	tg	ms	wh/0166.bmp
41.76	0.72	49	2	2	114	per	lib	low	mod	low	nt	cr	nh/1000_nh.bmp
42.48	0.72	50	2	2	71	per	con	low	mod	low	tg	ms	wh/0166.bmp
43.20	0.72	51	1	1	39	mem	con	mod	mod	low	nt	ms	nh/0615_nh.bmp
43.92	0.72	52	1	1	55	mem	lib	low	low	mod	tg	ms	wh/0230.bmp
44.64	0.72	53	1	4	43	mem	lib	low	low	low	tg	ht	wh/0327.bmp
45.36	0.72	54	1	4	115	mem	lib	mod	mod	mod	nt	ht	nh/0348_nh.bmp
46.08	0.72	55	1	1	35	mem	con	mod	mod	low	nt	ht	nh/0798_nh.bmp
46.80	0.72	56	1	4	127	mem	lib	mod	mod	mod	tg	ht	wh/0761.bmp
47.52	0.72	57	1	1	29	per	con	mod	mod	mod	nt	cr	nh/0806_nh.bmp
48.24	0.72	58	1	1	3	per	lib	mod	mod	mod	tg	ht	wh/0931.bmp
48.96	0.72	59	1	2	68	per	con	low	mod	low	tg	ht	wh/0246.bmp
49.68	0.72	60	1	1	14	per	lib	mod	mod	mod	tg	ht	wh/0049.bmp
50.40	0.72	61	1	1	26	per	con	mod	mod	mod	tg	ht	wh/0664.bmp
51.12	0.72	62	2	1	39	mem	con	mod	mod	low	nt	ms	nh/0615_nh.bmp
51.84	0.72	63	1	2	117	per	lib	low	mod	low	tg	ht	wh/0641.bmp
52.56	0.72	64	1	2	83	mem	lib	mod	mod	mod	tg	ht	wh/0809.bmp
53.28	0.72	65	1	4	77	per	con	low	low	low	nt	cr	nh/0250_nh.bmp
54.00	0.72	66	1	2	63	per	lib	mod	low	mod	tg	ht	wh/0557.bmp
54.72	0.72	67	2	3	85	mem	con	mod	mod	mod	nt	ht	nh/0576_nh.bmp
55.44	0.72	68	2	2	83	mem	lib	mod	mod	mod	tg	ht	wh/0809.bmp
56.16	0.72	69	1	1	36	mem	con	mod	mod	low	nt	ht	nh/0236_nh.bmp
56.88	0.72	70	1	3	19	per	lib	low	mod	low	nt	fa	nh/0259_nh.bmp
57.60	0.72	71	2	3	23	per	lib	low	mod	low	tg	ht	wh/0882.bmp
58.32	0.72	72	1	1	18	per	con	mod	mod	mod	nt	cr	nh/0479_nh.bmp
59.04	0.72	73	1	3	21	per	lib	low	mod	low	nt	cr	nh/0422_nh.bmp
59.76	0.72	74	1	4	2	per	lib	low	low	low	nt	fa	nh/0375_nh.bmp
60.48	0.72	75	1	3	70	mem	lib	low	low	mod	tg	ht	wh/0208.bmp
61.20	0.72	76	1	3	95	mem	con	mod	mod	mod	nt	ht	nh/1006_nh.bmp
61.92	0.72	77	2	3	127	per	con	low	mod	low	tg	ms	wh/0293.bmp
62.64	0.72	78	3	2	123	per	lib	low	mod	low	nt	fa	nh/0195_nh.bmp
63.36	0.72	79	2	2	78	per	con	low	mod	low	tg	ht	wh/0410.bmp
64.08	0.72	80	1	2	77	per	con	low	mod	low	nt	cr	nh/0509_nh.bmp
64.80	0.72	81	1	1	47	mem	con	mod	mod	low	nt	ms	nh/0424_nh.bmp
65.52	0.72	82	2	4	115	mem	lib	mod	mod	mod	nt	ht	nh/0348_nh.bmp
66.24	0.72	83	2	1	26	per	con	mod	mod	mod	tg	ht	wh/0664.bmp
66.96	0.72	84	1	2	115	per	lib	low	mod	low	tg	ht	wh/0454.bmp
67.68	0.72	85	1	2	93	mem	lib	mod	mod	mod	tg	ms	wh/0039.bmp
68.40	0.72	86	1	4	39	mem	lib	low	low	low	nt	ht	nh/0161_nh.bmp
69.12	0.72	87	1	2	113	per	lib	low	mod	low	nt	cr	nh/0400_nh.bmp
69.84	0.72	88	1	3	4	mem	con	low	low	low	tg	ht	wh/0211.bmp
70.56	0.72	89	1	1	48	mem	con	mod	mod	low	tg	ms	wh/0131.bmp
71.28	0.72	90	1	3	96	mem	con	mod	mod	mod	nt	ms	nh/0487_nh.bmp
72.00	0.72	91	1	1	4	per	lib	mod	mod	mod	nt	cr	nh/0427_nh.bmp
72.72	0.72	92	1	1	37	mem	con	mod	mod	low	tg	ht	wh/0291.bmp
73.44	0.72	93	1	2	92	mem	lib	mod	mod	mod	tg	ht	wh/0477.bmp
74.16	0.72	94	2	2	93	mem	lib	mod	mod	mod	tg	ms	wh/0039.bmp
74.88	0.72	95	1	2	128	per	lib	low	mod	low	nt	fa	nh/0283_nh.bmp
75.60	0.72	96	1	4	102	mem	con	mod	mod	low	tg	ht	wh/0444.bmp
76.32	0.72	97	1	4	92	per	lib	mod	mod	mod	nt	cr	nh/0313_nh.bmp
77.04	0.72	98	3	4	116	mem	lib	mod	mod	mod	tg	ht	wh/0413.bmp
77.76	0.72	99	1	3	29	per	lib	low	mod	low	tg	ht	wh/0302.bmp
78.48	0.72	100	1	2	86	mem	lib	mod	mod	mod	tg	ht	wh/0861.bmp
79.20	0.72	101	1	4	125	mem	lib	mod	mod	mod	nt	ht	nh/0583_nh.bmp
79.92	0.72	102	1	4	91	per	lib	mod	mod	mod	tg	ht	wh/0333.bmp
80.64	0.72	103	1	2	99	mem	con	mod	mod	mod	tg	ms	wh/0705.bmp
81.36	0.72	104	1	4	18	per	con	mod	mod	mod	nt	cr	nh/0279_nh.bmp
82.08	0.72	105	2	1	48	mem	con	mod	mod	low	tg	ms	wh/0131.bmp
82.80	0.72	106	1	1	120	mem	lib	mod	mod	low	tg	ht	wh/0683.bmp
83.52	0.72	107	1	4	100	mem	con	mod	mod	low	nt	ht	nh/0007_nh.bmp
84.24	0.72	108	3	1	121	mem	lib	mod	mod	low	tg	ht	wh/0976.bmp
84.96	0.72	109	1	2	82	mem	lib	mod	mod	mod	nt	ht	nh/0834_nh.bmp
85.68	0.72	110	1	1	103	mem	con	low	low	low	tg	ms	wh/0242.bmp
86.40	0.72	111	2	3	81	mem	con	mod	mod	mod	tg	ht	wh/0071.bmp
87.12	0.72	112	1	3	71	mem	lib	low	low	mod	nt	ht	nh/0050_nh.bmp
87.84	0.72	113	1	1	80	per	lib	low	low	low	tg	ms	wh/0808.bmp
88.56	0.72	114	1	4	93	per	lib	mod	mod	mod	nt	cr	nh/0331_nh.bmp
89.28	0.72	115	3	3	116	per	con	low	mod	low	nt	cr	nh/0765_nh.bmp
90.00	0.72	116	1	4	118	mem	lib	mod	mod	mod	tg	ms	wh/0983.bmp
90.72	0.72	117	1	1	127	mem	lib	mod	mod	low	nt	ht	nh/0174_nh.bmp
91.44	0.72	118	4	1	121	mem	lib	mod	mod	low	tg	ht	wh/0976.bmp
92.16	0.72	119	2	2	113	per	lib	low	mod	low	nt	cr	nh/0400_nh.bmp
92.88	0.72	120	1	4	88	per	lib	mod	mod	mod	nt	cr	nh/0359_nh.bmp
93.60	0.72	121	2	1	18	per	con	mod	mod	mod	nt	cr	nh/0479_nh.bmp
94.32	0.72	122	2	1	36	mem	con	mod	mod	low	nt	ht	nh/0236_nh.bmp
95.04	0.72	123	1	1	113	mem	lib	mod	mod	low	tg	ht	wh/0792.bmp
95.76	0.72	124	1	2	108	mem	con	mod	mod	mod	nt	ht	nh/0282_nh.bmp
96.48	0.72	125	1	3	90	mem	con	mod	mod	mod	nt	ms	nh/1010_nh.bmp
97.20	0.72	126	1	4	60	mem	con	low	low	mod	tg	ms	wh/0950.bmp
97.92	0.72	127	1	1	100	mem	con	low	low	low	nt	ms	nh/0500_nh.bmp
98.64	0.72	128	1	1	25	per	con	mod	mod	mod	nt	cr	nh/0689_nh.bmp
99.36	0.72	129	1	1	124	mem	lib	mod	mod	low	nt	ms	nh/0067_nh.bmp
100.08	0.72	130	1	2	48	mem	con	low	low	mod	tg	ms	wh/0726.bmp
100.80	0.72	131	2	1	37	mem	con	mod	mod	low	tg	ht	wh/0291.bmp
101.52	0.72	132	1	1	54	mem	lib	low	low	mod	nt	ht	nh/0214_nh.bmp
102.24	0.72	133	2	4	127	mem	lib	mod	mod	mod	tg	ht	wh/0761.bmp
102.96	0.72	134	1	3	94	mem	con	mod	mod	mod	tg	ht	wh/0742.bmp
103.68	0.72	135	3	1	37	mem	con	mod	mod	low	tg	ht	wh/0291.bmp
104.40	0.72	136	3	4	127	mem	lib	mod	mod	mod	tg	ht	wh/0761.bmp
105.12	0.72	137	1	3	72	mem	lib	low	low	mod	tg	ms	wh/0467.bmp
105.84	0.72	138	4	4	127	mem	lib	mod	mod	mod	tg	ht	wh/0761.bmp
106.56	0.72	139	2	1	25	per	con	mod	mod	mod	nt	cr	nh/0689_nh.bmp
107.28	0.72	140	2	1	113	mem	lib	mod	mod	low	tg	ht	wh/0792.bmp
108.00	0.72	141	1	2	84	mem	lib	mod	mod	mod	nt	ht	nh/0759_nh.bmp
108.72	0.72	142	1	3	20	per	lib	low	mod	low	nt	fa	nh/0671_nh.bmp
109.44	0.72	143	2	1	29	per	con	mod	mod	mod	nt	cr	nh/0806_nh.bmp
110.16	0.72	144	1	4	84	per	lib	mod	mod	mod	tg	ht	wh/0562.bmp
110.88	0.72	145	2	3	94	mem	con	mod	mod	mod	tg	ht	wh/0742.bmp
111.60	0.72	146	2	2	121	per	lib	low	mod	low	tg	ht	wh/0703.bmp
112.32	0.72	147	2	3	37	mem	lib	mod	mod	low	tg	ht	wh/0124.bmp
113.04	0.72	148	2	2	117	per	lib	low	mod	low	tg	ht	wh/0641.bmp
113.76	0.72	149	2	4	112	mem	con	mod	mod	low	tg	ms	wh/0415.bmp
114.48	0.72	150	1	1	46	mem	con	mod	mod	low	tg	ht	wh/0523.bmp
115.20	0.72	151	2	4	84	per	lib	mod	mod	mod	tg	ht	wh/0562.bmp
115.92	0.72	152	2	2	82	mem	lib	mod	mod	mod	nt	ht	nh/0834_nh.bmp
116.64	0.72	153	2	4	32	per	con	mod	mod	mod	tg	ht	wh/0961.bmp
117.36	0.72	154	1	4	101	mem	con	mod	mod	low	tg	ms	wh/0312.bmp
118.08	0.72	155	2	3	90	mem	con	mod	mod	mod	nt	ms	nh/1010_nh.bmp
118.80	0.72	156	2	3	96	mem	con	mod	mod	mod	nt	ms	nh/0487_nh.bmp
119.52	0.72	157	3	2	117	per	lib	low	mod	low	tg	ht	wh/0641.bmp
120.24	0.72	158	1	1	93	per	con	low	low	low	tg	ht	wh/0314.bmp
120.96	0.72	159	1	3	107	per	con	mod	low	mod	nt	cr	nh/0891_nh.bmp
121.68	0.72	160	2	4	31	per	con	mod	mod	mod	nt	cr	nh/0665_nh.bmp
122.40	0.72	161	1	4	70	per	con	low	low	low	nt	cr	nh/0160_nh.bmp
123.12	0.72	162	3	1	25	per	con	mod	mod	mod	nt	cr	nh/0689_nh.bmp
123.84	0.72	163	1	4	25	per	con	mod	mod	mod	nt	cr	nh/0645_nh.bmp
124.56	0.72	164	2	1	3	per	lib	mod	mod	mod	tg	ht	wh/0931.bmp
125.28	0.72	165	4	1	25	per	con	mod	mod	mod	nt	cr	nh/0689_nh.bmp
126.00	0.72	166	3	4	115	mem	lib	mod	mod	mod	nt	ht	nh/0348_nh.bmp
126.72	0.72	167	1	1	61	mem	lib	low	low	mod	tg	ht	wh/0004.bmp
127.44	0.72	168	2	4	118	mem	lib	mod	mod	mod	tg	ms	wh/0983.bmp
128.16	0.72	169	3	4	84	per	lib	mod	mod	mod	tg	ht	wh/0562.bmp
128.88	0.72	170	1	2	29	mem	lib	low	low	low	nt	ht	nh/0310_nh.bmp
129.60	0.72	171	1	3	92	mem	con	mod	mod	mod	tg	ht	wh/0320.bmp
130.32	0.72	172	2	1	6	per	lib	mod	mod	mod	nt	cr	nh/0061_nh.bmp
131.04	0.72	173	1	4	99	mem	con	mod	mod	low	tg	ht	wh/0295.bmp
131.76	0.72	174	1	2	88	mem	lib	mod	mod	mod	nt	ht	nh/0358_nh.bmp
132.48	0.72	175	2	4	89	per	lib	mod	mod	mod	tg	ht	wh/0628.bmp
133.20	0.72	176	1	3	118	per	con	low	mod	low	nt	cr	nh/0438_nh.bmp
133.92	0.72	177	3	2	114	per	lib	low	mod	low	nt	cr	nh/1000_nh.bmp
134.64	0.72	178	1	1	20	per	con	mod	mod	mod	tg	ht	wh/0229.bmp
135.36	0.72	179	3	3	23	per	lib	low	mod	low	tg	ht	wh/0882.bmp
136.08	0.72	180	2	2	86	mem	lib	mod	mod	mod	tg	ht	wh/0861.bmp
136.80	0.72	181	2	1	14	per	lib	mod	mod	mod	tg	ht	wh/0049.bmp
137.52	0.72	182	1	3	42	mem	lib	mod	mod	low	tg	ht	wh/0988.bmp
138.24	0.72	183	4	3	23	per	lib	low	mod	low	tg	ht	wh/0882.bmp
138.96	0.72	184	3	3	85	mem	con	mod	mod	mod	nt	ht	nh/0576_nh.bmp
139.68	0.72	185	2	2	109	mem	con	mod	mod	mod	tg	ms	wh/0151.bmp
140.40	0.72	186	1	1	5	per	lib	mod	mod	mod	nt	cr	nh/0072_nh.bmp
141.12	0.72	187	3	1	14	per	lib	mod	mod	mod	tg	ht	wh/0049.bmp
141.84	0.72	188	5	3	23	per	lib	low	mod	low	tg	ht	wh/0882.bmp
142.56	0.72	189	4	4	116	mem	lib	mod	mod	mod	tg	ht	wh/0413.bmp
143.28	0.72	190	1	4	108	mem	con	mod	mod	low	nt	ms	nh/0494_nh.bmp
144.00	0.72	191	2	2	107	mem	con	mod	mod	mod	tg	ht	wh/0343.bmp
144.72	0.72	192	1	4	8	per	lib	low	low	low	tg	ht	wh/0987.bmp
145.44	0.72	193	1	3	13	mem	con	low	low	low	tg	ms	wh/0524.bmp
146.16	0.72	194	1	4	1	per	lib	low	low	low	nt	fa	nh/0505_nh.bmp
146.88	0.72	195	3	3	37	mem	lib	mod	mod	low	tg	ht	wh/0124.bmp
147.60	0.72	196	2	2	108	mem	con	mod	mod	mod	nt	ht	nh/0282_nh.bmp
148.32	0.72	197	3	3	90	mem	con	mod	mod	mod	nt	ms	nh/1010_nh.bmp
149.04	0.72	198	1	4	37	mem	lib	low	low	low	tg	ht	wh/0335.bmp
149.76	0.72	199	3	4	112	mem	con	mod	mod	low	tg	ms	wh/0415.bmp
150.48	0.72	200	1	1	7	per	lib	mod	mod	mod	tg	ht	wh/0604.bmp
151.20	0.72	201	2	1	20	per	con	mod	mod	mod	tg	ht	wh/0229.bmp
151.92	0.72	202	2	4	93	per	lib	mod	mod	mod	nt	cr	nh/0331_nh.bmp
152.64	0.72	203	1	4	121	mem	lib	mod	mod	mod	tg	ht	wh/0104.bmp
153.36	0.72	204	3	1	26	per	con	mod	mod	mod	tg	ht	wh/0664.bmp
154.08	0.72	205	2	4	88	per	lib	mod	mod	mod	nt	cr	nh/0359_nh.bmp
154.80	0.72	206	1	1	27	per	con	mod	mod	mod	nt	cr	nh/0592_nh.bmp
155.52	0.72	207	1	1	63	mem	lib	low	low	mod	tg	ht	wh/0192.bmp
156.24	0.72	208	2	4	100	mem	con	mod	mod	low	nt	ht	nh/0007_nh.bmp
156.96	0.72	209	3	4	31	per	con	mod	mod	mod	nt	cr	nh/0665_nh.bmp
157.68	0.72	210	2	4	101	mem	con	mod	mod	low	tg	ms	wh/0312.bmp
158.40	0.72	211	3	4	88	per	lib	mod	mod	mod	nt	cr	nh/0359_nh.bmp
159.12	0.72	212	2	4	91	per	lib	mod	mod	mod	tg	ht	wh/0333.bmp
159.84	0.72	213	2	1	117	mem	lib	mod	mod	low	tg	ht	wh/0512.bmp
160.56	0.72	214	3	4	89	per	lib	mod	mod	mod	tg	ht	wh/0628.bmp
161.28	0.72	215	2	1	35	mem	con	mod	mod	low	nt	ht	nh/0798_nh.bmp
162.00	0.72	216	3	2	113	per	lib	low	mod	low	nt	cr	nh/0400_nh.bmp
162.72	0.72	217	1	4	19	per	con	mod	mod	mod	tg	ms	wh/0137.bmp
163.44	0.72	218	2	3	19	per	lib	low	mod	low	nt	fa	nh/0259_nh.bmp
164.16	0.72	219	1	2	40	mem	con	low	low	mod	nt	ms	nh/0474_nh.bmp
164.88	0.72	220	3	3	94	mem	con	mod	mod	mod	tg	ht	wh/0742.bmp
165.60	0.72	221	2	2	128	per	lib	low	mod	low	nt	fa	nh/0283_nh.bmp
166.32	0.72	222	4	1	37	mem	con	mod	mod	low	tg	ht	wh/0291.bmp
167.04	0.72	223	1	3	38	mem	lib	mod	mod	low	nt	ht	nh/0368_nh.bmp
167.76	0.72	224	2	3	21	per	lib	low	mod	low	nt	cr	nh/0422_nh.bmp
168.48	0.72	225	3	4	32	per	con	mod	mod	mod	tg	ht	wh/0961.bmp
169.20	0.72	226	1	3	99	per	con	mod	low	mod	tg	ht	wh/0033.bmp
169.92	0.72	227	2	4	24	per	con	mod	mod	mod	nt	cr	nh/0925_nh.bmp
170.64	0.72	228	1	2	104	mem	con	mod	mod	mod	tg	ms	wh/0538.bmp
171.36	0.72	229	5	1	121	mem	lib	mod	mod	low	tg	ht	wh/0976.bmp
172.08	0.72	230	3	2	78	per	con	low	mod	low	tg	ht	wh/0410.bmp
172.80	0.72	231	1	2	106	mem	con	mod	mod	mod	nt	ht	nh/0753_nh.bmp
173.52	0.72	232	3	1	6	per	lib	mod	mod	mod	nt	cr	nh/0061_nh.bmp
174.24	0.72	233	2	2	69	per	con	low	mod	low	tg	ht	wh/0030.bmp
174.96	0.72	234	3	3	19	per	lib	low	mod	low	nt	fa	nh/0259_nh.bmp
175.68	0.72	235	2	4	125	mem	lib	mod	mod	mod	nt	ht	nh/0583_nh.bmp
176.40	0.72	236	3	4	125	mem	lib	mod	mod	mod	nt	ht	nh/0583_nh.bmp
177.12	0.72	237	2	2	88	mem	lib	mod	mod	mod	nt	ht	nh/0358_nh.bmp
177.84	0.72	238	2	4	96	per	lib	mod	mod	mod	nt	cr	nh/0097_nh.bmp
178.56	0.72	239	2	2	92	mem	lib	mod	mod	mod	tg	ht	wh/0477.bmp
179.28	0.72	240	2	1	47	mem	con	mod	mod	low	nt	ms	nh/0424_nh.bmp
180.00	0.72	241	1	2	97	mem	con	mod	mod	mod	nt	ms	nh/0490_nh.bmp
180.72	0.72	242	4	4	112	mem	con	mod	mod	low	tg	ms	wh/0415.bmp
181.44	0.72	243	3	3	81	mem	con	mod	mod	mod	tg	ht	wh/0071.bmp
182.16	0.72	244	3	2	71	per	con	low	mod	low	tg	ms	wh/0166.bmp
182.88	0.72	245	4	4	84	per	lib	mod	mod	mod	tg	ht	wh/0562.bmp
183.60	0.72	246	3	3	21	per	lib	low	mod	low	nt	cr	nh/0422_nh.bmp
184.32	0.72	247	1	1	89	per	con	low	low	low	tg	ms	wh/1003.bmp
185.04	0.72	248	2	3	87	mem	con	mod	mod	mod	tg	ht	wh/0901.bmp
185.76	0.72	249	1	4	105	mem	con	mod	mod	low	nt	ms	nh/0791_nh.bmp
186.48	0.72	250	4	1	6	per	lib	mod	mod	mod	nt	cr	nh/0061_nh.bmp
187.20	0.72	251	3	2	109	mem	con	mod	mod	mod	tg	ms	wh/0151.bmp
187.92	0.72	252	1	3	53	per	lib	mod	low	mod	nt	fa	nh/0517_nh.bmp
188.64	0.72	253	3	4	96	per	lib	mod	mod	mod	nt	cr	nh/0097_nh.bmp
189.36	0.72	254	1	2	54	per	lib	mod	low	mod	nt	cr	nh/0539_nh.bmp
190.08	0.72	255	2	3	92	mem	con	mod	mod	mod	tg	ht	wh/0320.bmp
190.80	0.72	256	3	2	92	mem	lib	mod	mod	mod	tg	ht	wh/0477.bmp
191.52	0.72	257	1	1	85	per	con	low	low	low	nt	cr	nh/0276_nh.bmp
192.24	0.72	258	1	2	72	per	con	low	mod	low	nt	cr	nh/0081_nh.bmp
192.96	0.72	259	2	3	118	per	con	low	mod	low	nt	cr	nh/0438_nh.bmp
193.68	0.72	260	4	4	31	per	con	mod	mod	mod	nt	cr	nh/0665_nh.bmp
194.40	0.72	261	1	3	28	per	lib	low	mod	low	tg	ht	wh/0496.bmp
195.12	0.72	262	1	1	22	per	con	mod	mod	mod	tg	ht	wh/0895.bmp
195.84	0.72	263	2	2	104	mem	con	mod	mod	mod	tg	ms	wh/0538.bmp
196.56	0.72	264	4	2	113	per	lib	low	mod	low	nt	cr	nh/0400_nh.bmp
197.28	0.72	265	1	4	109	mem	con	mod	mod	low	nt	ms	nh/1013_nh.bmp
198.00	0.72	266	2	2	99	mem	con	mod	mod	mod	tg	ms	wh/0705.bmp
198.72	0.72	267	2	4	25	per	con	mod	mod	mod	nt	cr	nh/0645_nh.bmp
199.44	0.72	268	3	4	25	per	con	mod	mod	mod	nt	cr	nh/0645_nh.bmp
200.16	0.72	269	1	3	48	mem	lib	mod	mod	low	nt	ht	nh/0203_nh.bmp
200.88	0.72	270	2	4	108	mem	con	mod	mod	low	nt	ms	nh/0494_nh.bmp
201.60	0.72	271	4	2	78	per	con	low	mod	low	tg	ht	wh/0410.bmp
202.32	0.72	272	5	1	6	per	lib	mod	mod	mod	nt	cr	nh/0061_nh.bmp
203.04	0.72	273	1	1	23	per	con	mod	mod	mod	tg	ht	wh/0448.bmp
203.76	0.72	274	2	1	120	mem	lib	mod	mod	low	tg	ht	wh/0683.bmp
204.48	0.72	275	2	1	5	per	lib	mod	mod	mod	nt	cr	nh/0072_nh.bmp
205.20	0.72	276	2	4	121	mem	lib	mod	mod	mod	tg	ht	wh/0104.bmp
205.92	0.72	277	1	3	27	per	lib	low	mod	low	nt	cr	nh/0672_nh.bmp
206.64	0.72	278	2	2	115	per	lib	low	mod	low	tg	ht	wh/0454.bmp
207.36	0.72	279	3	1	20	per	con	mod	mod	mod	tg	ht	wh/0229.bmp
208.08	0.72	280	2	3	40	mem	lib	mod	mod	low	nt	ht	nh/0323_nh.bmp
208.80	0.72	281	1	4	80	per	con	low	low	low	nt	cr	nh/0078_nh.bmp
209.52	0.72	282	3	3	92	mem	con	mod	mod	mod	tg	ht	wh/0320.bmp
210.24	0.72	283	3	2	83	mem	lib	mod	mod	mod	tg	ht	wh/0809.bmp
210.96	0.72	284	4	2	83	mem	lib	mod	mod	mod	tg	ht	wh/0809.bmp
211.68	0.72	285	1	4	69	per	con	low	low	low	tg	ms	wh/0916.bmp
212.40	0.72	286	4	3	90	mem	con	mod	mod	mod	nt	ms	nh/1010_nh.bmp
213.12	0.72	287	4	3	37	mem	lib	mod	mod	low	tg	ht	wh/0124.bmp
213.84	0.72	288	1	1	15	per	lib	mod	mod	mod	nt	cr	nh/0943_nh.bmp
214.56	0.72	289	4	1	26	per	con	mod	mod	mod	tg	ht	wh/0664.bmp
215.28	0.72	290	3	1	5	per	lib	mod	mod	mod	nt	cr	nh/0072_nh.bmp
216.00	0.72	291	1	2	36	mem	con	low	low	mod	tg	ms	wh/0969.bmp
216.72	0.72	292	3	1	48	mem	con	mod	mod	low	tg	ms	wh/0131.bmp
217.44	0.72	293	3	2	115	per	lib	low	mod	low	tg	ht	wh/0454.bmp
218.16	0.72	294	4	1	5	per	lib	mod	mod	mod	nt	cr	nh/0072_nh.bmp
218.88	0.72	295	1	2	125	per	lib	low	mod	low	tg	ht	wh/0132.bmp
219.60	0.72	296	2	3	29	per	lib	low	mod	low	tg	ht	wh/0302.bmp
220.32	0.72	297	4	4	89	per	lib	mod	mod	mod	tg	ht	wh/0628.bmp
221.04	0.72	298	3	1	47	mem	con	mod	mod	low	nt	ms	nh/0424_nh.bmp
221.76	0.72	299	1	2	31	mem	lib	low	low	low	tg	ms	wh/0264.bmp
222.48	0.72	300	3	2	128	per	lib	low	mod	low	nt	fa	nh/0283_nh.bmp
223.20	0.72	301	4	2	123	per	lib	low	mod	low	nt	fa	nh/0195_nh.bmp
223.92	0.72	302	1	3	34	mem	lib	mod	mod	low	tg	ht	wh/0511.bmp
224.64	0.72	303	5	3	37	mem	lib	mod	mod	low	tg	ht	wh/0124.bmp
225.36	0.72	304	2	3	42	mem	lib	mod	mod	low	tg	ht	wh/0988.bmp
226.08	0.72	305	4	4	88	per	lib	mod	mod	mod	nt	cr	nh/0359_nh.bmp
226.80	0.72	306	1	2	87	mem	lib	mod	mod	mod	nt	ht	nh/0344_nh.bmp
227.52	0.72	307	1	4	128	mem	lib	mod	mod	mod	nt	ht	nh/0674_nh.bmp
228.24	0.72	308	3	3	40	mem	lib	mod	mod	low	nt	ht	nh/0323_nh.bmp
228.96	0.72	309	2	2	97	mem	con	mod	mod	mod	nt	ms	nh/0490_nh.bmp
229.68	0.72	310	2	3	27	per	lib	low	mod	low	nt	cr	nh/0672_nh.bmp
230.40	0.72	311	5	4	112	mem	con	mod	mod	low	tg	ms	wh/0415.bmp
231.12	0.72	312	3	2	107	mem	con	mod	mod	mod	tg	ht	wh/0343.bmp
231.84	0.72	313	1	3	65	mem	lib	low	low	mod	tg	ht	wh/0913.bmp
232.56	0.72	314	3	4	108	mem	con	mod	mod	low	nt	ms	nh/0494_nh.bmp
233.28	0.72	315	3	1	3	per	lib	mod	mod	mod	tg	ht	wh/0931.bmp
234.00	0.72	316	1	3	39	mem	lib	mod	mod	low	nt	ht	nh/0386_nh.bmp
234.72	0.72	317	4	1	48	mem	con	mod	mod	low	tg	ms	wh/0131.bmp
235.44	0.72	318	3	1	39	mem	con	mod	mod	low	nt	ms	nh/0615_nh.bmp
236.16	0.72	319	3	4	24	per	con	mod	mod	mod	nt	cr	nh/0925_nh.bmp
236.88	0.72	320	3	2	101	mem	con	mod	mod	mod	nt	ht	nh/0445_nh.bmp
237.60	0.72	321	3	3	87	mem	con	mod	mod	mod	tg	ht	wh/0901.bmp
238.32	0.72	322	4	2	109	mem	con	mod	mod	mod	tg	ms	wh/0151.bmp
239.04	0.72	323	1	2	43	mem	con	low	low	mod	tg	ht	wh/0620.bmp
239.76	0.72	324	4	2	128	per	lib	low	mod	low	nt	fa	nh/0283_nh.bmp
240.48	0.72	325	1	3	6	mem	con	low	low	low	nt	ht	nh/0504_nh.bmp
241.20	0.72	326	2	1	7	per	lib	mod	mod	mod	tg	ht	wh/0604.bmp
241.92	0.72	327	2	3	20	per	lib	low	mod	low	nt	fa	nh/0671_nh.bmp
242.64	0.72	328	3	4	121	mem	lib	mod	mod	mod	tg	ht	wh/0104.bmp
243.36	0.72	329	3	3	42	mem	lib	mod	mod	low	tg	ht	wh/0988.bmp
244.08	0.72	330	2	2	106	mem	con	mod	mod	mod	nt	ht	nh/0753_nh.bmp
244.80	0.72	331	1	3	114	per	con	low	mod	low	nt	cr	nh/0554_nh.bmp
245.52	0.72	332	4	3	19	per	lib	low	mod	low	nt	fa	nh/0259_nh.bmp
246.24	0.72	333	5	2	78	per	con	low	mod	low	tg	ht	wh/0410.bmp
246.96	0.72	334	3	1	35	mem	con	mod	mod	low	nt	ht	nh/0798_nh.bmp
247.68	0.72	335	1	1	114	mem	lib	mod	mod	low	nt	ht	nh/0757_nh.bmp
248.40	0.72	336	2	1	23	per	con	mod	mod	mod	tg	ht	wh/0448.bmp
249.12	0.72	337	2	4	109	mem	con	mod	mod	low	nt	ms	nh/1013_nh.bmp
249.84	0.72	338	2	4	99	mem	con	mod	mod	low	tg	ht	wh/0295.bmp
250.56	0.72	339	1	3	78	mem	lib	low	low	mod	tg	ht	wh/0470.bmp
251.28	0.72	340	1	2	49	per	lib	mod	low	mod	tg	ht	wh/0993.bmp
252.00	0.72	341	2	4	18	per	con	mod	mod	mod	nt	cr	nh/0279_nh.bmp
252.72	0.72	342	3	1	23	per	con	mod	mod	mod	tg	ht	wh/0448.bmp
253.44	0.72	343	3	1	113	mem	lib	mod	mod	low	tg	ht	wh/0792.bmp
254.16	0.72	344	4	1	35	mem	con	mod	mod	low	nt	ht	nh/0798_nh.bmp
254.88	0.72	345	1	4	79	per	con	low	low	low	tg	ms	wh/0989.bmp
255.60	0.72	346	4	1	20	per	con	mod	mod	mod	tg	ht	wh/0229.bmp
256.32	0.72	347	1	1	126	mem	lib	mod	mod	low	nt	ht	nh/0643_nh.bmp
257.04	0.72	348	4	3	81	mem	con	mod	mod	mod	tg	ht	wh/0071.bmp
257.76	0.72	349	1	1	49	mem	lib	low	low	mod	tg	ht	wh/0707.bmp
258.48	0.72	350	4	3	94	mem	con	mod	mod	mod	tg	ht	wh/0742.bmp
259.20	0.72	351	3	2	99	mem	con	mod	mod	mod	tg	ms	wh/0705.bmp
259.92	0.72	352	3	2	88	mem	lib	mod	mod	mod	nt	ht	nh/0358_nh.bmp
260.64	0.72	353	2	3	114	per	con	low	mod	low	nt	cr	nh/0554_nh.bmp
261.36	0.72	354	5	2	83	mem	lib	mod	mod	mod	tg	ht	wh/0809.bmp
262.08	0.72	355	1	1	56	mem	lib	low	low	mod	nt	ht	nh/0894_nh.bmp
262.80	0.72	356	2	1	22	per	con	mod	mod	mod	tg	ht	wh/0895.bmp
263.52	0.72	357	4	3	92	mem	con	mod	mod	mod	tg	ht	wh/0320.bmp
264.24	0.72	358	2	3	48	mem	lib	mod	mod	low	nt	ht	nh/0203_nh.bmp
264.96	0.72	359	2	3	34	mem	lib	mod	mod	low	tg	ht	wh/0511.bmp
265.68	0.72	360	3	1	120	mem	lib	mod	mod	low	tg	ht	wh/0683.bmp
266.40	0.72	361	2	1	43	mem	con	mod	mod	low	tg	ms	wh/0390.bmp
267.12	0.72	362	1	1	76	per	lib	low	low	low	tg	ht	wh/0127.bmp
267.84	0.72	363	4	4	115	mem	lib	mod	mod	mod	nt	ht	nh/0348_nh.bmp
268.56	0.72	364	3	1	29	per	con	mod	mod	mod	nt	cr	nh/0806_nh.bmp
269.28	0.72	365	2	1	124	mem	lib	mod	mod	low	nt	ms	nh/0067_nh.bmp
270.00	0.72	366	3	2	69	per	con	low	mod	low	tg	ht	wh/0030.bmp
270.72	0.72	367	2	1	114	mem	lib	mod	mod	low	nt	ht	nh/0757_nh.bmp
271.44	0.72	368	2	2	68	per	con	low	mod	low	tg	ht	wh/0246.bmp
272.16	0.72	369	1	4	51	mem	con	low	low	mod	tg	ms	wh/0944.bmp
272.88	0.72	370	4	4	125	mem	lib	mod	mod	mod	nt	ht	nh/0583_nh.bmp
273.60	0.72	371	2	4	105	mem	con	mod	mod	low	nt	ms	nh/0791_nh.bmp
274.32	0.72	372	2	2	80	per	con	low	mod	low	nt	cr	nh/0575_nh.bmp
275.04	0.72	373	4	2	114	per	lib	low	mod	low	nt	cr	nh/1000_nh.bmp
275.76	0.72	374	1	4	17	per	con	mod	mod	mod	tg	ht	wh/0796.bmp
276.48	0.72	375	3	1	22	per	con	mod	mod	mod	tg	ht	wh/0895.bmp
277.20	0.72	376	4	2	69	per	con	low	mod	low	tg	ht	wh/0030.bmp
277.92	0.72	377	5	4	89	per	lib	mod	mod	mod	tg	ht	wh/0628.bmp
278.64	0.72	378	4	4	32	per	con	mod	mod	mod	tg	ht	wh/0961.bmp
279.36	0.72	379	3	3	29	per	lib	low	mod	low	tg	ht	wh/0302.bmp
280.08	0.72	380	1	1	16	per	lib	mod	mod	mod	tg	ht	wh/0365.bmp
280.80	0.72	381	1	4	28	per	con	mod	mod	mod	tg	ht	wh/0738.bmp
281.52	0.72	382	1	3	105	per	con	mod	low	mod	tg	ht	wh/0003.bmp
282.24	0.72	383	3	2	93	mem	lib	mod	mod	mod	tg	ms	wh/0039.bmp
282.96	0.72	384	4	2	117	per	lib	low	mod	low	tg	ht	wh/0641.bmp
283.68	0.72	385	3	1	114	mem	lib	mod	mod	low	nt	ht	nh/0757_nh.bmp
284.40	0.72	386	2	3	39	mem	lib	mod	mod	low	nt	ht	nh/0386_nh.bmp
285.12	0.72	387	1	3	30	per	lib	low	mod	low	tg	ht	wh/0212.bmp
285.84	0.72	388	3	2	80	per	con	low	mod	low	nt	cr	nh/0575_nh.bmp
286.56	0.72	389	4	3	42	mem	lib	mod	mod	low	tg	ht	wh/0988.bmp
287.28	0.72	390	3	2	68	per	con	low	mod	low	tg	ht	wh/0246.bmp
288.00	0.72	391	4	3	40	mem	lib	mod	mod	low	nt	ht	nh/0323_nh.bmp
288.72	0.72	392	1	1	96	per	con	low	low	low	tg	ms	wh/0356.bmp
289.44	0.72	393	3	4	91	per	lib	mod	mod	mod	tg	ht	wh/0333.bmp
290.16	0.72	394	2	2	77	per	con	low	mod	low	nt	cr	nh/0509_nh.bmp
290.88	0.72	395	1	1	90	per	con	low	low	low	nt	cr	nh/0743_nh.bmp
291.60	0.72	396	3	3	20	per	lib	low	mod	low	nt	fa	nh/0671_nh.bmp
292.32	0.72	397	4	1	114	mem	lib	mod	mod	low	nt	ht	nh/0757_nh.bmp
293.04	0.72	398	5	1	26	per	con	mod	mod	mod	tg	ht	wh/0664.bmp
293.76	0.72	399	1	3	117	per	con	low	mod	low	nt	cr	nh/0914_nh.bmp
294.48	0.72	400	3	1	36	mem	con	mod	mod	low	nt	ht	nh/0236_nh.bmp
295.20	0.72	401	3	3	118	per	con	low	mod	low	nt	cr	nh/0438_nh.bmp
295.92	0.72	402	2	4	102	mem	con	mod	mod	low	tg	ht	wh/0444.bmp
296.64	0.72	403	4	3	116	per	con	low	mod	low	nt	cr	nh/0765_nh.bmp
297.36	0.72	404	5	4	32	per	con	mod	mod	mod	tg	ht	wh/0961.bmp
298.08	0.72	405	3	2	97	mem	con	mod	mod	mod	nt	ms	nh/0490_nh.bmp
298.80	0.72	406	5	3	42	mem	lib	mod	mod	low	tg	ht	wh/0988.bmp
299.52	0.72	407	3	3	34	mem	lib	mod	mod	low	tg	ht	wh/0511.bmp
300.24	0.72	408	2	4	92	per	lib	mod	mod	mod	nt	cr	nh/0313_nh.bmp
300.96	0.72	409	1	4	58	mem	con	low	low	mod	nt	ms	nh/0886_nh.bmp
301.68	0.72	410	2	1	15	per	lib	mod	mod	mod	nt	cr	nh/0943_nh.bmp
302.40	0.72	411	4	1	120	mem	lib	mod	mod	low	tg	ht	wh/0683.bmp
303.12	0.72	412	2	1	4	per	lib	mod	mod	mod	nt	cr	nh/0427_nh.bmp
303.84	0.72	413	3	2	106	mem	con	mod	mod	mod	nt	ht	nh/0753_nh.bmp
304.56	0.72	414	3	3	96	mem	con	mod	mod	mod	nt	ms	nh/0487_nh.bmp
305.28	0.72	415	4	4	24	per	con	mod	mod	mod	nt	cr	nh/0925_nh.bmp
306.00	0.72	416	2	3	38	mem	lib	mod	mod	low	nt	ht	nh/0368_nh.bmp
306.72	0.72	417	5	3	19	per	lib	low	mod	low	nt	fa	nh/0259_nh.bmp
307.44	0.72	418	4	1	113	mem	lib	mod	mod	low	tg	ht	wh/0792.bmp
308.16	0.72	419	2	1	16	per	lib	mod	mod	mod	tg	ht	wh/0365.bmp
308.88	0.72	420	3	4	102	mem	con	mod	mod	low	tg	ht	wh/0444.bmp
309.60	0.72	421	2	2	84	mem	lib	mod	mod	mod	nt	ht	nh/0759_nh.bmp
310.32	0.72	422	5	2	109	mem	con	mod	mod	mod	tg	ms	wh/0151.bmp
311.04	0.72	423	4	4	108	mem	con	mod	mod	low	nt	ms	nh/0494_nh.bmp
311.76	0.72	424	1	2	62	per	lib	mod	low	mod	tg	ht	wh/0346.bmp
312.48	0.72	425	1	3	123	per	con	low	mod	low	tg	ms	wh/0263.bmp
313.20	0.72	426	5	1	113	mem	lib	mod	mod	low	tg	ht	wh/0792.bmp
313.92	0.72	427	4	2	88	mem	lib	mod	mod	mod	nt	ht	nh/0358_nh.bmp
314.64	0.72	428	1	4	55	mem	con	low	low	mod	tg	ht	wh/0991.bmp
315.36	0.72	429	4	3	118	per	con	low	mod	low	nt	cr	nh/0438_nh.bmp
316.08	0.72	430	1	2	16	per	con	mod	low	mod	nt	cr	nh/0826_nh.bmp
316.80	0.72	431	3	2	104	mem	con	mod	mod	mod	tg	ms	wh/0538.bmp
317.52	0.72	432	4	4	121	mem	lib	mod	mod	mod	tg	ht	wh/0104.bmp
318.24	0.72	433	3	2	86	mem	lib	mod	mod	mod	tg	ht	wh/0861.bmp
318.96	0.72	434	4	2	97	mem	con	mod	mod	mod	nt	ms	nh/0490_nh.bmp
319.68	0.72	435	1	4	36	mem	lib	low	low	low	tg	ht	wh/0110.bmp
320.40	0.72	436	3	3	114	per	con	low	mod	low	nt	cr	nh/0554_nh.bmp
321.12	0.72	437	4	1	47	mem	con	mod	mod	low	nt	ms	nh/0424_nh.bmp
321.84	0.72	438	1	2	55	per	lib	mod	low	mod	nt	fa	nh/0670_nh.bmp
322.56	0.72	439	1	4	78	per	con	low	low	low	tg	ms	wh/0357.bmp
323.28	0.72	440	4	2	86	mem	lib	mod	mod	mod	tg	ht	wh/0861.bmp
324.00	0.72	441	4	3	87	mem	con	mod	mod	mod	tg	ht	wh/0901.bmp
324.72	0.72	442	1	4	64	mem	con	low	low	mod	nt	ms	nh/0719_nh.bmp
325.44	0.72	443	1	1	65	per	lib	low	low	low	nt	cr	nh/0720_nh.bmp
326.16	0.72	444	3	1	18	per	con	mod	mod	mod	nt	cr	nh/0479_nh.bmp
326.88	0.72	445	3	3	27	per	lib	low	mod	low	nt	cr	nh/0672_nh.bmp
327.60	0.72	446	5	1	5	per	lib	mod	mod	mod	nt	cr	nh/0072_nh.bmp
328.32	0.72	447	1	3	98	per	con	mod	low	mod	tg	ht	wh/0630.bmp
329.04	0.72	448	2	4	128	mem	lib	mod	mod	mod	nt	ht	nh/0674_nh.bmp
329.76	0.72	449	5	4	116	mem	lib	mod	mod	mod	tg	ht	wh/0413.bmp
330.48	0.72	450	4	3	29	per	lib	low	mod	low	tg	ht	wh/0302.bmp
331.20	0.72	451	4	1	14	per	lib	mod	mod	mod	tg	ht	wh/0049.bmp
331.92	0.72	452	3	3	127	per	con	low	mod	low	tg	ms	wh/0293.bmp
332.64	0.72	453	2	1	126	mem	lib	mod	mod	low	nt	ht	nh/0643_nh.bmp
333.36	0.72	454	3	1	15	per	lib	mod	mod	mod	nt	cr	nh/0943_nh.bmp
334.08	0.72	455	4	1	39	mem	con	mod	mod	low	nt	ms	nh/0615_nh.bmp
334.80	0.72	456	3	1	43	mem	con	mod	mod	low	tg	ms	wh/0390.bmp
335.52	0.72	457	5	3	40	mem	lib	mod	mod	low	nt	ht	nh/0323_nh.bmp
336.24	0.72	458	2	4	28	per	con	mod	mod	mod	tg	ht	wh/0738.bmp
336.96	0.72	459	3	3	39	mem	lib	mod	mod	low	nt	ht	nh/0386_nh.bmp
337.68	0.72	460	1	4	123	mem	lib	mod	mod	mod	nt	ht	nh/0970_nh.bmp
338.40	0.72	461	3	3	48	mem	lib	mod	mod	low	nt	ht	nh/0203_nh.bmp
339.12	0.72	462	1	1	109	mem	con	low	low	low	tg	ms	wh/0117.bmp
339.84	0.72	463	4	2	71	per	con	low	mod	low	tg	ms	wh/0166.bmp
340.56	0.72	464	3	4	118	mem	lib	mod	mod	mod	tg	ms	wh/0983.bmp
341.28	0.72	465	4	2	80	per	con	low	mod	low	nt	cr	nh/0575_nh.bmp
342.00	0.72	466	4	4	25	per	con	mod	mod	mod	nt	cr	nh/0645_nh.bmp
342.72	0.72	467	4	1	29	per	con	mod	mod	mod	nt	cr	nh/0806_nh.bmp
343.44	0.72	468	5	4	115	mem	lib	mod	mod	mod	nt	ht	nh/0348_nh.bmp
344.16	0.72	469	5	1	39	mem	con	mod	mod	low	nt	ms	nh/0615_nh.bmp
344.88	0.72	470	1	1	98	mem	con	low	low	low	nt	ms	nh/0171_nh.bmp
345.60	0.72	471	3	2	121	per	lib	low	mod	low	tg	ht	wh/0703.bmp
346.32	0.72	472	3	2	77	per	con	low	mod	low	nt	cr	nh/0509_nh.bmp
347.04	0.72	473	5	3	118	per	con	low	mod	low	nt	cr	nh/0438_nh.bmp
347.76	0.72	474	4	3	34	mem	lib	mod	mod	low	tg	ht	wh/0511.bmp
348.48	0.72	475	3	4	109	mem	con	mod	mod	low	nt	ms	nh/1013_nh.bmp
349.20	0.72	476	5	1	29	per	con	mod	mod	mod	nt	cr	nh/0806_nh.bmp
349.92	0.72	477	1	1	91	per	con	low	low	low	nt	cr	nh/0243_nh.bmp
350.64	0.72	478	1	3	52	per	lib	mod	low	mod	tg	ht	wh/0723.bmp
351.36	0.72	479	4	1	23	per	con	mod	mod	mod	tg	ht	wh/0448.bmp
352.08	0.72	480	4	2	99	mem	con	mod	mod	mod	tg	ms	wh/0705.bmp
352.80	0.72	481	2	3	123	per	con	low	mod	low	tg	ms	wh/0263.bmp
353.52	0.72	482	3	3	33	mem	lib	mod	mod	low	tg	ht	wh/0661.bmp
354.24	0.72	483	3	2	82	mem	lib	mod	mod	mod	nt	ht	nh/0834_nh.bmp
354.96	0.72	484	2	1	46	mem	con	mod	mod	low	tg	ht	wh/0523.bmp
355.68	0.72	485	6	1	5	per	lib	mod	mod	mod	nt	cr	nh/0072_nh.bmp
356.40	0.72	486	4	2	121	per	lib	low	mod	low	tg	ht	wh/0703.bmp
357.12	0.72	487	5	2	99	mem	con	mod	mod	mod	tg	ms	wh/0705.bmp
357.84	0.72	488	4	2	82	mem	lib	mod	mod	mod	nt	ht	nh/0834_nh.bmp
358.56	0.72	489	4	1	18	per	con	mod	mod	mod	nt	cr	nh/0479_nh.bmp
359.28	0.72	490	5	3	90	mem	con	mod	mod	mod	nt	ms	nh/1010_nh.bmp
360.00	0.72	491	2	3	119	per	con	low	mod	low	tg	ms	wh/0459.bmp
360.72	0.72	492	5	2	97	mem	con	mod	mod	mod	nt	ms	nh/0490_nh.bmp
361.44	0.72	493	1	2	15	per	con	mod	low	mod	nt	cr	nh/0498_nh.bmp
362.16	0.72	494	3	1	4	per	lib	mod	mod	mod	nt	cr	nh/0427_nh.bmp
362.88	0.72	495	4	4	118	mem	lib	mod	mod	mod	tg	ms	wh/0983.bmp
363.60	0.72	496	4	3	48	mem	lib	mod	mod	low	nt	ht	nh/0203_nh.bmp
364.32	0.72	497	4	3	127	per	con	low	mod	low	tg	ms	wh/0293.bmp
365.04	0.72	498	5	2	80	per	con	low	mod	low	nt	cr	nh/0575_nh.bmp
365.76	0.72	499	1	4	59	mem	con	low	low	mod	nt	ms	nh/0440_nh.bmp
366.48	0.72	500	5	1	37	mem	con	mod	mod	low	tg	ht	wh/0291.bmp
367.20	0.72	501	1	3	55	per	lib	mod	low	mod	nt	cr	nh/0811_nh.bmp
367.92	0.72	502	3	4	92	per	lib	mod	mod	mod	nt	cr	nh/0313_nh.bmp
368.64	0.72	503	1	1	74	per	lib	low	low	low	nt	fa	nh/0120_nh.bmp
369.36	0.72	504	4	2	93	mem	lib	mod	mod	mod	tg	ms	wh/0039.bmp
370.08	0.72	505	4	2	101	mem	con	mod	mod	mod	nt	ht	nh/0445_nh.bmp
370.80	0.72	506	1	1	53	mem	lib	low	low	mod	nt	ht	nh/0304_nh.bmp
371.52	0.72	507	5	1	35	mem	con	mod	mod	low	nt	ht	nh/0798_nh.bmp
372.24	0.72	508	3	4	18	per	con	mod	mod	mod	nt	cr	nh/0279_nh.bmp
372.96	0.72	509	3	4	28	per	con	mod	mod	mod	tg	ht	wh/0738.bmp
373.68	0.72	510	5	3	81	mem	con	mod	mod	mod	tg	ht	wh/0071.bmp
374.40	0.72	511	3	3	123	per	con	low	mod	low	tg	ms	wh/0263.bmp
375.12	0.72	512	5	2	113	per	lib	low	mod	low	nt	cr	nh/0400_nh.bmp
375.84	0.72	513	5	2	128	per	lib	low	mod	low	nt	fa	nh/0283_nh.bmp
376.56	0.72	514	2	3	95	mem	con	mod	mod	mod	nt	ht	nh/1006_nh.bmp
377.28	0.72	515	6	1	6	per	lib	mod	mod	mod	nt	cr	nh/0061_nh.bmp
378.00	0.72	516	6	2	113	per	lib	low	mod	low	nt	cr	nh/0400_nh.bmp
378.72	0.72	517	6	4	32	per	con	mod	mod	mod	tg	ht	wh/0961.bmp
379.44	0.72	518	5	2	121	per	lib	low	mod	low	tg	ht	wh/0703.bmp
380.16	0.72	519	3	2	84	mem	lib	mod	mod	mod	nt	ht	nh/0759_nh.bmp
380.88	0.72	520	3	1	124	mem	lib	mod	mod	low	nt	ms	nh/0067_nh.bmp
381.60	0.72	521	1	3	8	mem	con	low	low	low	tg	ms	wh/0245.bmp
382.32	0.72	522	4	2	84	mem	lib	mod	mod	mod	nt	ht	nh/0759_nh.bmp
383.04	0.72	523	5	2	71	per	con	low	mod	low	tg	ms	wh/0166.bmp
383.76	0.72	524	4	4	92	per	lib	mod	mod	mod	nt	cr	nh/0313_nh.bmp
384.48	0.72	525	2	1	27	per	con	mod	mod	mod	nt	cr	nh/0592_nh.bmp
385.20	0.72	526	3	1	46	mem	con	mod	mod	low	tg	ht	wh/0523.bmp
385.92	0.72	527	4	4	91	per	lib	mod	mod	mod	tg	ht	wh/0333.bmp
386.64	0.72	528	6	2	121	per	lib	low	mod	low	tg	ht	wh/0703.bmp
387.36	0.72	529	4	3	123	per	con	low	mod	low	tg	ms	wh/0263.bmp
388.08	0.72	530	3	1	126	mem	lib	mod	mod	low	nt	ht	nh/0643_nh.bmp
388.80	0.72	531	5	1	18	per	con	mod	mod	mod	nt	cr	nh/0479_nh.bmp
389.52	0.72	532	6	4	115	mem	lib	mod	mod	mod	nt	ht	nh/0348_nh.bmp
390.24	0.72	533	3	3	119	per	con	low	mod	low	tg	ms	wh/0459.bmp
390.96	0.72	534	1	4	12	per	lib	low	low	low	nt	fa	nh/0309_nh.bmp
391.68	0.72	535	3	1	16	per	lib	mod	mod	mod	tg	ht	wh/0365.bmp
392.40	0.72	536	5	4	25	per	con	mod	mod	mod	nt	cr	nh/0645_nh.bmp
393.12	0.72	537	1	2	53	per	lib	mod	low	mod	nt	cr	nh/1020_nh.bmp
393.84	0.72	538	2	1	127	mem	lib	mod	mod	low	nt	ht	nh/0174_nh.bmp
394.56	0.72	539	5	1	120	mem	lib	mod	mod	low	tg	ht	wh/0683.bmp
395.28	0.72	540	3	4	100	mem	con	mod	mod	low	nt	ht	nh/0007_nh.bmp
396.00	0.72	541	2	3	28	per	lib	low	mod	low	tg	ht	wh/0496.bmp
396.72	0.72	542	5	1	114	mem	lib	mod	mod	low	nt	ht	nh/0757_nh.bmp
397.44	0.72	543	4	1	43	mem	con	mod	mod	low	tg	ms	wh/0390.bmp
398.16	0.72	544	3	3	28	per	lib	low	mod	low	tg	ht	wh/0496.bmp
398.88	0.72	545	5	2	114	per	lib	low	mod	low	nt	cr	nh/1000_nh.bmp
399.60	0.72	546	4	4	109	mem	con	mod	mod	low	nt	ms	nh/1013_nh.bmp
400.32	0.72	547	4	1	4	per	lib	mod	mod	mod	nt	cr	nh/0427_nh.bmp
401.04	0.72	548	5	4	118	mem	lib	mod	mod	mod	tg	ms	wh/0983.bmp
401.76	0.72	549	6	4	118	mem	lib	mod	mod	mod	tg	ms	wh/0983.bmp
402.48	0.72	550	4	4	96	per	lib	mod	mod	mod	nt	cr	nh/0097_nh.bmp
403.20	0.72	551	3	2	74	per	con	low	mod	low	nt	cr	nh/0315_nh.bmp
403.92	0.72	552	2	2	87	mem	lib	mod	mod	mod	nt	ht	nh/0344_nh.bmp
404.64	0.72	553	6	2	97	mem	con	mod	mod	mod	nt	ms	nh/0490_nh.bmp
405.36	0.72	554	1	3	7	mem	con	low	low	low	nt	ht	nh/0828_nh.bmp
406.08	0.72	555	5	4	84	per	lib	mod	mod	mod	tg	ht	wh/0562.bmp
406.80	0.72	556	5	3	29	per	lib	low	mod	low	tg	ht	wh/0302.bmp
407.52	0.72	557	1	2	42	mem	con	low	low	mod	nt	ms	nh/0085_nh.bmp
408.24	0.72	558	3	1	27	per	con	mod	mod	mod	nt	cr	nh/0592_nh.bmp
408.96	0.72	559	3	4	99	mem	con	mod	mod	low	tg	ht	wh/0295.bmp
409.68	0.72	560	4	1	27	per	con	mod	mod	mod	nt	cr	nh/0592_nh.bmp
410.40	0.72	561	5	3	34	mem	lib	mod	mod	low	tg	ht	wh/0511.bmp
411.12	0.72	562	4	1	126	mem	lib	mod	mod	low	nt	ht	nh/0643_nh.bmp
411.84	0.72	563	5	4	121	mem	lib	mod	mod	mod	tg	ht	wh/0104.bmp
412.56	0.72	564	5	2	101	mem	con	mod	mod	mod	nt	ht	nh/0445_nh.bmp
413.28	0.72	565	4	3	39	mem	lib	mod	mod	low	nt	ht	nh/0386_nh.bmp
414.00	0.72	566	4	2	74	per	con	low	mod	low	nt	cr	nh/0315_nh.bmp
414.72	0.72	567	5	2	123	per	lib	low	mod	low	nt	fa	nh/0195_nh.bmp
415.44	0.72	568	3	3	38	mem	lib	mod	mod	low	nt	ht	nh/0368_nh.bmp
416.16	0.72	569	3	3	95	mem	con	mod	mod	mod	nt	ht	nh/1006_nh.bmp
416.88	0.72	570	5	2	117	per	lib	low	mod	low	tg	ht	wh/0641.bmp
417.60	0.72	571	5	1	126	mem	lib	mod	mod	low	nt	ht	nh/0643_nh.bmp
418.32	0.72	572	4	3	20	per	lib	low	mod	low	nt	fa	nh/0671_nh.bmp
419.04	0.72	573	4	4	99	mem	con	mod	mod	low	tg	ht	wh/0295.bmp
419.76	0.72	574	5	1	48	mem	con	mod	mod	low	tg	ms	wh/0131.bmp
420.48	0.72	575	1	4	10	per	lib	low	low	low	tg	ms	wh/0471.bmp
421.20	0.72	576	3	2	108	mem	con	mod	mod	mod	nt	ht	nh/0282_nh.bmp
421.92	0.72	577	5	1	47	mem	con	mod	mod	low	nt	ms	nh/0424_nh.bmp
422.64	0.72	578	1	3	62	per	lib	mod	low	mod	tg	ht	wh/0102.bmp
423.36	0.72	579	4	3	85	mem	con	mod	mod	mod	nt	ht	nh/0576_nh.bmp
424.08	0.72	580	6	3	81	mem	con	mod	mod	mod	tg	ht	wh/0071.bmp
424.80	0.72	581	5	3	92	mem	con	mod	mod	mod	tg	ht	wh/0320.bmp
425.52	0.72	582	1	3	77	mem	lib	low	low	mod	nt	ht	nh/0813_nh.bmp
426.24	0.72	583	1	2	47	mem	con	low	low	mod	nt	ms	nh/0409_nh.bmp
426.96	0.72	584	3	4	101	mem	con	mod	mod	low	tg	ms	wh/0312.bmp
427.68	0.72	585	6	1	29	per	con	mod	mod	mod	nt	cr	nh/0806_nh.bmp
428.40	0.72	586	5	3	116	per	con	low	mod	low	nt	cr	nh/0765_nh.bmp
429.12	0.72	587	5	4	99	mem	con	mod	mod	low	tg	ht	wh/0295.bmp
429.84	0.72	588	6	3	40	mem	lib	mod	mod	low	nt	ht	nh/0323_nh.bmp
430.56	0.72	589	6	2	83	mem	lib	mod	mod	mod	tg	ht	wh/0809.bmp
431.28	0.72	590	5	3	123	per	con	low	mod	low	tg	ms	wh/0263.bmp
432.00	0.72	591	1	2	10	per	con	mod	low	mod	nt	cr	nh/0595_nh.bmp
432.72	0.72	592	2	4	17	per	con	mod	mod	mod	tg	ht	wh/0796.bmp
433.44	0.72	593	6	4	89	per	lib	mod	mod	mod	tg	ht	wh/0628.bmp
434.16	0.72	594	1	2	11	per	con	mod	low	mod	nt	cr	nh/0644_nh.bmp
434.88	0.72	595	4	4	102	mem	con	mod	mod	low	tg	ht	wh/0444.bmp
435.60	0.72	596	1	2	1	per	con	mod	low	mod	tg	ms	wh/0317.bmp
436.32	0.72	597	2	4	19	per	con	mod	mod	mod	tg	ms	wh/0137.bmp
437.04	0.72	598	5	3	127	per	con	low	mod	low	tg	ms	wh/0293.bmp
437.76	0.72	599	4	2	108	mem	con	mod	mod	mod	nt	ht	nh/0282_nh.bmp
438.48	0.72	600	6	4	112	mem	con	mod	mod	low	tg	ms	wh/0415.bmp
439.20	0.72	601	4	3	119	per	con	low	mod	low	tg	ms	wh/0459.bmp
439.92	0.72	602	3	2	87	mem	lib	mod	mod	mod	nt	ht	nh/0344_nh.bmp
440.64	0.72	603	4	3	114	per	con	low	mod	low	nt	cr	nh/0554_nh.bmp
441.36	0.72	604	5	3	48	mem	lib	mod	mod	low	nt	ht	nh/0203_nh.bmp
442.08	0.72	605	6	3	92	mem	con	mod	mod	mod	tg	ht	wh/0320.bmp
442.80	0.72	606	5	1	23	per	con	mod	mod	mod	tg	ht	wh/0448.bmp
443.52	0.72	607	5	4	127	mem	lib	mod	mod	mod	tg	ht	wh/0761.bmp
444.24	0.72	608	1	4	47	mem	lib	low	low	low	nt	ht	nh/0010_nh.bmp
444.96	0.72	609	5	3	94	mem	con	mod	mod	mod	tg	ht	wh/0742.bmp
445.68	0.72	610	5	4	24	per	con	mod	mod	mod	nt	cr	nh/0925_nh.bmp
446.40	0.72	611	6	1	114	mem	lib	mod	mod	low	nt	ht	nh/0757_nh.bmp
447.12	0.72	612	4	2	104	mem	con	mod	mod	mod	tg	ms	wh/0538.bmp
447.84	0.72	613	1	4	90	per	lib	mod	mod	mod	tg	ht	wh/0799.bmp
448.56	0.72	614	1	3	103	per	con	mod	low	mod	tg	ht	wh/0062.bmp
449.28	0.72	615	3	4	93	per	lib	mod	mod	mod	nt	cr	nh/0331_nh.bmp
450.00	0.72	616	6	1	120	mem	lib	mod	mod	low	tg	ht	wh/0683.bmp
450.72	0.72	617	1	2	32	mem	lib	low	low	low	nt	ht	nh/0021_nh.bmp
451.44	0.72	618	6	3	19	per	lib	low	mod	low	nt	fa	nh/0259_nh.bmp
452.16	0.72	619	3	4	17	per	con	mod	mod	mod	tg	ht	wh/0796.bmp
452.88	0.72	620	6	2	99	mem	con	mod	mod	mod	tg	ms	wh/0705.bmp
453.60	0.72	621	5	2	69	per	con	low	mod	low	tg	ht	wh/0030.bmp
454.32	0.72	622	4	1	124	mem	lib	mod	mod	low	nt	ms	nh/0067_nh.bmp
455.04	0.72	623	3	1	117	mem	lib	mod	mod	low	tg	ht	wh/0512.bmp
455.76	0.72	624	2	4	123	mem	lib	mod	mod	mod	nt	ht	nh/0970_nh.bmp
456.48	0.72	625	4	3	38	mem	lib	mod	mod	low	nt	ht	nh/0368_nh.bmp
457.20	0.72	626	2	4	90	per	lib	mod	mod	mod	tg	ht	wh/0799.bmp
457.92	0.72	627	1	2	2	per	con	mod	low	mod	tg	ht	wh/0052.bmp
458.64	0.72	628	6	2	101	mem	con	mod	mod	mod	nt	ht	nh/0445_nh.bmp
459.36	0.72	629	3	4	128	mem	lib	mod	mod	mod	nt	ht	nh/0674_nh.bmp
460.08	0.72	630	5	1	43	mem	con	mod	mod	low	tg	ms	wh/0390.bmp
460.80	0.72	631	5	2	104	mem	con	mod	mod	mod	tg	ms	wh/0538.bmp
461.52	0.72	632	5	3	39	mem	lib	mod	mod	low	nt	ht	nh/0386_nh.bmp
462.24	0.72	633	4	1	117	mem	lib	mod	mod	low	tg	ht	wh/0512.bmp
462.96	0.72	634	1	3	120	per	con	low	mod	low	tg	ms	wh/0412.bmp
463.68	0.72	635	6	2	117	per	lib	low	mod	low	tg	ht	wh/0641.bmp
464.40	0.72	636	4	3	96	mem	con	mod	mod	mod	nt	ms	nh/0487_nh.bmp
465.12	0.72	637	5	1	14	per	lib	mod	mod	mod	tg	ht	wh/0049.bmp
465.84	0.72	638	4	2	92	mem	lib	mod	mod	mod	tg	ht	wh/0477.bmp
466.56	0.72	639	5	4	102	mem	con	mod	mod	low	tg	ht	wh/0444.bmp
467.28	0.72	640	5	1	4	per	lib	mod	mod	mod	nt	cr	nh/0427_nh.bmp
468.00	0.72	641	3	1	7	per	lib	mod	mod	mod	tg	ht	wh/0604.bmp
468.72	0.72	642	1	1	69	per	lib	low	low	low	tg	ht	wh/0607.bmp
469.44	0.72	643	6	2	128	per	lib	low	mod	low	nt	fa	nh/0283_nh.bmp
470.16	0.72	644	5	2	82	mem	lib	mod	mod	mod	nt	ht	nh/0834_nh.bmp
470.88	0.72	645	6	4	127	mem	lib	mod	mod	mod	tg	ht	wh/0761.bmp
471.60	0.72	646	4	2	115	per	lib	low	mod	low	tg	ht	wh/0454.bmp
472.32	0.72	647	4	2	107	mem	con	mod	mod	mod	tg	ht	wh/0343.bmp
473.04	0.72	648	5	4	108	mem	con	mod	mod	low	nt	ms	nh/0494_nh.bmp
473.76	0.72	649	1	1	105	mem	con	low	low	low	tg	ht	wh/0026.bmp
474.48	0.72	650	5	2	108	mem	con	mod	mod	mod	nt	ht	nh/0282_nh.bmp
475.20	0.72	651	6	1	23	per	con	mod	mod	mod	tg	ht	wh/0448.bmp
475.92	0.72	652	4	4	28	per	con	mod	mod	mod	tg	ht	wh/0738.bmp
476.64	0.72	653	6	1	37	mem	con	mod	mod	low	tg	ht	wh/0291.bmp
477.36	0.72	654	6	3	29	per	lib	low	mod	low	tg	ht	wh/0302.bmp
478.08	0.72	655	5	1	25	per	con	mod	mod	mod	nt	cr	nh/0689_nh.bmp
478.80	0.72	656	4	4	18	per	con	mod	mod	mod	nt	cr	nh/0279_nh.bmp
479.52	0.72	657	1	1	104	mem	con	low	low	low	nt	ms	nh/0713_nh.bmp
480.24	0.72	658	2	3	117	per	con	low	mod	low	nt	cr	nh/0914_nh.bmp
480.96	0.72	659	1	2	28	mem	lib	low	low	low	nt	ht	nh/0271_nh.bmp
481.68	0.72	660	6	2	123	per	lib	low	mod	low	nt	fa	nh/0195_nh.bmp
482.40	0.72	661	1	1	68	per	lib	low	low	low	nt	fa	nh/0130_nh.bmp
483.12	0.72	662	1	4	71	per	con	low	low	low	nt	cr	nh/0535_nh.bmp
483.84	0.72	663	5	4	109	mem	con	mod	mod	low	nt	ms	nh/1013_nh.bmp
484.56	0.72	664	6	2	109	mem	con	mod	mod	mod	tg	ms	wh/0151.bmp
485.28	0.72	665	6	2	104	mem	con	mod	mod	mod	tg	ms	wh/0538.bmp
486.00	0.72	666	4	1	7	per	lib	mod	mod	mod	tg	ht	wh/0604.bmp
486.72	0.72	667	4	2	87	mem	lib	mod	mod	mod	nt	ht	nh/0344_nh.bmp
487.44	0.72	668	1	4	14	per	lib	low	low	low	tg	ht	wh/0011.bmp
488.16	0.72	669	3	3	117	per	con	low	mod	low	nt	cr	nh/0914_nh.bmp
488.88	0.72	670	4	3	117	per	con	low	mod	low	nt	cr	nh/0914_nh.bmp
489.60	0.72	671	6	3	116	per	con	low	mod	low	nt	cr	nh/0765_nh.bmp
490.32	0.72	672	4	3	28	per	lib	low	mod	low	tg	ht	wh/0496.bmp
491.04	0.72	673	6	3	94	mem	con	mod	mod	mod	tg	ht	wh/0742.bmp
491.76	0.72	674	2	3	120	per	con	low	mod	low	tg	ms	wh/0412.bmp
492.48	0.72	675	4	3	95	mem	con	mod	mod	mod	nt	ht	nh/1006_nh.bmp
493.20	0.72	676	6	3	90	mem	con	mod	mod	mod	nt	ms	nh/1010_nh.bmp
493.92	0.72	677	6	1	26	per	con	mod	mod	mod	tg	ht	wh/0664.bmp
494.64	0.72	678	5	1	117	mem	lib	mod	mod	low	tg	ht	wh/0512.bmp
495.36	0.72	679	6	2	69	per	con	low	mod	low	tg	ht	wh/0030.bmp
496.08	0.72	680	6	1	18	per	con	mod	mod	mod	nt	cr	nh/0479_nh.bmp
496.80	0.72	681	3	3	120	per	con	low	mod	low	tg	ms	wh/0412.bmp
497.52	0.72	682	1	1	99	mem	con	low	low	low	tg	ms	wh/0877.bmp
498.24	0.72	683	3	4	90	per	lib	mod	mod	mod	tg	ht	wh/0799.bmp
498.96	0.72	684	1	2	44	mem	con	low	low	mod	nt	ms	nh/0201_nh.bmp
499.68	0.72	685	2	3	30	per	lib	low	mod	low	tg	ht	wh/0212.bmp
500.40	0.72	686	1	2	20	mem	lib	low	low	low	nt	ms	nh/0252_nh.bmp
501.12	0.72	687	5	4	88	per	lib	mod	mod	mod	nt	cr	nh/0359_nh.bmp
501.84	0.72	688	6	3	127	per	con	low	mod	low	tg	ms	wh/0293.bmp
502.56	0.72	689	3	3	30	per	lib	low	mod	low	tg	ht	wh/0212.bmp
503.28	0.72	690	5	2	74	per	con	low	mod	low	nt	cr	nh/0315_nh.bmp
504.00	0.72	691	2	2	72	per	con	low	mod	low	nt	cr	nh/0081_nh.bmp
504.72	0.72	692	6	4	99	mem	con	mod	mod	low	tg	ht	wh/0295.bmp
505.44	0.72	693	1	3	108	per	con	mod	low	mod	nt	cr	nh/0616_nh.bmp
506.16	0.72	694	4	4	128	mem	lib	mod	mod	mod	nt	ht	nh/0674_nh.bmp
506.88	0.72	695	4	4	101	mem	con	mod	mod	low	tg	ms	wh/0312.bmp
507.60	0.72	696	6	2	82	mem	lib	mod	mod	mod	nt	ht	nh/0834_nh.bmp
508.32	0.72	697	5	3	85	mem	con	mod	mod	mod	nt	ht	nh/0576_nh.bmp
509.04	0.72	698	6	1	47	mem	con	mod	mod	low	nt	ms	nh/0424_nh.bmp
509.76	0.72	699	5	3	119	per	con	low	mod	low	tg	ms	wh/0459.bmp
510.48	0.72	700	4	3	30	per	lib	low	mod	low	tg	ht	wh/0212.bmp
511.20	0.72	701	4	3	21	per	lib	low	mod	low	nt	cr	nh/0422_nh.bmp
511.92	0.72	702	5	4	128	mem	lib	mod	mod	mod	nt	ht	nh/0674_nh.bmp
512.64	0.72	703	5	3	38	mem	lib	mod	mod	low	nt	ht	nh/0368_nh.bmp
513.36	0.72	704	1	1	72	per	lib	low	low	low	nt	fa	nh/0430_nh.bmp
514.08	0.72	705	1	2	56	per	lib	mod	low	mod	tg	ht	wh/0606.bmp
514.80	0.72	706	3	4	105	mem	con	mod	mod	low	nt	ms	nh/0791_nh.bmp
515.52	0.72	707	6	1	14	per	lib	mod	mod	mod	tg	ht	wh/0049.bmp
516.24	0.72	708	4	1	46	mem	con	mod	mod	low	tg	ht	wh/0523.bmp
516.96	0.72	709	4	2	106	mem	con	mod	mod	mod	nt	ht	nh/0753_nh.bmp
517.68	0.72	710	6	1	126	mem	lib	mod	mod	low	nt	ht	nh/0643_nh.bmp
518.40	0.72	711	5	4	125	mem	lib	mod	mod	mod	nt	ht	nh/0583_nh.bmp
519.12	0.72	712	6	3	123	per	con	low	mod	low	tg	ms	wh/0263.bmp
519.84	0.72	713	1	3	51	per	lib	mod	low	mod	tg	ht	wh/0854.bmp
520.56	0.72	714	1	2	39	mem	con	low	low	mod	tg	ms	wh/0457.bmp
521.28	0.72	715	6	3	38	mem	lib	mod	mod	low	nt	ht	nh/0368_nh.bmp
522.00	0.72	716	3	2	72	per	con	low	mod	low	nt	cr	nh/0081_nh.bmp
522.72	0.72	717	5	2	87	mem	lib	mod	mod	mod	nt	ht	nh/0344_nh.bmp
523.44	0.72	718	5	2	86	mem	lib	mod	mod	mod	tg	ht	wh/0861.bmp
524.16	0.72	719	6	2	71	per	con	low	mod	low	tg	ms	wh/0166.bmp
524.88	0.72	720	4	3	120	per	con	low	mod	low	tg	ms	wh/0412.bmp
525.60	0.72	721	1	3	111	per	con	mod	low	mod	nt	cr	nh/0567_nh.bmp
526.32	0.72	722	6	4	121	mem	lib	mod	mod	mod	tg	ht	wh/0104.bmp
527.04	0.72	723	4	2	68	per	con	low	mod	low	tg	ht	wh/0246.bmp
527.76	0.72	724	6	2	86	mem	lib	mod	mod	mod	tg	ht	wh/0861.bmp
528.48	0.72	725	5	2	93	mem	lib	mod	mod	mod	tg	ms	wh/0039.bmp
529.20	0.72	726	5	3	120	per	con	low	mod	low	tg	ms	wh/0412.bmp
529.92	0.72	727	5	1	46	mem	con	mod	mod	low	tg	ht	wh/0523.bmp
530.64	0.72	728	4	4	93	per	lib	mod	mod	mod	nt	cr	nh/0331_nh.bmp
531.36	0.72	729	6	4	25	per	con	mod	mod	mod	nt	cr	nh/0645_nh.bmp
532.08	0.72	730	5	4	93	per	lib	mod	mod	mod	nt	cr	nh/0331_nh.bmp
532.80	0.72	731	4	4	17	per	con	mod	mod	mod	tg	ht	wh/0796.bmp
533.52	0.72	732	4	3	33	mem	lib	mod	mod	low	tg	ht	wh/0661.bmp
534.24	0.72	733	4	1	16	per	lib	mod	mod	mod	tg	ht	wh/0365.bmp
534.96	0.72	734	5	3	95	mem	con	mod	mod	mod	nt	ht	nh/1006_nh.bmp
535.68	0.72	735	5	2	115	per	lib	low	mod	low	tg	ht	wh/0454.bmp
536.40	0.72	736	5	2	68	per	con	low	mod	low	tg	ht	wh/0246.bmp
537.12	0.72	737	5	1	124	mem	lib	mod	mod	low	nt	ms	nh/0067_nh.bmp
537.84	0.72	738	6	2	114	per	lib	low	mod	low	nt	cr	nh/1000_nh.bmp
538.56	0.72	739	5	3	28	per	lib	low	mod	low	tg	ht	wh/0496.bmp
539.28	0.72	740	5	4	96	per	lib	mod	mod	mod	nt	cr	nh/0097_nh.bmp
540.00	0.72	741	4	4	105	mem	con	mod	mod	low	nt	ms	nh/0791_nh.bmp
540.72	0.72	742	6	1	117	mem	lib	mod	mod	low	tg	ht	wh/0512.bmp
541.44	0.72	743	4	1	22	per	con	mod	mod	mod	tg	ht	wh/0895.bmp
542.16	0.72	744	4	1	3	per	lib	mod	mod	mod	tg	ht	wh/0931.bmp
542.88	0.72	745	6	4	24	per	con	mod	mod	mod	nt	cr	nh/0925_nh.bmp
543.60	0.72	746	5	3	117	per	con	low	mod	low	nt	cr	nh/0914_nh.bmp
544.32	0.72	747	6	4	125	mem	lib	mod	mod	mod	nt	ht	nh/0583_nh.bmp
545.04	0.72	748	1	3	106	per	con	mod	low	mod	nt	cr	nh/0754_nh.bmp
545.76	0.72	749	6	1	113	mem	lib	mod	mod	low	tg	ht	wh/0792.bmp
546.48	0.72	750	6	1	35	mem	con	mod	mod	low	nt	ht	nh/0798_nh.bmp
547.20	0.72	751	5	2	88	mem	lib	mod	mod	mod	nt	ht	nh/0358_nh.bmp
547.92	0.72	752	5	4	18	per	con	mod	mod	mod	nt	cr	nh/0279_nh.bmp
548.64	0.72	753	5	4	31	per	con	mod	mod	mod	nt	cr	nh/0665_nh.bmp
549.36	0.72	754	3	4	19	per	con	mod	mod	mod	tg	ms	wh/0137.bmp
550.08	0.72	755	4	3	27	per	lib	low	mod	low	nt	cr	nh/0672_nh.bmp
550.80	0.72	756	5	1	27	per	con	mod	mod	mod	nt	cr	nh/0592_nh.bmp
551.52	0.72	757	6	2	88	mem	lib	mod	mod	mod	nt	ht	nh/0358_nh.bmp
552.24	0.72	758	5	4	105	mem	con	mod	mod	low	nt	ms	nh/0791_nh.bmp
552.96	0.72	759	4	4	90	per	lib	mod	mod	mod	tg	ht	wh/0799.bmp
553.68	0.72	760	5	4	91	per	lib	mod	mod	mod	tg	ht	wh/0333.bmp
554.40	0.72	761	6	4	96	per	lib	mod	mod	mod	nt	cr	nh/0097_nh.bmp
555.12	0.72	762	5	3	96	mem	con	mod	mod	mod	nt	ms	nh/0487_nh.bmp
555.84	0.72	763	3	4	123	mem	lib	mod	mod	mod	nt	ht	nh/0970_nh.bmp
556.56	0.72	764	6	1	43	mem	con	mod	mod	low	tg	ms	wh/0390.bmp
557.28	0.72	765	5	3	87	mem	con	mod	mod	mod	tg	ht	wh/0901.bmp
558.00	0.72	766	6	1	121	mem	lib	mod	mod	low	tg	ht	wh/0976.bmp
558.72	0.72	767	6	3	87	mem	con	mod	mod	mod	tg	ht	wh/0901.bmp
559.44	0.72	768	5	1	7	per	lib	mod	mod	mod	tg	ht	wh/0604.bmp
560.16	0.72	769	4	2	77	per	con	low	mod	low	nt	cr	nh/0509_nh.bmp
560.88	0.72	770	5	4	17	per	con	mod	mod	mod	tg	ht	wh/0796.bmp
561.60	0.72	771	6	3	119	per	con	low	mod	low	tg	ms	wh/0459.bmp
562.32	0.72	772	4	4	123	mem	lib	mod	mod	mod	nt	ht	nh/0970_nh.bmp
563.04	0.72	773	5	1	20	per	con	mod	mod	mod	tg	ht	wh/0229.bmp
563.76	0.72	774	6	4	105	mem	con	mod	mod	low	nt	ms	nh/0791_nh.bmp
564.48	0.72	775	6	3	120	per	con	low	mod	low	tg	ms	wh/0412.bmp
565.20	0.72	776	6	3	37	mem	lib	mod	mod	low	tg	ht	wh/0124.bmp
565.92	0.72	777	6	1	7	per	lib	mod	mod	mod	tg	ht	wh/0604.bmp
566.64	0.72	778	6	3	118	per	con	low	mod	low	nt	cr	nh/0438_nh.bmp
567.36	0.72	779	3	1	127	mem	lib	mod	mod	low	nt	ht	nh/0174_nh.bmp
568.08	0.72	780	6	4	91	per	lib	mod	mod	mod	tg	ht	wh/0333.bmp
568.80	0.72	781	5	2	84	mem	lib	mod	mod	mod	nt	ht	nh/0759_nh.bmp
569.52	0.72	782	6	4	17	per	con	mod	mod	mod	tg	ht	wh/0796.bmp
570.24	0.72	783	1	3	54	per	lib	mod	low	mod	nt	cr	nh/0773_nh.bmp
570.96	0.72	784	5	1	16	per	lib	mod	mod	mod	tg	ht	wh/0365.bmp
571.68	0.72	785	6	2	108	mem	con	mod	mod	mod	nt	ht	nh/0282_nh.bmp
572.40	0.72	786	5	4	92	per	lib	mod	mod	mod	nt	cr	nh/0313_nh.bmp
573.12	0.72	787	2	2	125	per	lib	low	mod	low	tg	ht	wh/0132.bmp
573.84	0.72	788	4	1	36	mem	con	mod	mod	low	nt	ht	nh/0236_nh.bmp
574.56	0.72	789	6	4	102	mem	con	mod	mod	low	tg	ht	wh/0444.bmp
575.28	0.72	790	6	3	42	mem	lib	mod	mod	low	tg	ht	wh/0988.bmp
576.00	0.72	791	4	4	100	mem	con	mod	mod	low	nt	ht	nh/0007_nh.bmp
576.72	0.72	792	5	2	107	mem	con	mod	mod	mod	tg	ht	wh/0343.bmp
577.44	0.72	793	1	1	102	mem	con	low	low	low	nt	ht	nh/0653_nh.bmp
578.16	0.72	794	4	4	19	per	con	mod	mod	mod	tg	ms	wh/0137.bmp
578.88	0.72	795	6	3	48	mem	lib	mod	mod	low	nt	ht	nh/0203_nh.bmp
579.60	0.72	796	6	4	88	per	lib	mod	mod	mod	nt	cr	nh/0359_nh.bmp
580.32	0.72	797	4	1	127	mem	lib	mod	mod	low	nt	ht	nh/0174_nh.bmp
581.04	0.72	798	6	3	23	per	lib	low	mod	low	tg	ht	wh/0882.bmp
581.76	0.72	799	6	2	74	per	con	low	mod	low	nt	cr	nh/0315_nh.bmp
582.48	0.72	800	1	1	52	mem	lib	low	low	mod	nt	ht	nh/0872_nh.bmp
583.20	0.72	801	5	3	114	per	con	low	mod	low	nt	cr	nh/0554_nh.bmp
583.92	0.72	802	5	4	19	per	con	mod	mod	mod	tg	ms	wh/0137.bmp
584.64	0.72	803	5	3	30	per	lib	low	mod	low	tg	ht	wh/0212.bmp
585.36	0.72	804	1	3	68	mem	lib	low	low	mod	nt	ht	nh/0502_nh.bmp
586.08	0.72	805	1	3	60	per	lib	mod	low	mod	tg	ht	wh/0069.bmp
586.80	0.72	806	5	3	20	per	lib	low	mod	low	nt	fa	nh/0671_nh.bmp
587.52	0.72	807	4	1	15	per	lib	mod	mod	mod	nt	cr	nh/0943_nh.bmp
588.24	0.72	808	5	1	3	per	lib	mod	mod	mod	tg	ht	wh/0931.bmp
588.96	0.72	809	3	2	125	per	lib	low	mod	low	tg	ht	wh/0132.bmp
589.68	0.72	810	4	2	72	per	con	low	mod	low	nt	cr	nh/0081_nh.bmp
590.40	0.72	811	1	4	50	mem	con	low	low	mod	tg	ms	wh/0547.bmp
591.12	0.72	812	5	4	90	per	lib	mod	mod	mod	tg	ht	wh/0799.bmp
591.84	0.72	813	6	1	3	per	lib	mod	mod	mod	tg	ht	wh/0931.bmp
592.56	0.72	814	6	4	92	per	lib	mod	mod	mod	nt	cr	nh/0313_nh.bmp
593.28	0.72	815	5	2	72	per	con	low	mod	low	nt	cr	nh/0081_nh.bmp
594.00	0.72	816	6	1	46	mem	con	mod	mod	low	tg	ht	wh/0523.bmp
594.72	0.72	817	5	4	101	mem	con	mod	mod	low	tg	ms	wh/0312.bmp
595.44	0.72	818	5	4	123	mem	lib	mod	mod	mod	nt	ht	nh/0970_nh.bmp
596.16	0.72	819	5	4	100	mem	con	mod	mod	low	nt	ht	nh/0007_nh.bmp
596.88	0.72	820	1	4	73	per	con	low	low	low	tg	ms	wh/0169.bmp
597.60	0.72	821	5	4	28	per	con	mod	mod	mod	tg	ht	wh/0738.bmp
598.32	0.72	822	5	2	92	mem	lib	mod	mod	mod	tg	ht	wh/0477.bmp
599.04	0.72	823	6	2	93	mem	lib	mod	mod	mod	tg	ms	wh/0039.bmp
599.76	0.72	824	6	1	27	per	con	mod	mod	mod	nt	cr	nh/0592_nh.bmp
600.48	0.72	825	1	4	63	mem	con	low	low	mod	nt	ms	nh/0858_nh.bmp
601.20	0.72	826	6	2	68	per	con	low	mod	low	tg	ht	wh/0246.bmp
601.92	0.72	827	5	1	36	mem	con	mod	mod	low	nt	ht	nh/0236_nh.bmp
602.64	0.72	828	6	2	107	mem	con	mod	mod	mod	tg	ht	wh/0343.bmp
603.36	0.72	829	6	4	101	mem	con	mod	mod	low	tg	ms	wh/0312.bmp
604.08	0.72	830	4	2	125	per	lib	low	mod	low	tg	ht	wh/0132.bmp
604.80	0.72	831	1	4	3	per	lib	low	low	low	tg	ms	wh/0184.bmp
605.52	0.72	832	6	3	34	mem	lib	mod	mod	low	tg	ht	wh/0511.bmp
606.24	0.72	833	6	2	87	mem	lib	mod	mod	mod	nt	ht	nh/0344_nh.bmp
606.96	0.72	834	6	4	93	per	lib	mod	mod	mod	nt	cr	nh/0331_nh.bmp
607.68	0.72	835	1	2	17	mem	lib	low	low	low	tg	ht	wh/0632.bmp
608.40	0.72	836	6	3	114	per	con	low	mod	low	nt	cr	nh/0554_nh.bmp
609.12	0.72	837	6	1	4	per	lib	mod	mod	mod	nt	cr	nh/0427_nh.bmp
609.84	0.72	838	5	1	22	per	con	mod	mod	mod	tg	ht	wh/0895.bmp
610.56	0.72	839	6	4	84	per	lib	mod	mod	mod	tg	ht	wh/0562.bmp
611.28	0.72	840	5	3	27	per	lib	low	mod	low	nt	cr	nh/0672_nh.bmp
612.00	0.72	841	5	1	127	mem	lib	mod	mod	low	nt	ht	nh/0174_nh.bmp
612.72	0.72	842	6	3	27	per	lib	low	mod	low	nt	cr	nh/0672_nh.bmp
613.44	0.72	843	6	3	30	per	lib	low	mod	low	tg	ht	wh/0212.bmp
614.16	0.72	844	6	2	72	per	con	low	mod	low	nt	cr	nh/0081_nh.bmp
614.88	0.72	845	6	3	85	mem	con	mod	mod	mod	nt	ht	nh/0576_nh.bmp
615.60	0.72	846	5	3	33	mem	lib	mod	mod	low	tg	ht	wh/0661.bmp
616.32	0.72	847	6	4	18	per	con	mod	mod	mod	nt	cr	nh/0279_nh.bmp
617.04	0.72	848	1	2	3	per	con	mod	low	mod	tg	ht	wh/0937.bmp
617.76	0.72	849	6	1	16	per	lib	mod	mod	mod	tg	ht	wh/0365.bmp
618.48	0.72	850	6	4	109	mem	con	mod	mod	low	nt	ms	nh/1013_nh.bmp
619.20	0.72	851	1	1	87	per	con	low	low	low	tg	ms	wh/0824.bmp
619.92	0.72	852	6	2	92	mem	lib	mod	mod	mod	tg	ht	wh/0477.bmp
620.64	0.72	853	1	4	7	per	lib	low	low	low	nt	cr	nh/0911_nh.bmp
621.36	0.72	854	6	4	116	mem	lib	mod	mod	mod	tg	ht	wh/0413.bmp
622.08	0.72	855	6	4	108	mem	con	mod	mod	low	nt	ms	nh/0494_nh.bmp
622.80	0.72	856	5	2	77	per	con	low	mod	low	nt	cr	nh/0509_nh.bmp
623.52	0.72	857	6	1	25	per	con	mod	mod	mod	nt	cr	nh/0689_nh.bmp
624.24	0.72	858	6	1	20	per	con	mod	mod	mod	tg	ht	wh/0229.bmp
624.96	0.72	859	1	4	45	mem	lib	low	low	low	nt	ht	nh/0167_nh.bmp
625.68	0.72	860	6	3	117	per	con	low	mod	low	nt	cr	nh/0914_nh.bmp
626.40	0.72	861	6	3	96	mem	con	mod	mod	mod	nt	ms	nh/0487_nh.bmp
627.12	0.72	862	5	3	21	per	lib	low	mod	low	nt	cr	nh/0422_nh.bmp
627.84	0.72	863	5	1	15	per	lib	mod	mod	mod	nt	cr	nh/0943_nh.bmp
628.56	0.72	864	1	1	67	per	lib	low	low	low	tg	ht	wh/0492.bmp
629.28	0.72	865	6	4	19	per	con	mod	mod	mod	tg	ms	wh/0137.bmp
630.00	0.72	866	1	4	38	mem	lib	low	low	low	tg	ms	wh/0783.bmp
630.72	0.72	867	5	2	125	per	lib	low	mod	low	tg	ht	wh/0132.bmp
631.44	0.72	868	6	1	39	mem	con	mod	mod	low	nt	ms	nh/0615_nh.bmp
632.16	0.72	869	6	3	33	mem	lib	mod	mod	low	tg	ht	wh/0661.bmp
632.88	0.72	870	1	3	5	mem	con	low	low	low	tg	ms	wh/0363.bmp
633.60	0.72	871	6	3	95	mem	con	mod	mod	mod	nt	ht	nh/1006_nh.bmp
634.32	0.72	872	6	2	115	per	lib	low	mod	low	tg	ht	wh/0454.bmp
635.04	0.72	873	6	4	28	per	con	mod	mod	mod	tg	ht	wh/0738.bmp
635.76	0.72	874	5	2	106	mem	con	mod	mod	mod	nt	ht	nh/0753_nh.bmp
636.48	0.72	875	6	2	78	per	con	low	mod	low	tg	ht	wh/0410.bmp
637.20	0.72	876	6	4	90	per	lib	mod	mod	mod	tg	ht	wh/0799.bmp
637.92	0.72	877	6	1	48	mem	con	mod	mod	low	tg	ms	wh/0131.bmp
638.64	0.72	878	6	2	77	per	con	low	mod	low	nt	cr	nh/0509_nh.bmp
639.36	0.72	879	6	3	28	per	lib	low	mod	low	tg	ht	wh/0496.bmp
640.08	0.72	880	6	4	128	mem	lib	mod	mod	mod	nt	ht	nh/0674_nh.bmp
640.80	0.72	881	6	2	125	per	lib	low	mod	low	tg	ht	wh/0132.bmp
641.52	0.72	882	6	2	84	mem	lib	mod	mod	mod	nt	ht	nh/0759_nh.bmp
642.24	0.72	883	6	1	22	per	con	mod	mod	mod	tg	ht	wh/0895.bmp
642.96	0.72	884	6	1	15	per	lib	mod	mod	mod	nt	cr	nh/0943_nh.bmp
643.68	0.72	885	1	2	59	per	lib	mod	low	mod	nt	fa	nh/0667_nh.bmp
644.40	0.72	886	6	3	39	mem	lib	mod	mod	low	nt	ht	nh/0386_nh.bmp
645.12	0.72	887	6	1	127	mem	lib	mod	mod	low	nt	ht	nh/0174_nh.bmp
645.84	0.72	888	6	1	36	mem	con	mod	mod	low	nt	ht	nh/0236_nh.bmp
646.56	0.72	889	6	4	31	per	con	mod	mod	mod	nt	cr	nh/0665_nh.bmp
647.28	0.72	890	6	4	123	mem	lib	mod	mod	mod	nt	ht	nh/0970_nh.bmp
648.00	0.72	891	6	2	80	per	con	low	mod	low	nt	cr	nh/0575_nh.bmp
648.72	0.72	892	6	1	124	mem	lib	mod	mod	low	nt	ms	nh/0067_nh.bmp
649.44	0.72	893	6	2	106	mem	con	mod	mod	mod	nt	ht	nh/0753_nh.bmp
650.16	0.72	894	6	3	21	per	lib	low	mod	low	nt	cr	nh/0422_nh.bmp
650.88	0.72	895	6	4	100	mem	con	mod	mod	low	nt	ht	nh/0007_nh.bmp
651.60	0.72	896	6	3	20	per	lib	low	mod	low	nt	fa	nh/0671_nh.bmp
