onset	duration	trial	pres	ts_blk	ts_trl	task	crit	disc	mem_disc	per_disc	per_type	accuracy	stim_file
7.20	0.72	1	1	5	84	mem	lib	mod	mod	low	tg	ht	wh/0238.bmp
7.92	0.72	2	1	7	21	per	con	low	mod	low	tg	ms	wh/0443.bmp
8.64	0.72	3	1	7	5	per	lib	low	low	low	nt	fa	nh/0458_nh.bmp
9.36	0.72	4	1	5	82	mem	lib	mod	mod	low	tg	ht	wh/0125.bmp
10.08	0.72	5	1	5	96	mem	lib	mod	mod	low	nt	ht	nh/0967_nh.bmp
10.80	0.72	6	1	6	19	per	lib	mod	mod	mod	tg	ht	wh/0941.bmp
11.52	0.72	7	1	6	47	mem	lib	mod	mod	mod	nt	ht	nh/0697_nh.bmp
12.24	0.72	8	1	5	13	per	con	mod	mod	mod	tg	ms	wh/0196.bmp
12.96	0.72	9	1	8	46	mem	lib	mod	mod	mod	tg	ht	wh/0784.bmp
13.68	0.72	10	1	6	120	mem	con	low	low	mod	tg	ms	wh/0729.bmp
14.40	0.72	11	1	5	21	mem	con	mod	mod	low	tg	ms	wh/0123.bmp
15.12	0.72	12	1	7	23	per	con	low	mod	low	tg	ms	wh/0690.bmp
15.84	0.72	13	1	7	46	per	lib	mod	mod	mod	tg	ht	wh/0805.bmp
16.56	0.72	14	2	6	47	mem	lib	mod	mod	mod	nt	ht	nh/0697_nh.bmp
17.28	0.72	15	1	6	89	per	con	mod	low	mod	nt	cr	nh/0025_nh.bmp
18.00	0.72	16	1	6	106	mem	con	mod	mod	mod	nt	ht	nh/0328_nh.bmp
18.72	0.72	17	1	5	125	per	con	low	mod	low	nt	cr	nh/0940_nh.bmp
19.44	0.72	18	1	6	37	mem	lib	mod	mod	mod	tg	ht	wh/0396.bmp
20.16	0.72	19	1	7	18	per	con	low	mod	low	nt	fa	nh/0077_nh.bmp
20.88	0.72	20	1	8	80	per	con	mod	mod	mod	nt	cr	nh/0807_nh.bmp
21.60	0.72	21	1	7	6	per	lib	low	low	low	nt	fa	nh/0845_nh.bmp
22.32	0.72	22	1	8	120	mem	con	mod	mod	mod	nt	ms	nh/0339_nh.bmp
23.04	0.72	23	1	5	115	per	con	low	mod	low	nt	cr	nh/0080_nh.bmp
23.76	0.72	24	1	8	117	mem	con	mod	mod	mod	tg	ms	wh/0957.bmp
24.48	0.72	25	1	6	39	mem	lib	mod	mod	mod	tg	ht	wh/0588.bmp
25.20	0.72	26	2	6	37	mem	lib	mod	mod	mod	tg	ht	wh/0396.bmp
25.92	0.72	27	1	8	66	per	con	mod	mod	mod	tg	ht	wh/0803.bmp
26.64	0.72	28	2	6	19	per	lib	mod	mod	mod	tg	ht	wh/0941.bmp
27.36	0.72	29	1	7	56	mem	con	mod	mod	low	nt	ms	nh/0079_nh.bmp
28.08	0.72	30	1	6	110	mem	con	mod	mod	mod	nt	ms	nh/0398_nh.bmp
28.80	0.72	31	2	5	82	mem	lib	mod	mod	low	tg	ht	wh/0125.bmp
29.52	0.72	32	2	6	106	mem	con	mod	mod	mod	nt	ht	nh/0328_nh.bmp
30.24	0.72	33	1	6	61	per	lib	low	mod	low	tg	ht	wh/0355.bmp
30.96	0.72	34	1	5	1	per	con	mod	mod	mod	nt	cr	nh/0543_nh.bmp
31.68	0.72	35	1	7	63	mem	con	mod	mod	low	nt	ht	nh/0336_nh.bmp
32.40	0.72	36	1	5	28	mem	con	mod	mod	low	nt	ms	nh/0964_nh.bmp
33.12	0.72	37	1	7	49	mem	con	mod	mod	low	tg	ht	wh/0613.bmp
33.84	0.72	38	1	7	33	per	lib	mod	mod	mod	tg	ht	wh/0428.bmp
34.56	0.72	39	1	7	41	per	lib	mod	mod	mod	nt	cr	nh/0182_nh.bmp
35.28	0.72	40	1	6	38	mem	lib	mod	mod	mod	nt	ht	nh/0954_nh.bmp
36.00	0.72	41	1	8	49	per	lib	low	mod	low	tg	ht	wh/0345.bmp
36.72	0.72	42	1	5	108	per	lib	low	low	low	tg	ht	wh/0384.bmp
37.44	0.72	43	1	5	3	per	con	mod	mod	mod	tg	ht	wh/0099.bmp
38.16	0.72	44	1	6	27	per	lib	mod	mod	mod	tg	ht	wh/0222.bmp
38.88	0.72	45	1	8	106	mem	con	low	low	low	nt	ht	nh/1007_nh.bmp
39.60	0.72	46	1	7	86	mem	con	low	low	mod	nt	ms	nh/0469_nh.bmp
40.32	0.72	47	1	8	71	per	con	mod	mod	mod	tg	ht	wh/0928.bmp
41.04	0.72	48	2	8	66	per	con	mod	mod	mod	tg	ht	wh/0803.bmp
41.76	0.72	49	1	7	101	mem	lib	mod	mod	low	nt	ht	nh/0619_nh.bmp
42.48	0.72	50	1	8	119	mem	con	mod	mod	mod	tg	ht	wh/0962.bmp
43.20	0.72	51	1	8	61	per	lib	low	mod	low	tg	ht	wh/0510.bmp
43.92	0.72	52	2	8	61	per	lib	low	mod	low	tg	ht	wh/0510.bmp
44.64	0.72	53	1	5	116	per	con	low	mod	low	tg	ms	wh/0035.bmp
45.36	0.72	54	1	8	22	mem	lib	low	low	mod	nt	ms	nh/0598_nh.bmp
46.08	0.72	55	1	8	73	per	con	mod	mod	mod	nt	cr	nh/0540_nh.bmp
46.80	0.72	56	1	6	31	per	lib	mod	mod	mod	nt	fa	nh/0319_nh.bmp
47.52	0.72	57	1	8	56	per	lib	low	mod	low	tg	ht	wh/0338.bmp
48.24	0.72	58	1	8	20	mem	lib	low	low	mod	tg	ht	wh/0316.bmp
48.96	0.72	59	1	7	105	mem	lib	mod	mod	low	nt	ht	nh/0489_nh.bmp
49.68	0.72	60	1	7	60	mem	con	mod	mod	low	tg	ms	wh/0802.bmp
50.40	0.72	61	2	6	39	mem	lib	mod	mod	mod	tg	ht	wh/0588.bmp
51.12	0.72	62	1	6	48	mem	lib	mod	mod	mod	tg	ht	wh/0497.bmp
51.84	0.72	63	1	8	79	per	con	mod	mod	mod	nt	cr	nh/0716_nh.bmp
52.56	0.72	64	2	8	71	per	con	mod	mod	mod	tg	ht	wh/0928.bmp
53.28	0.72	65	2	8	73	per	con	mod	mod	mod	nt	cr	nh/0540_nh.bmp
54.00	0.72	66	1	5	114	per	con	low	mod	low	tg	ms	wh/0194.bmp
54.72	0.72	67	1	7	24	per	con	low	mod	low	tg	ms	wh/0760.bmp
55.44	0.72	68	1	8	126	mem	con	mod	mod	mod	tg	ms	wh/0946.bmp
56.16	0.72	69	1	5	26	mem	con	mod	mod	low	tg	ht	wh/0493.bmp
56.88	0.72	70	1	8	14	per	lib	mod	low	mod	nt	cr	nh/0860_nh.bmp
57.60	0.72	71	1	6	20	per	lib	mod	mod	mod	nt	fa	nh/0855_nh.bmp
58.32	0.72	72	1	7	106	mem	lib	mod	mod	low	tg	ht	wh/0577.bmp
59.04	0.72	73	1	7	111	mem	lib	mod	mod	low	tg	ht	wh/0503.bmp
59.76	0.72	74	1	6	29	per	lib	mod	mod	mod	tg	ht	wh/0874.bmp
60.48	0.72	75	1	5	32	mem	con	mod	mod	low	nt	ht	nh/0635_nh.bmp
61.20	0.72	76	2	6	61	per	lib	low	mod	low	tg	ht	wh/0355.bmp
61.92	0.72	77	1	8	75	per	con	mod	mod	mod	tg	ht	wh/0909.bmp
62.64	0.72	78	3	6	47	mem	lib	mod	mod	mod	nt	ht	nh/0697_nh.bmp
63.36	0.72	79	1	7	61	mem	con	mod	mod	low	tg	ms	wh/0417.bmp
64.08	0.72	80	1	6	36	mem	lib	mod	mod	mod	nt	ht	nh/0095_nh.bmp
64.80	0.72	81	1	8	77	per	con	mod	mod	mod	nt	cr	nh/0772_nh.bmp
65.52	0.72	82	2	8	49	per	lib	low	mod	low	tg	ht	wh/0345.bmp
66.24	0.72	83	1	5	16	per	con	mod	mod	mod	nt	cr	nh/0542_nh.bmp
66.96	0.72	84	2	7	61	mem	con	mod	mod	low	tg	ms	wh/0417.bmp
67.68	0.72	85	1	6	43	mem	lib	mod	mod	mod	tg	ht	wh/0843.bmp
68.40	0.72	86	1	5	126	per	con	low	mod	low	nt	cr	nh/0646_nh.bmp
69.12	0.72	87	1	6	59	per	lib	low	mod	low	nt	fa	nh/0256_nh.bmp
69.84	0.72	88	1	7	20	per	con	low	mod	low	nt	cr	nh/0036_nh.bmp
70.56	0.72	89	2	5	114	per	con	low	mod	low	tg	ms	wh/0194.bmp
71.28	0.72	90	2	6	110	mem	con	mod	mod	mod	nt	ms	nh/0398_nh.bmp
72.00	0.72	91	1	6	56	per	lib	low	mod	low	tg	ms	wh/0730.bmp
72.72	0.72	92	1	8	84	per	con	low	low	low	tg	ms	wh/0088.bmp
73.44	0.72	93	2	7	56	mem	con	mod	mod	low	nt	ms	nh/0079_nh.bmp
74.16	0.72	94	1	6	86	per	con	mod	low	mod	tg	ht	wh/0267.bmp
74.88	0.72	95	3	8	49	per	lib	low	mod	low	tg	ht	wh/0345.bmp
75.60	0.72	96	1	5	23	mem	con	mod	mod	low	nt	ms	nh/0082_nh.bmp
76.32	0.72	97	3	7	61	mem	con	mod	mod	low	tg	ms	wh/0417.bmp
77.04	0.72	98	1	8	67	per	con	mod	mod	mod	tg	ms	wh/0371.bmp
77.76	0.72	99	2	8	67	per	con	mod	mod	mod	tg	ms	wh/0371.bmp
78.48	0.72	100	1	8	18	mem	lib	low	low	mod	nt	ht	nh/0290_nh.bmp
79.20	0.72	101	2	6	31	per	lib	mod	mod	mod	nt	fa	nh/0319_nh.bmp
79.92	0.72	102	2	5	84	mem	lib	mod	mod	low	tg	ht	wh/0238.bmp
80.64	0.72	103	3	6	110	mem	con	mod	mod	mod	nt	ms	nh/0398_nh.bmp
81.36	0.72	104	1	7	78	mem	lib	low	low	low	tg	ht	wh/0864.bmp
82.08	0.72	105	1	7	100	mem	lib	mod	mod	low	nt	ht	nh/0893_nh.bmp
82.80	0.72	106	2	5	1	per	con	mod	mod	mod	nt	cr	nh/0543_nh.bmp
83.52	0.72	107	1	5	97	per	lib	low	low	low	nt	fa	nh/0823_nh.bmp
84.24	0.72	108	1	6	98	mem	con	mod	mod	mod	tg	ms	wh/0380.bmp
84.96	0.72	109	1	8	52	per	lib	low	mod	low	nt	fa	nh/0299_nh.bmp
85.68	0.72	110	2	5	96	mem	lib	mod	mod	low	nt	ht	nh/0967_nh.bmp
86.40	0.72	111	3	8	67	per	con	mod	mod	mod	tg	ms	wh/0371.bmp
87.12	0.72	112	2	7	49	mem	con	mod	mod	low	tg	ht	wh/0613.bmp
87.84	0.72	113	2	5	23	mem	con	mod	mod	low	nt	ms	nh/0082_nh.bmp
88.56	0.72	114	2	5	126	per	con	low	mod	low	nt	cr	nh/0646_nh.bmp
89.28	0.72	115	1	5	104	per	lib	low	low	low	tg	ht	wh/0804.bmp
90.00	0.72	116	1	8	37	mem	lib	mod	mod	mod	nt	ht	nh/0947_nh.bmp
90.72	0.72	117	1	8	94	per	con	low	low	low	nt	cr	nh/0053_nh.bmp
91.44	0.72	118	1	5	12	per	con	mod	mod	mod	nt	cr	nh/0594_nh.bmp
92.16	0.72	119	1	8	38	mem	lib	mod	mod	mod	nt	ht	nh/0973_nh.bmp
92.88	0.72	120	1	8	33	mem	lib	mod	mod	mod	tg	ht	wh/0563.bmp
93.60	0.72	121	2	7	18	per	con	low	mod	low	nt	fa	nh/0077_nh.bmp
94.32	0.72	122	2	6	36	mem	lib	mod	mod	mod	nt	ht	nh/0095_nh.bmp
95.04	0.72	123	1	6	24	per	lib	mod	mod	mod	nt	cr	nh/0094_nh.bmp
95.76	0.72	124	1	8	45	mem	lib	mod	mod	mod	tg	ht	wh/0447.bmp
96.48	0.72	125	2	6	38	mem	lib	mod	mod	mod	nt	ht	nh/0954_nh.bmp
97.20	0.72	126	2	8	120	mem	con	mod	mod	mod	nt	ms	nh/0339_nh.bmp
97.92	0.72	127	4	6	110	mem	con	mod	mod	mod	nt	ms	nh/0398_nh.bmp
98.64	0.72	128	2	7	101	mem	lib	mod	mod	low	nt	ht	nh/0619_nh.bmp
99.36	0.72	129	1	6	97	mem	con	mod	mod	mod	nt	ht	nh/0591_nh.bmp
100.08	0.72	130	1	5	51	per	lib	mod	low	mod	tg	ht	wh/0927.bmp
100.80	0.72	131	3	5	23	mem	con	mod	mod	low	nt	ms	nh/0082_nh.bmp
101.52	0.72	132	2	6	43	mem	lib	mod	mod	mod	tg	ht	wh/0843.bmp
102.24	0.72	133	3	6	38	mem	lib	mod	mod	mod	nt	ht	nh/0954_nh.bmp
102.96	0.72	134	1	6	87	per	con	mod	low	mod	nt	cr	nh/0220_nh.bmp
103.68	0.72	135	1	5	72	mem	lib	low	low	mod	tg	ms	wh/0846.bmp
104.40	0.72	136	2	5	32	mem	con	mod	mod	low	nt	ht	nh/0635_nh.bmp
105.12	0.72	137	3	6	61	per	lib	low	mod	low	tg	ht	wh/0355.bmp
105.84	0.72	138	1	7	34	per	lib	mod	mod	mod	tg	ht	wh/0209.bmp
106.56	0.72	139	2	6	29	per	lib	mod	mod	mod	tg	ht	wh/0874.bmp
107.28	0.72	140	2	8	46	mem	lib	mod	mod	mod	tg	ht	wh/0784.bmp
108.00	0.72	141	1	5	63	per	lib	mod	low	mod	nt	fa	nh/0525_nh.bmp
108.72	0.72	142	1	8	54	per	lib	low	mod	low	nt	cr	nh/0284_nh.bmp
109.44	0.72	143	2	5	16	per	con	mod	mod	mod	nt	cr	nh/0542_nh.bmp
110.16	0.72	144	1	7	75	mem	lib	low	low	low	tg	ht	wh/0701.bmp
110.88	0.72	145	1	8	116	mem	con	mod	mod	mod	tg	ms	wh/0748.bmp
111.60	0.72	146	1	5	35	mem	con	low	low	low	tg	ht	wh/0536.bmp
112.32	0.72	147	2	8	119	mem	con	mod	mod	mod	tg	ht	wh/0962.bmp
113.04	0.72	148	1	6	26	per	lib	mod	mod	mod	tg	ht	wh/0199.bmp
113.76	0.72	149	1	8	42	mem	lib	mod	mod	mod	nt	ht	nh/0462_nh.bmp
114.48	0.72	150	1	6	5	mem	lib	low	low	low	tg	ht	wh/0483.bmp
115.20	0.72	151	1	6	7	mem	lib	low	low	low	tg	ht	wh/0206.bmp
115.92	0.72	152	3	5	126	per	con	low	mod	low	nt	cr	nh/0646_nh.bmp
116.64	0.72	153	1	5	64	per	lib	mod	low	mod	nt	fa	nh/0718_nh.bmp
117.36	0.72	154	2	8	33	mem	lib	mod	mod	mod	tg	ht	wh/0563.bmp
118.08	0.72	155	1	7	44	per	lib	mod	mod	mod	nt	fa	nh/0650_nh.bmp
118.80	0.72	156	2	7	100	mem	lib	mod	mod	low	nt	ht	nh/0893_nh.bmp
119.52	0.72	157	2	8	80	per	con	mod	mod	mod	nt	cr	nh/0807_nh.bmp
120.24	0.72	158	3	6	37	mem	lib	mod	mod	mod	tg	ht	wh/0396.bmp
120.96	0.72	159	1	6	17	per	lib	mod	mod	mod	nt	cr	nh/0187_nh.bmp
121.68	0.72	160	2	7	21	per	con	low	mod	low	tg	ms	wh/0443.bmp
122.40	0.72	161	3	7	101	mem	lib	mod	mod	low	nt	ht	nh/0619_nh.bmp
123.12	0.72	162	2	5	28	mem	con	mod	mod	low	nt	ms	nh/0964_nh.bmp
123.84	0.72	163	3	6	31	per	lib	mod	mod	mod	nt	fa	nh/0319_nh.bmp
124.56	0.72	164	1	5	42	mem	con	low	low	low	nt	ms	nh/0655_nh.bmp
125.28	0.72	165	3	7	100	mem	lib	mod	mod	low	nt	ht	nh/0893_nh.bmp
126.00	0.72	166	3	5	32	mem	con	mod	mod	low	nt	ht	nh/0635_nh.bmp
126.72	0.72	167	3	5	82	mem	lib	mod	mod	low	tg	ht	wh/0125.bmp
127.44	0.72	168	1	7	27	per	con	low	mod	low	nt	cr	nh/0232_nh.bmp
128.16	0.72	169	2	5	21	mem	con	mod	mod	low	tg	ms	wh/0123.bmp
128.88	0.72	170	1	8	32	mem	lib	low	low	mod	tg	ht	wh/0782.bmp
129.60	0.72	171	1	6	100	mem	con	mod	mod	mod	tg	ht	wh/0795.bmp
130.32	0.72	172	1	7	4	per	lib	low	low	low	nt	fa	nh/0706_nh.bmp
131.04	0.72	173	2	6	98	mem	con	mod	mod	mod	tg	ms	wh/0380.bmp
131.76	0.72	174	2	7	33	per	lib	mod	mod	mod	tg	ht	wh/0428.bmp
132.48	0.72	175	1	6	64	per	lib	low	mod	low	nt	fa	nh/0351_nh.bmp
133.20	0.72	176	4	5	126	per	con	low	mod	low	nt	cr	nh/0646_nh.bmp
133.92	0.72	177	5	6	110	mem	con	mod	mod	mod	nt	ms	nh/0398_nh.bmp
134.64	0.72	178	1	5	95	mem	lib	mod	mod	low	nt	ht	nh/0075_nh.bmp
135.36	0.72	179	2	6	24	per	lib	mod	mod	mod	nt	cr	nh/0094_nh.bmp
136.08	0.72	180	3	5	114	per	con	low	mod	low	tg	ms	wh/0194.bmp
136.80	0.72	181	2	6	27	per	lib	mod	mod	mod	tg	ht	wh/0222.bmp
137.52	0.72	182	3	5	21	mem	con	mod	mod	low	tg	ms	wh/0123.bmp
138.24	0.72	183	1	6	103	mem	con	mod	mod	mod	tg	ms	wh/0442.bmp
138.96	0.72	184	2	6	20	per	lib	mod	mod	mod	nt	fa	nh/0855_nh.bmp
139.68	0.72	185	1	8	8	per	lib	mod	low	mod	tg	ht	wh/0787.bmp
140.40	0.72	186	2	6	56	per	lib	low	mod	low	tg	ms	wh/0730.bmp
141.12	0.72	187	4	6	31	per	lib	mod	mod	mod	nt	fa	nh/0319_nh.bmp
141.84	0.72	188	3	6	29	per	lib	mod	mod	mod	tg	ht	wh/0874.bmp
142.56	0.72	189	2	8	116	mem	con	mod	mod	mod	tg	ms	wh/0748.bmp
143.28	0.72	190	1	8	108	mem	con	low	low	low	nt	ms	nh/0431_nh.bmp
144.00	0.72	191	2	8	37	mem	lib	mod	mod	mod	nt	ht	nh/0947_nh.bmp
144.72	0.72	192	2	7	24	per	con	low	mod	low	tg	ms	wh/0760.bmp
145.44	0.72	193	1	6	35	mem	lib	mod	mod	mod	nt	ht	nh/0876_nh.bmp
146.16	0.72	194	1	6	105	mem	con	mod	mod	mod	tg	ht	wh/0684.bmp
146.88	0.72	195	2	8	75	per	con	mod	mod	mod	tg	ht	wh/0909.bmp
147.60	0.72	196	1	6	70	per	con	low	low	low	tg	ms	wh/0731.bmp
148.32	0.72	197	2	6	35	mem	lib	mod	mod	mod	nt	ht	nh/0876_nh.bmp
149.04	0.72	198	2	7	60	mem	con	mod	mod	low	tg	ms	wh/0802.bmp
149.76	0.72	199	1	8	123	mem	con	mod	mod	mod	nt	ms	nh/0558_nh.bmp
150.48	0.72	200	1	8	53	per	lib	low	mod	low	tg	ht	wh/0134.bmp
151.20	0.72	201	1	5	118	per	con	low	mod	low	tg	ms	wh/0963.bmp
151.92	0.72	202	3	8	71	per	con	mod	mod	mod	tg	ht	wh/0928.bmp
152.64	0.72	203	1	7	62	mem	con	mod	mod	low	nt	ht	nh/0451_nh.bmp
153.36	0.72	204	2	6	97	mem	con	mod	mod	mod	nt	ht	nh/0591_nh.bmp
154.08	0.72	205	1	7	104	mem	lib	mod	mod	low	tg	ht	wh/0508.bmp
154.80	0.72	206	1	6	55	per	lib	low	mod	low	nt	cr	nh/0758_nh.bmp
155.52	0.72	207	1	7	103	mem	lib	mod	mod	low	tg	ht	wh/0568.bmp
156.24	0.72	208	1	5	37	mem	con	low	low	low	nt	ms	nh/0439_nh.bmp
156.96	0.72	209	1	6	63	per	lib	low	mod	low	nt	fa	nh/0364_nh.bmp
157.68	0.72	210	3	8	80	per	con	mod	mod	mod	nt	cr	nh/0807_nh.bmp
158.40	0.72	211	1	7	29	per	con	low	mod	low	tg	ms	wh/0361.bmp
159.12	0.72	212	1	5	89	mem	lib	mod	mod	low	tg	ht	wh/0465.bmp
159.84	0.72	213	1	8	113	mem	con	mod	mod	mod	nt	ht	nh/0350_nh.bmp
160.56	0.72	214	3	7	24	per	con	low	mod	low	tg	ms	wh/0760.bmp
161.28	0.72	215	3	8	66	per	con	mod	mod	mod	tg	ht	wh/0803.bmp
162.00	0.72	216	1	8	4	per	lib	mod	low	mod	tg	ht	wh/0531.bmp
162.72	0.72	217	1	7	7	per	lib	low	low	low	nt	fa	nh/0513_nh.bmp
163.44	0.72	218	1	7	114	per	con	mod	low	mod	nt	cr	nh/0781_nh.bmp
164.16	0.72	219	4	8	49	per	lib	low	mod	low	tg	ht	wh/0345.bmp
164.88	0.72	220	2	8	79	per	con	mod	mod	mod	nt	cr	nh/0716_nh.bmp
165.60	0.72	221	1	5	92	mem	lib	mod	mod	low	nt	ht	nh/0074_nh.bmp
166.32	0.72	222	2	7	63	mem	con	mod	mod	low	nt	ht	nh/0336_nh.bmp
167.04	0.72	223	1	8	48	mem	lib	mod	mod	mod	tg	ht	wh/0548.bmp
167.76	0.72	224	3	7	18	per	con	low	mod	low	nt	fa	nh/0077_nh.bmp
168.48	0.72	225	1	5	19	mem	con	mod	mod	low	tg	ht	wh/0934.bmp
169.20	0.72	226	2	5	118	per	con	low	mod	low	tg	ms	wh/0963.bmp
169.92	0.72	227	1	7	38	per	lib	mod	mod	mod	nt	cr	nh/0810_nh.bmp
170.64	0.72	228	2	5	89	mem	lib	mod	mod	low	tg	ht	wh/0465.bmp
171.36	0.72	229	2	7	62	mem	con	mod	mod	low	nt	ht	nh/0451_nh.bmp
172.08	0.72	230	3	8	46	mem	lib	mod	mod	mod	tg	ht	wh/0784.bmp
172.80	0.72	231	3	6	43	mem	lib	mod	mod	mod	tg	ht	wh/0843.bmp
173.52	0.72	232	3	8	75	per	con	mod	mod	mod	tg	ht	wh/0909.bmp
174.24	0.72	233	2	7	111	mem	lib	mod	mod	low	tg	ht	wh/0503.bmp
174.96	0.72	234	4	6	43	mem	lib	mod	mod	mod	tg	ht	wh/0843.bmp
175.68	0.72	235	3	6	39	mem	lib	mod	mod	mod	tg	ht	wh/0588.bmp
176.40	0.72	236	3	8	79	per	con	mod	mod	mod	nt	cr	nh/0716_nh.bmp
177.12	0.72	237	1	6	107	mem	con	mod	mod	mod	nt	ms	nh/0902_nh.bmp
177.84	0.72	238	1	8	23	mem	lib	low	low	mod	tg	ht	wh/0340.bmp
178.56	0.72	239	2	7	103	mem	lib	mod	mod	low	tg	ht	wh/0568.bmp
179.28	0.72	240	3	8	116	mem	con	mod	mod	mod	tg	ms	wh/0748.bmp
180.00	0.72	241	3	6	97	mem	con	mod	mod	mod	nt	ht	nh/0591_nh.bmp
180.72	0.72	242	2	5	3	per	con	mod	mod	mod	tg	ht	wh/0099.bmp
181.44	0.72	243	1	7	71	mem	lib	low	low	low	nt	ht	nh/0789_nh.bmp
182.16	0.72	244	3	8	61	per	lib	low	mod	low	tg	ht	wh/0510.bmp
182.88	0.72	245	2	5	92	mem	lib	mod	mod	low	nt	ht	nh/0074_nh.bmp
183.60	0.72	246	1	7	117	per	con	mod	low	mod	tg	ms	wh/0461.bmp
184.32	0.72	247	2	6	17	per	lib	mod	mod	mod	nt	cr	nh/0187_nh.bmp
185.04	0.72	248	1	7	81	mem	con	low	low	mod	tg	ms	wh/0068.bmp
185.76	0.72	249	5	6	43	mem	lib	mod	mod	mod	tg	ht	wh/0843.bmp
186.48	0.72	250	2	5	125	per	con	low	mod	low	nt	cr	nh/0940_nh.bmp
187.20	0.72	251	3	6	106	mem	con	mod	mod	mod	nt	ht	nh/0328_nh.bmp
187.92	0.72	252	3	8	33	mem	lib	mod	mod	mod	tg	ht	wh/0563.bmp
188.64	0.72	253	1	5	9	per	con	mod	mod	mod	tg	ht	wh/0714.bmp
189.36	0.72	254	2	7	44	per	lib	mod	mod	mod	nt	fa	nh/0650_nh.bmp
190.08	0.72	255	5	8	49	per	lib	low	mod	low	tg	ht	wh/0345.bmp
190.80	0.72	256	1	6	52	per	lib	low	mod	low	tg	ms	wh/0744.bmp
191.52	0.72	257	1	7	58	mem	con	mod	mod	low	nt	ht	nh/0150_nh.bmp
192.24	0.72	258	1	8	40	mem	lib	mod	mod	mod	nt	ht	nh/0397_nh.bmp
192.96	0.72	259	1	5	81	mem	lib	mod	mod	low	nt	ht	nh/0190_nh.bmp
193.68	0.72	260	4	5	21	mem	con	mod	mod	low	tg	ms	wh/0123.bmp
194.40	0.72	261	2	6	64	per	lib	low	mod	low	nt	fa	nh/0351_nh.bmp
195.12	0.72	262	3	7	21	per	con	low	mod	low	tg	ms	wh/0443.bmp
195.84	0.72	263	1	5	121	per	con	low	mod	low	tg	ms	wh/0660.bmp
196.56	0.72	264	1	8	122	mem	con	mod	mod	mod	nt	ms	nh/0593_nh.bmp
197.28	0.72	265	4	7	100	mem	lib	mod	mod	low	nt	ht	nh/0893_nh.bmp
198.00	0.72	266	2	6	55	per	lib	low	mod	low	nt	cr	nh/0758_nh.bmp
198.72	0.72	267	3	7	60	mem	con	mod	mod	low	tg	ms	wh/0802.bmp
199.44	0.72	268	2	8	53	per	lib	low	mod	low	tg	ht	wh/0134.bmp
200.16	0.72	269	4	6	29	per	lib	mod	mod	mod	tg	ht	wh/0874.bmp
200.88	0.72	270	3	7	103	mem	lib	mod	mod	low	tg	ht	wh/0568.bmp
201.60	0.72	271	3	6	20	per	lib	mod	mod	mod	nt	fa	nh/0855_nh.bmp
202.32	0.72	272	2	8	113	mem	con	mod	mod	mod	nt	ht	nh/0350_nh.bmp
203.04	0.72	273	4	8	116	mem	con	mod	mod	mod	tg	ms	wh/0748.bmp
203.76	0.72	274	1	6	54	per	lib	low	mod	low	tg	ms	wh/0404.bmp
204.48	0.72	275	1	6	67	per	con	low	low	low	nt	cr	nh/0460_nh.bmp
205.20	0.72	276	2	7	29	per	con	low	mod	low	tg	ms	wh/0361.bmp
205.92	0.72	277	2	8	56	per	lib	low	mod	low	tg	ht	wh/0338.bmp
206.64	0.72	278	2	8	48	mem	lib	mod	mod	mod	tg	ht	wh/0548.bmp
207.36	0.72	279	6	6	110	mem	con	mod	mod	mod	nt	ms	nh/0398_nh.bmp
208.08	0.72	280	1	5	6	per	con	mod	mod	mod	nt	fa	nh/0680_nh.bmp
208.80	0.72	281	2	5	12	per	con	mod	mod	mod	nt	cr	nh/0594_nh.bmp
209.52	0.72	282	1	6	3	mem	lib	low	low	low	tg	ht	wh/0452.bmp
210.24	0.72	283	2	6	63	per	lib	low	mod	low	nt	fa	nh/0364_nh.bmp
210.96	0.72	284	4	7	24	per	con	low	mod	low	tg	ms	wh/0760.bmp
211.68	0.72	285	2	5	95	mem	lib	mod	mod	low	nt	ht	nh/0075_nh.bmp
212.40	0.72	286	2	7	104	mem	lib	mod	mod	low	tg	ht	wh/0508.bmp
213.12	0.72	287	2	8	122	mem	con	mod	mod	mod	nt	ms	nh/0593_nh.bmp
213.84	0.72	288	2	8	54	per	lib	low	mod	low	nt	cr	nh/0284_nh.bmp
214.56	0.72	289	3	5	92	mem	lib	mod	mod	low	nt	ht	nh/0074_nh.bmp
215.28	0.72	290	3	6	55	per	lib	low	mod	low	nt	cr	nh/0758_nh.bmp
216.00	0.72	291	3	7	104	mem	lib	mod	mod	low	tg	ht	wh/0508.bmp
216.72	0.72	292	1	5	68	mem	lib	low	low	mod	tg	ht	wh/0038.bmp
217.44	0.72	293	3	8	122	mem	con	mod	mod	mod	nt	ms	nh/0593_nh.bmp
218.16	0.72	294	2	6	48	mem	lib	mod	mod	mod	tg	ht	wh/0497.bmp
218.88	0.72	295	1	8	105	mem	con	low	low	low	nt	ht	nh/0999_nh.bmp
219.60	0.72	296	1	7	126	per	con	mod	low	mod	nt	cr	nh/0838_nh.bmp
220.32	0.72	297	2	5	19	mem	con	mod	mod	low	tg	ht	wh/0934.bmp
221.04	0.72	298	1	7	108	mem	lib	mod	mod	low	nt	ht	nh/0029_nh.bmp
221.76	0.72	299	1	6	74	per	con	low	low	low	nt	cr	nh/0881_nh.bmp
222.48	0.72	300	4	5	82	mem	lib	mod	mod	low	tg	ht	wh/0125.bmp
223.20	0.72	301	3	7	49	mem	con	mod	mod	low	tg	ht	wh/0613.bmp
223.92	0.72	302	1	5	56	per	lib	mod	low	mod	tg	ht	wh/0301.bmp
224.64	0.72	303	3	5	28	mem	con	mod	mod	low	nt	ms	nh/0964_nh.bmp
225.36	0.72	304	2	8	52	per	lib	low	mod	low	nt	fa	nh/0299_nh.bmp
226.08	0.72	305	2	6	105	mem	con	mod	mod	mod	tg	ht	wh/0684.bmp
226.80	0.72	306	2	7	38	per	lib	mod	mod	mod	nt	cr	nh/0810_nh.bmp
227.52	0.72	307	1	7	37	per	lib	mod	mod	mod	nt	fa	nh/0904_nh.bmp
228.24	0.72	308	2	8	45	mem	lib	mod	mod	mod	tg	ht	wh/0447.bmp
228.96	0.72	309	2	8	38	mem	lib	mod	mod	mod	nt	ht	nh/0973_nh.bmp
229.68	0.72	310	2	6	107	mem	con	mod	mod	mod	nt	ms	nh/0902_nh.bmp
230.40	0.72	311	2	7	37	per	lib	mod	mod	mod	nt	fa	nh/0904_nh.bmp
231.12	0.72	312	4	8	71	per	con	mod	mod	mod	tg	ht	wh/0928.bmp
231.84	0.72	313	2	7	108	mem	lib	mod	mod	low	nt	ht	nh/0029_nh.bmp
232.56	0.72	314	3	5	125	per	con	low	mod	low	nt	cr	nh/0940_nh.bmp
233.28	0.72	315	1	5	41	mem	con	low	low	low	tg	ms	wh/0691.bmp
234.00	0.72	316	1	8	101	mem	con	low	low	low	tg	ms	wh/0488.bmp
234.72	0.72	317	1	5	15	per	con	mod	mod	mod	tg	ms	wh/0446.bmp
235.44	0.72	318	1	5	91	mem	lib	mod	mod	low	tg	ht	wh/0383.bmp
236.16	0.72	319	3	8	56	per	lib	low	mod	low	tg	ht	wh/0338.bmp
236.88	0.72	320	4	8	61	per	lib	low	mod	low	tg	ht	wh/0510.bmp
237.60	0.72	321	3	8	119	mem	con	mod	mod	mod	tg	ht	wh/0962.bmp
238.32	0.72	322	1	5	24	mem	con	mod	mod	low	tg	ms	wh/1023.bmp
239.04	0.72	323	2	5	13	per	con	mod	mod	mod	tg	ms	wh/0196.bmp
239.76	0.72	324	2	7	20	per	con	low	mod	low	nt	cr	nh/0036_nh.bmp
240.48	0.72	325	3	8	53	per	lib	low	mod	low	tg	ht	wh/0134.bmp
241.20	0.72	326	3	5	1	per	con	mod	mod	mod	nt	cr	nh/0543_nh.bmp
241.92	0.72	327	5	8	116	mem	con	mod	mod	mod	tg	ms	wh/0748.bmp
242.64	0.72	328	2	5	26	mem	con	mod	mod	low	tg	ht	wh/0493.bmp
243.36	0.72	329	2	6	100	mem	con	mod	mod	mod	tg	ht	wh/0795.bmp
244.08	0.72	330	2	8	42	mem	lib	mod	mod	mod	nt	ht	nh/0462_nh.bmp
244.80	0.72	331	3	7	37	per	lib	mod	mod	mod	nt	fa	nh/0904_nh.bmp
245.52	0.72	332	3	8	42	mem	lib	mod	mod	mod	nt	ht	nh/0462_nh.bmp
246.24	0.72	333	4	7	49	mem	con	mod	mod	low	tg	ht	wh/0613.bmp
246.96	0.72	334	3	5	19	mem	con	mod	mod	low	tg	ht	wh/0934.bmp
247.68	0.72	335	2	5	121	per	con	low	mod	low	tg	ms	wh/0660.bmp
248.40	0.72	336	1	5	120	per	con	low	mod	low	nt	cr	nh/0032_nh.bmp
249.12	0.72	337	3	5	13	per	con	mod	mod	mod	tg	ms	wh/0196.bmp
249.84	0.72	338	4	6	47	mem	lib	mod	mod	mod	nt	ht	nh/0697_nh.bmp
250.56	0.72	339	4	5	1	per	con	mod	mod	mod	nt	cr	nh/0543_nh.bmp
251.28	0.72	340	1	6	124	mem	con	low	low	mod	nt	ms	nh/0426_nh.bmp
252.00	0.72	341	2	8	117	mem	con	mod	mod	mod	tg	ms	wh/0957.bmp
252.72	0.72	342	4	8	122	mem	con	mod	mod	mod	nt	ms	nh/0593_nh.bmp
253.44	0.72	343	2	7	34	per	lib	mod	mod	mod	tg	ht	wh/0209.bmp
254.16	0.72	344	4	8	42	mem	lib	mod	mod	mod	nt	ht	nh/0462_nh.bmp
254.88	0.72	345	2	8	40	mem	lib	mod	mod	mod	nt	ht	nh/0397_nh.bmp
255.60	0.72	346	4	6	37	mem	lib	mod	mod	mod	tg	ht	wh/0396.bmp
256.32	0.72	347	1	8	17	mem	lib	low	low	mod	nt	ht	nh/0059_nh.bmp
257.04	0.72	348	4	8	66	per	con	mod	mod	mod	tg	ht	wh/0803.bmp
257.76	0.72	349	3	8	73	per	con	mod	mod	mod	nt	cr	nh/0540_nh.bmp
258.48	0.72	350	3	6	27	per	lib	mod	mod	mod	tg	ht	wh/0222.bmp
259.20	0.72	351	3	5	95	mem	lib	mod	mod	low	nt	ht	nh/0075_nh.bmp
259.92	0.72	352	3	6	107	mem	con	mod	mod	mod	nt	ms	nh/0902_nh.bmp
260.64	0.72	353	3	8	120	mem	con	mod	mod	mod	nt	ms	nh/0339_nh.bmp
261.36	0.72	354	3	5	26	mem	con	mod	mod	low	tg	ht	wh/0493.bmp
262.08	0.72	355	4	7	37	per	lib	mod	mod	mod	nt	fa	nh/0904_nh.bmp
262.80	0.72	356	4	7	104	mem	lib	mod	mod	low	tg	ht	wh/0508.bmp
263.52	0.72	357	3	7	20	per	con	low	mod	low	nt	cr	nh/0036_nh.bmp
264.24	0.72	358	1	5	22	mem	con	mod	mod	low	nt	ht	nh/0608_nh.bmp
264.96	0.72	359	4	5	125	per	con	low	mod	low	nt	cr	nh/0940_nh.bmp
265.68	0.72	360	4	6	38	mem	lib	mod	mod	mod	nt	ht	nh/0954_nh.bmp
266.40	0.72	361	4	6	39	mem	lib	mod	mod	mod	tg	ht	wh/0588.bmp
267.12	0.72	362	2	7	106	mem	lib	mod	mod	low	tg	ht	wh/0577.bmp
267.84	0.72	363	3	7	34	per	lib	mod	mod	mod	tg	ht	wh/0209.bmp
268.56	0.72	364	4	6	20	per	lib	mod	mod	mod	nt	fa	nh/0855_nh.bmp
269.28	0.72	365	1	8	51	per	lib	low	mod	low	nt	fa	nh/0329_nh.bmp
270.00	0.72	366	1	8	10	per	lib	mod	low	mod	nt	fa	nh/0584_nh.bmp
270.72	0.72	367	3	7	63	mem	con	mod	mod	low	nt	ht	nh/0336_nh.bmp
271.44	0.72	368	4	8	75	per	con	mod	mod	mod	tg	ht	wh/0909.bmp
272.16	0.72	369	3	5	118	per	con	low	mod	low	tg	ms	wh/0963.bmp
272.88	0.72	370	4	6	61	per	lib	low	mod	low	tg	ht	wh/0355.bmp
273.60	0.72	371	1	7	67	mem	lib	low	low	low	nt	ht	nh/0579_nh.bmp
274.32	0.72	372	1	8	9	per	lib	mod	low	mod	tg	ht	wh/0966.bmp
275.04	0.72	373	3	8	48	mem	lib	mod	mod	mod	tg	ht	wh/0548.bmp
275.76	0.72	374	1	5	39	mem	con	low	low	low	nt	ms	nh/0158_nh.bmp
276.48	0.72	375	1	8	90	per	con	low	low	low	tg	ms	wh/0831.bmp
277.20	0.72	376	1	8	25	mem	lib	low	low	mod	tg	ht	wh/0708.bmp
277.92	0.72	377	2	6	59	per	lib	low	mod	low	nt	fa	nh/0256_nh.bmp
278.64	0.72	378	3	5	12	per	con	mod	mod	mod	nt	cr	nh/0594_nh.bmp
279.36	0.72	379	4	6	27	per	lib	mod	mod	mod	tg	ht	wh/0222.bmp
280.08	0.72	380	5	8	66	per	con	mod	mod	mod	tg	ht	wh/0803.bmp
280.80	0.72	381	3	6	63	per	lib	low	mod	low	nt	fa	nh/0364_nh.bmp
281.52	0.72	382	2	7	27	per	con	low	mod	low	nt	cr	nh/0232_nh.bmp
282.24	0.72	383	2	5	15	per	con	mod	mod	mod	tg	ms	wh/0446.bmp
282.96	0.72	384	2	8	126	mem	con	mod	mod	mod	tg	ms	wh/0946.bmp
283.68	0.72	385	3	5	89	mem	lib	mod	mod	low	tg	ht	wh/0465.bmp
284.40	0.72	386	4	7	61	mem	con	mod	mod	low	tg	ms	wh/0417.bmp
285.12	0.72	387	4	5	92	mem	lib	mod	mod	low	nt	ht	nh/0074_nh.bmp
285.84	0.72	388	4	5	114	per	con	low	mod	low	tg	ms	wh/0194.bmp
286.56	0.72	389	4	8	119	mem	con	mod	mod	mod	tg	ht	wh/0962.bmp
287.28	0.72	390	2	7	105	mem	lib	mod	mod	low	nt	ht	nh/0489_nh.bmp
288.00	0.72	391	4	7	103	mem	lib	mod	mod	low	tg	ht	wh/0568.bmp
288.72	0.72	392	1	7	11	per	lib	low	low	low	tg	ht	wh/0768.bmp
289.44	0.72	393	4	8	79	per	con	mod	mod	mod	nt	cr	nh/0716_nh.bmp
290.16	0.72	394	3	6	24	per	lib	mod	mod	mod	nt	cr	nh/0094_nh.bmp
290.88	0.72	395	2	6	26	per	lib	mod	mod	mod	tg	ht	wh/0199.bmp
291.60	0.72	396	4	5	13	per	con	mod	mod	mod	tg	ms	wh/0196.bmp
292.32	0.72	397	3	6	17	per	lib	mod	mod	mod	nt	cr	nh/0187_nh.bmp
293.04	0.72	398	3	5	84	mem	lib	mod	mod	low	tg	ht	wh/0238.bmp
293.76	0.72	399	3	8	38	mem	lib	mod	mod	mod	nt	ht	nh/0973_nh.bmp
294.48	0.72	400	4	7	63	mem	con	mod	mod	low	nt	ht	nh/0336_nh.bmp
295.20	0.72	401	1	7	90	mem	con	low	low	mod	tg	ms	wh/0216.bmp
295.92	0.72	402	3	6	59	per	lib	low	mod	low	nt	fa	nh/0256_nh.bmp
296.64	0.72	403	4	5	23	mem	con	mod	mod	low	nt	ms	nh/0082_nh.bmp
297.36	0.72	404	5	6	39	mem	lib	mod	mod	mod	tg	ht	wh/0588.bmp
298.08	0.72	405	4	5	89	mem	lib	mod	mod	low	tg	ht	wh/0465.bmp
298.80	0.72	406	1	7	69	mem	lib	low	low	low	tg	ht	wh/0930.bmp
299.52	0.72	407	2	5	81	mem	lib	mod	mod	low	nt	ht	nh/0190_nh.bmp
300.24	0.72	408	3	5	16	per	con	mod	mod	mod	nt	cr	nh/0542_nh.bmp
300.96	0.72	409	4	8	48	mem	lib	mod	mod	mod	tg	ht	wh/0548.bmp
301.68	0.72	410	3	6	98	mem	con	mod	mod	mod	tg	ms	wh/0380.bmp
302.40	0.72	411	3	7	111	mem	lib	mod	mod	low	tg	ht	wh/0503.bmp
303.12	0.72	412	5	6	20	per	lib	mod	mod	mod	nt	fa	nh/0855_nh.bmp
303.84	0.72	413	3	8	45	mem	lib	mod	mod	mod	tg	ht	wh/0447.bmp
304.56	0.72	414	3	8	126	mem	con	mod	mod	mod	tg	ms	wh/0946.bmp
305.28	0.72	415	3	8	113	mem	con	mod	mod	mod	nt	ht	nh/0350_nh.bmp
306.00	0.72	416	2	6	54	per	lib	low	mod	low	tg	ms	wh/0404.bmp
306.72	0.72	417	1	8	6	per	lib	mod	low	mod	nt	fa	nh/0581_nh.bmp
307.44	0.72	418	4	8	120	mem	con	mod	mod	mod	nt	ms	nh/0339_nh.bmp
308.16	0.72	419	1	5	77	mem	lib	low	low	mod	nt	ht	nh/0774_nh.bmp
308.88	0.72	420	1	7	93	mem	con	low	low	mod	tg	ms	wh/0992.bmp
309.60	0.72	421	1	6	14	mem	lib	low	low	low	tg	ht	wh/0146.bmp
310.32	0.72	422	4	8	73	per	con	mod	mod	mod	nt	cr	nh/0540_nh.bmp
311.04	0.72	423	3	7	108	mem	lib	mod	mod	low	nt	ht	nh/0029_nh.bmp
311.76	0.72	424	5	8	42	mem	lib	mod	mod	mod	nt	ht	nh/0462_nh.bmp
312.48	0.72	425	6	8	116	mem	con	mod	mod	mod	tg	ms	wh/0748.bmp
313.20	0.72	426	3	6	19	per	lib	mod	mod	mod	tg	ht	wh/0941.bmp
313.92	0.72	427	4	6	107	mem	con	mod	mod	mod	nt	ms	nh/0902_nh.bmp
314.64	0.72	428	4	5	19	mem	con	mod	mod	low	tg	ht	wh/0934.bmp
315.36	0.72	429	5	6	31	per	lib	mod	mod	mod	nt	fa	nh/0319_nh.bmp
316.08	0.72	430	1	7	45	per	lib	mod	mod	mod	tg	ht	wh/0273.bmp
316.80	0.72	431	1	7	115	per	con	mod	low	mod	tg	ms	wh/0849.bmp
317.52	0.72	432	2	5	24	mem	con	mod	mod	low	tg	ms	wh/1023.bmp
318.24	0.72	433	4	5	12	per	con	mod	mod	mod	nt	cr	nh/0594_nh.bmp
318.96	0.72	434	2	5	6	per	con	mod	mod	mod	nt	fa	nh/0680_nh.bmp
319.68	0.72	435	1	7	79	mem	lib	low	low	low	tg	ht	wh/0370.bmp
320.40	0.72	436	2	5	115	per	con	low	mod	low	nt	cr	nh/0080_nh.bmp
321.12	0.72	437	2	5	22	mem	con	mod	mod	low	nt	ht	nh/0608_nh.bmp
321.84	0.72	438	5	8	120	mem	con	mod	mod	mod	nt	ms	nh/0339_nh.bmp
322.56	0.72	439	3	6	35	mem	lib	mod	mod	mod	nt	ht	nh/0876_nh.bmp
323.28	0.72	440	1	7	95	mem	con	low	low	mod	nt	ms	nh/0419_nh.bmp
324.00	0.72	441	2	8	77	per	con	mod	mod	mod	nt	cr	nh/0772_nh.bmp
324.72	0.72	442	1	7	16	per	lib	low	low	low	tg	ms	wh/0433.bmp
325.44	0.72	443	1	5	98	per	lib	low	low	low	tg	ht	wh/0812.bmp
326.16	0.72	444	2	5	91	mem	lib	mod	mod	low	tg	ht	wh/0383.bmp
326.88	0.72	445	3	8	37	mem	lib	mod	mod	mod	nt	ht	nh/0947_nh.bmp
327.60	0.72	446	4	8	126	mem	con	mod	mod	mod	tg	ms	wh/0946.bmp
328.32	0.72	447	4	5	118	per	con	low	mod	low	tg	ms	wh/0963.bmp
329.04	0.72	448	5	5	126	per	con	low	mod	low	nt	cr	nh/0646_nh.bmp
329.76	0.72	449	3	5	81	mem	lib	mod	mod	low	nt	ht	nh/0190_nh.bmp
330.48	0.72	450	3	7	33	per	lib	mod	mod	mod	tg	ht	wh/0428.bmp
331.20	0.72	451	2	7	41	per	lib	mod	mod	mod	nt	cr	nh/0182_nh.bmp
331.92	0.72	452	3	5	91	mem	lib	mod	mod	low	tg	ht	wh/0383.bmp
332.64	0.72	453	4	8	45	mem	lib	mod	mod	mod	tg	ht	wh/0447.bmp
333.36	0.72	454	6	6	31	per	lib	mod	mod	mod	nt	fa	nh/0319_nh.bmp
334.08	0.72	455	4	7	101	mem	lib	mod	mod	low	nt	ht	nh/0619_nh.bmp
334.80	0.72	456	5	5	82	mem	lib	mod	mod	low	tg	ht	wh/0125.bmp
335.52	0.72	457	5	5	21	mem	con	mod	mod	low	tg	ms	wh/0123.bmp
336.24	0.72	458	2	5	116	per	con	low	mod	low	tg	ms	wh/0035.bmp
336.96	0.72	459	3	5	6	per	con	mod	mod	mod	nt	fa	nh/0680_nh.bmp
337.68	0.72	460	2	8	51	per	lib	low	mod	low	nt	fa	nh/0329_nh.bmp
338.40	0.72	461	1	6	116	mem	con	low	low	mod	tg	ms	wh/0693.bmp
339.12	0.72	462	4	6	59	per	lib	low	mod	low	nt	fa	nh/0256_nh.bmp
339.84	0.72	463	4	5	6	per	con	mod	mod	mod	nt	fa	nh/0680_nh.bmp
340.56	0.72	464	3	5	24	mem	con	mod	mod	low	tg	ms	wh/1023.bmp
341.28	0.72	465	4	5	95	mem	lib	mod	mod	low	nt	ht	nh/0075_nh.bmp
342.00	0.72	466	1	6	4	mem	lib	low	low	low	nt	ms	nh/0571_nh.bmp
342.72	0.72	467	4	7	111	mem	lib	mod	mod	low	tg	ht	wh/0503.bmp
343.44	0.72	468	3	7	105	mem	lib	mod	mod	low	nt	ht	nh/0489_nh.bmp
344.16	0.72	469	2	6	103	mem	con	mod	mod	mod	tg	ms	wh/0442.bmp
344.88	0.72	470	5	7	63	mem	con	mod	mod	low	nt	ht	nh/0336_nh.bmp
345.60	0.72	471	3	8	40	mem	lib	mod	mod	mod	nt	ht	nh/0397_nh.bmp
346.32	0.72	472	4	6	17	per	lib	mod	mod	mod	nt	cr	nh/0187_nh.bmp
347.04	0.72	473	3	5	116	per	con	low	mod	low	tg	ms	wh/0035.bmp
347.76	0.72	474	5	5	6	per	con	mod	mod	mod	nt	fa	nh/0680_nh.bmp
348.48	0.72	475	4	6	63	per	lib	low	mod	low	nt	fa	nh/0364_nh.bmp
349.20	0.72	476	6	8	120	mem	con	mod	mod	mod	nt	ms	nh/0339_nh.bmp
349.92	0.72	477	1	5	69	mem	lib	low	low	mod	nt	ht	nh/0900_nh.bmp
350.64	0.72	478	3	6	36	mem	lib	mod	mod	mod	nt	ht	nh/0095_nh.bmp
351.36	0.72	479	5	8	71	per	con	mod	mod	mod	tg	ht	wh/0928.bmp
352.08	0.72	480	4	5	81	mem	lib	mod	mod	low	nt	ht	nh/0190_nh.bmp
352.80	0.72	481	1	6	88	per	con	mod	low	mod	nt	cr	nh/0699_nh.bmp
353.52	0.72	482	3	7	44	per	lib	mod	mod	mod	nt	fa	nh/0650_nh.bmp
354.24	0.72	483	1	7	59	mem	con	mod	mod	low	tg	ms	wh/0153.bmp
354.96	0.72	484	4	7	33	per	lib	mod	mod	mod	tg	ht	wh/0428.bmp
355.68	0.72	485	3	6	48	mem	lib	mod	mod	mod	tg	ht	wh/0497.bmp
356.40	0.72	486	4	6	35	mem	lib	mod	mod	mod	nt	ht	nh/0876_nh.bmp
357.12	0.72	487	5	5	118	per	con	low	mod	low	tg	ms	wh/0963.bmp
357.84	0.72	488	6	5	126	per	con	low	mod	low	nt	cr	nh/0646_nh.bmp
358.56	0.72	489	5	7	104	mem	lib	mod	mod	low	tg	ht	wh/0508.bmp
359.28	0.72	490	5	8	79	per	con	mod	mod	mod	nt	cr	nh/0716_nh.bmp
360.00	0.72	491	4	8	80	per	con	mod	mod	mod	nt	cr	nh/0807_nh.bmp
360.72	0.72	492	1	8	104	mem	con	low	low	low	tg	ht	wh/0215.bmp
361.44	0.72	493	1	6	65	per	con	low	low	low	tg	ms	wh/0437.bmp
362.16	0.72	494	5	6	59	per	lib	low	mod	low	nt	fa	nh/0256_nh.bmp
362.88	0.72	495	1	6	81	per	con	mod	low	mod	nt	cr	nh/0870_nh.bmp
363.60	0.72	496	3	5	3	per	con	mod	mod	mod	tg	ht	wh/0099.bmp
364.32	0.72	497	4	5	28	mem	con	mod	mod	low	nt	ms	nh/0964_nh.bmp
365.04	0.72	498	3	5	115	per	con	low	mod	low	nt	cr	nh/0080_nh.bmp
365.76	0.72	499	1	6	78	per	con	low	low	low	nt	cr	nh/0013_nh.bmp
366.48	0.72	500	4	7	34	per	lib	mod	mod	mod	tg	ht	wh/0209.bmp
367.20	0.72	501	3	7	106	mem	lib	mod	mod	low	tg	ht	wh/0577.bmp
367.92	0.72	502	5	8	73	per	con	mod	mod	mod	nt	cr	nh/0540_nh.bmp
368.64	0.72	503	1	8	2	per	lib	mod	low	mod	tg	ht	wh/0936.bmp
369.36	0.72	504	3	6	54	per	lib	low	mod	low	tg	ms	wh/0404.bmp
370.08	0.72	505	3	6	56	per	lib	low	mod	low	tg	ms	wh/0730.bmp
370.80	0.72	506	2	7	23	per	con	low	mod	low	tg	ms	wh/0690.bmp
371.52	0.72	507	4	8	113	mem	con	mod	mod	mod	nt	ht	nh/0350_nh.bmp
372.24	0.72	508	1	5	50	per	lib	mod	low	mod	tg	ht	wh/0520.bmp
372.96	0.72	509	1	8	97	mem	con	low	low	low	nt	ms	nh/0112_nh.bmp
373.68	0.72	510	1	8	58	per	lib	low	mod	low	nt	cr	nh/0382_nh.bmp
374.40	0.72	511	3	6	105	mem	con	mod	mod	mod	tg	ht	wh/0684.bmp
375.12	0.72	512	5	6	29	per	lib	mod	mod	mod	tg	ht	wh/0874.bmp
375.84	0.72	513	1	6	95	per	con	mod	low	mod	tg	ht	wh/0572.bmp
376.56	0.72	514	1	7	17	per	con	low	mod	low	nt	cr	nh/0818_nh.bmp
377.28	0.72	515	3	8	52	per	lib	low	mod	low	nt	fa	nh/0299_nh.bmp
378.00	0.72	516	3	6	103	mem	con	mod	mod	mod	tg	ms	wh/0442.bmp
378.72	0.72	517	4	6	48	mem	lib	mod	mod	mod	tg	ht	wh/0497.bmp
379.44	0.72	518	4	6	56	per	lib	low	mod	low	tg	ms	wh/0730.bmp
380.16	0.72	519	1	6	92	per	con	mod	low	mod	tg	ht	wh/0092.bmp
380.88	0.72	520	5	7	34	per	lib	mod	mod	mod	tg	ht	wh/0209.bmp
381.60	0.72	521	3	7	56	mem	con	mod	mod	low	nt	ms	nh/0079_nh.bmp
382.32	0.72	522	4	6	103	mem	con	mod	mod	mod	tg	ms	wh/0442.bmp
383.04	0.72	523	5	6	63	per	lib	low	mod	low	nt	fa	nh/0364_nh.bmp
383.76	0.72	524	2	6	52	per	lib	low	mod	low	tg	ms	wh/0744.bmp
384.48	0.72	525	3	8	51	per	lib	low	mod	low	nt	fa	nh/0329_nh.bmp
385.20	0.72	526	4	5	84	mem	lib	mod	mod	low	tg	ht	wh/0238.bmp
385.92	0.72	527	5	5	28	mem	con	mod	mod	low	nt	ms	nh/0964_nh.bmp
386.64	0.72	528	2	7	46	per	lib	mod	mod	mod	tg	ht	wh/0805.bmp
387.36	0.72	529	1	5	44	mem	con	low	low	low	nt	ms	nh/0266_nh.bmp
388.08	0.72	530	3	5	15	per	con	mod	mod	mod	tg	ms	wh/0446.bmp
388.80	0.72	531	5	8	61	per	lib	low	mod	low	tg	ht	wh/0510.bmp
389.52	0.72	532	3	6	64	per	lib	low	mod	low	nt	fa	nh/0351_nh.bmp
390.24	0.72	533	4	6	55	per	lib	low	mod	low	nt	cr	nh/0758_nh.bmp
390.96	0.72	534	5	6	38	mem	lib	mod	mod	mod	nt	ht	nh/0954_nh.bmp
391.68	0.72	535	4	5	15	per	con	mod	mod	mod	tg	ms	wh/0446.bmp
392.40	0.72	536	2	7	45	per	lib	mod	mod	mod	tg	ht	wh/0273.bmp
393.12	0.72	537	4	6	54	per	lib	low	mod	low	tg	ms	wh/0404.bmp
393.84	0.72	538	1	5	54	per	lib	mod	low	mod	nt	cr	nh/0890_nh.bmp
394.56	0.72	539	3	8	54	per	lib	low	mod	low	nt	cr	nh/0284_nh.bmp
395.28	0.72	540	4	5	3	per	con	mod	mod	mod	tg	ht	wh/0099.bmp
396.00	0.72	541	6	8	42	mem	lib	mod	mod	mod	nt	ht	nh/0462_nh.bmp
396.72	0.72	542	4	8	54	per	lib	low	mod	low	nt	cr	nh/0284_nh.bmp
397.44	0.72	543	4	7	21	per	con	low	mod	low	tg	ms	wh/0443.bmp
398.16	0.72	544	4	5	24	mem	con	mod	mod	low	tg	ms	wh/1023.bmp
398.88	0.72	545	4	7	20	per	con	low	mod	low	nt	cr	nh/0036_nh.bmp
399.60	0.72	546	1	7	8	per	lib	low	low	low	tg	ht	wh/0261.bmp
400.32	0.72	547	1	5	78	mem	lib	low	low	mod	tg	ht	wh/0721.bmp
401.04	0.72	548	2	7	17	per	con	low	mod	low	nt	cr	nh/0818_nh.bmp
401.76	0.72	549	1	6	119	mem	con	low	low	mod	nt	ms	nh/0626_nh.bmp
402.48	0.72	550	4	8	40	mem	lib	mod	mod	mod	nt	ht	nh/0397_nh.bmp
403.20	0.72	551	4	6	106	mem	con	mod	mod	mod	nt	ht	nh/0328_nh.bmp
403.92	0.72	552	3	7	29	per	con	low	mod	low	tg	ms	wh/0361.bmp
404.64	0.72	553	5	8	113	mem	con	mod	mod	mod	nt	ht	nh/0350_nh.bmp
405.36	0.72	554	5	8	54	per	lib	low	mod	low	nt	cr	nh/0284_nh.bmp
406.08	0.72	555	4	6	36	mem	lib	mod	mod	mod	nt	ht	nh/0095_nh.bmp
406.80	0.72	556	4	5	116	per	con	low	mod	low	tg	ms	wh/0035.bmp
407.52	0.72	557	4	6	98	mem	con	mod	mod	mod	tg	ms	wh/0380.bmp
408.24	0.72	558	5	6	106	mem	con	mod	mod	mod	nt	ht	nh/0328_nh.bmp
408.96	0.72	559	4	7	56	mem	con	mod	mod	low	nt	ms	nh/0079_nh.bmp
409.68	0.72	560	4	5	26	mem	con	mod	mod	low	tg	ht	wh/0493.bmp
410.40	0.72	561	4	6	64	per	lib	low	mod	low	nt	fa	nh/0351_nh.bmp
411.12	0.72	562	4	7	29	per	con	low	mod	low	tg	ms	wh/0361.bmp
411.84	0.72	563	6	8	71	per	con	mod	mod	mod	tg	ht	wh/0928.bmp
412.56	0.72	564	5	5	19	mem	con	mod	mod	low	tg	ht	wh/0934.bmp
413.28	0.72	565	4	7	18	per	con	low	mod	low	nt	fa	nh/0077_nh.bmp
414.00	0.72	566	4	8	38	mem	lib	mod	mod	mod	nt	ht	nh/0973_nh.bmp
414.72	0.72	567	3	6	26	per	lib	mod	mod	mod	tg	ht	wh/0199.bmp
415.44	0.72	568	5	5	3	per	con	mod	mod	mod	tg	ht	wh/0099.bmp
416.16	0.72	569	6	6	106	mem	con	mod	mod	mod	nt	ht	nh/0328_nh.bmp
416.88	0.72	570	3	5	121	per	con	low	mod	low	tg	ms	wh/0660.bmp
417.60	0.72	571	4	5	121	per	con	low	mod	low	tg	ms	wh/0660.bmp
418.32	0.72	572	2	8	58	per	lib	low	mod	low	nt	cr	nh/0382_nh.bmp
419.04	0.72	573	5	6	36	mem	lib	mod	mod	mod	nt	ht	nh/0095_nh.bmp
419.76	0.72	574	3	8	77	per	con	mod	mod	mod	nt	cr	nh/0772_nh.bmp
420.48	0.72	575	2	7	58	mem	con	mod	mod	low	nt	ht	nh/0150_nh.bmp
421.20	0.72	576	5	7	29	per	con	low	mod	low	tg	ms	wh/0361.bmp
421.92	0.72	577	1	5	73	mem	lib	low	low	mod	nt	ht	nh/0281_nh.bmp
422.64	0.72	578	5	5	116	per	con	low	mod	low	tg	ms	wh/0035.bmp
423.36	0.72	579	4	8	56	per	lib	low	mod	low	tg	ht	wh/0338.bmp
424.08	0.72	580	6	6	39	mem	lib	mod	mod	mod	tg	ht	wh/0588.bmp
424.80	0.72	581	3	6	52	per	lib	low	mod	low	tg	ms	wh/0744.bmp
425.52	0.72	582	5	5	23	mem	con	mod	mod	low	nt	ms	nh/0082_nh.bmp
426.24	0.72	583	5	6	47	mem	lib	mod	mod	mod	nt	ht	nh/0697_nh.bmp
426.96	0.72	584	5	8	119	mem	con	mod	mod	mod	tg	ht	wh/0962.bmp
427.68	0.72	585	5	5	84	mem	lib	mod	mod	low	tg	ht	wh/0238.bmp
428.40	0.72	586	3	7	41	per	lib	mod	mod	mod	nt	cr	nh/0182_nh.bmp
429.12	0.72	587	5	6	56	per	lib	low	mod	low	tg	ms	wh/0730.bmp
429.84	0.72	588	4	6	97	mem	con	mod	mod	mod	nt	ht	nh/0591_nh.bmp
430.56	0.72	589	5	7	103	mem	lib	mod	mod	low	tg	ht	wh/0568.bmp
431.28	0.72	590	5	5	89	mem	lib	mod	mod	low	tg	ht	wh/0465.bmp
432.00	0.72	591	1	5	103	per	lib	low	low	low	nt	fa	nh/0998_nh.bmp
432.72	0.72	592	6	7	103	mem	lib	mod	mod	low	tg	ht	wh/0568.bmp
433.44	0.72	593	5	5	114	per	con	low	mod	low	tg	ms	wh/0194.bmp
434.16	0.72	594	4	7	106	mem	lib	mod	mod	low	tg	ht	wh/0577.bmp
434.88	0.72	595	3	5	96	mem	lib	mod	mod	low	nt	ht	nh/0967_nh.bmp
435.60	0.72	596	5	7	21	per	con	low	mod	low	tg	ms	wh/0443.bmp
436.32	0.72	597	6	6	36	mem	lib	mod	mod	mod	nt	ht	nh/0095_nh.bmp
437.04	0.72	598	5	8	80	per	con	mod	mod	mod	nt	cr	nh/0807_nh.bmp
437.76	0.72	599	3	7	38	per	lib	mod	mod	mod	nt	cr	nh/0810_nh.bmp
438.48	0.72	600	3	7	45	per	lib	mod	mod	mod	tg	ht	wh/0273.bmp
439.20	0.72	601	5	8	126	mem	con	mod	mod	mod	tg	ms	wh/0946.bmp
439.92	0.72	602	4	8	37	mem	lib	mod	mod	mod	nt	ht	nh/0947_nh.bmp
440.64	0.72	603	4	8	46	mem	lib	mod	mod	mod	tg	ht	wh/0784.bmp
441.36	0.72	604	1	5	45	mem	con	low	low	low	tg	ms	wh/0237.bmp
442.08	0.72	605	5	6	54	per	lib	low	mod	low	tg	ms	wh/0404.bmp
442.80	0.72	606	1	8	83	per	con	low	low	low	tg	ms	wh/1009.bmp
443.52	0.72	607	6	6	63	per	lib	low	mod	low	nt	fa	nh/0364_nh.bmp
444.24	0.72	608	4	8	33	mem	lib	mod	mod	mod	tg	ht	wh/0563.bmp
444.96	0.72	609	4	6	19	per	lib	mod	mod	mod	tg	ht	wh/0941.bmp
445.68	0.72	610	5	5	24	mem	con	mod	mod	low	tg	ms	wh/1023.bmp
446.40	0.72	611	6	7	34	per	lib	mod	mod	mod	tg	ht	wh/0209.bmp
447.12	0.72	612	4	5	16	per	con	mod	mod	mod	nt	cr	nh/0542_nh.bmp
447.84	0.72	613	3	7	58	mem	con	mod	mod	low	nt	ht	nh/0150_nh.bmp
448.56	0.72	614	4	8	67	per	con	mod	mod	mod	tg	ms	wh/0371.bmp
449.28	0.72	615	6	8	49	per	lib	low	mod	low	tg	ht	wh/0345.bmp
450.00	0.72	616	5	6	35	mem	lib	mod	mod	mod	nt	ht	nh/0876_nh.bmp
450.72	0.72	617	5	7	100	mem	lib	mod	mod	low	nt	ht	nh/0893_nh.bmp
451.44	0.72	618	3	7	62	mem	con	mod	mod	low	nt	ht	nh/0451_nh.bmp
452.16	0.72	619	5	6	19	per	lib	mod	mod	mod	tg	ht	wh/0941.bmp
452.88	0.72	620	3	8	117	mem	con	mod	mod	mod	tg	ms	wh/0957.bmp
453.60	0.72	621	6	5	21	mem	con	mod	mod	low	tg	ms	wh/0123.bmp
454.32	0.72	622	6	8	119	mem	con	mod	mod	mod	tg	ht	wh/0962.bmp
455.04	0.72	623	6	6	29	per	lib	mod	mod	mod	tg	ht	wh/0874.bmp
455.76	0.72	624	1	7	125	per	con	mod	low	mod	tg	ht	wh/1024.bmp
456.48	0.72	625	4	7	41	per	lib	mod	mod	mod	nt	cr	nh/0182_nh.bmp
457.20	0.72	626	4	6	24	per	lib	mod	mod	mod	nt	cr	nh/0094_nh.bmp
457.92	0.72	627	5	8	33	mem	lib	mod	mod	mod	tg	ht	wh/0563.bmp
458.64	0.72	628	4	7	60	mem	con	mod	mod	low	tg	ms	wh/0802.bmp
459.36	0.72	629	6	6	47	mem	lib	mod	mod	mod	nt	ht	nh/0697_nh.bmp
460.08	0.72	630	4	5	32	mem	con	mod	mod	low	nt	ht	nh/0635_nh.bmp
460.80	0.72	631	1	7	84	mem	con	low	low	mod	nt	n/a	nh/0923_nh.bmp
461.52	0.72	632	6	8	73	per	con	mod	mod	mod	nt	cr	nh/0540_nh.bmp
462.24	0.72	633	3	6	100	mem	con	mod	mod	mod	tg	ht	wh/0795.bmp
462.96	0.72	634	5	8	46	mem	lib	mod	mod	mod	tg	ht	wh/0784.bmp
463.68	0.72	635	5	7	33	per	lib	mod	mod	mod	tg	ht	wh/0428.bmp
464.40	0.72	636	5	5	1	per	con	mod	mod	mod	nt	cr	nh/0543_nh.bmp
465.12	0.72	637	1	7	120	per	con	mod	low	mod	nt	cr	nh/0736_nh.bmp
465.84	0.72	638	4	7	108	mem	lib	mod	mod	low	nt	ht	nh/0029_nh.bmp
466.56	0.72	639	5	8	45	mem	lib	mod	mod	mod	tg	ht	wh/0447.bmp
467.28	0.72	640	5	8	40	mem	lib	mod	mod	mod	nt	ht	nh/0397_nh.bmp
468.00	0.72	641	4	7	105	mem	lib	mod	mod	low	nt	ht	nh/0489_nh.bmp
468.72	0.72	642	5	6	48	mem	lib	mod	mod	mod	tg	ht	wh/0497.bmp
469.44	0.72	643	5	7	24	per	con	low	mod	low	tg	ms	wh/0760.bmp
470.16	0.72	644	1	5	66	mem	lib	low	low	mod	nt	ms	nh/0933_nh.bmp
470.88	0.72	645	5	6	17	per	lib	mod	mod	mod	nt	cr	nh/0187_nh.bmp
471.60	0.72	646	1	8	87	per	con	low	low	low	tg	ht	wh/0292.bmp
472.32	0.72	647	5	6	37	mem	lib	mod	mod	mod	tg	ht	wh/0396.bmp
473.04	0.72	648	1	7	96	mem	con	low	low	mod	tg	ms	wh/0048.bmp
473.76	0.72	649	1	7	76	mem	lib	low	low	low	nt	ht	nh/0185_nh.bmp
474.48	0.72	650	3	7	23	per	con	low	mod	low	tg	ms	wh/0690.bmp
475.20	0.72	651	2	5	9	per	con	mod	mod	mod	tg	ht	wh/0714.bmp
475.92	0.72	652	1	8	15	per	lib	mod	low	mod	nt	cr	nh/0530_nh.bmp
476.64	0.72	653	3	5	9	per	con	mod	mod	mod	tg	ht	wh/0714.bmp
477.36	0.72	654	6	6	54	per	lib	low	mod	low	tg	ms	wh/0404.bmp
478.08	0.72	655	4	7	23	per	con	low	mod	low	tg	ms	wh/0690.bmp
478.80	0.72	656	6	7	100	mem	lib	mod	mod	low	nt	ht	nh/0893_nh.bmp
479.52	0.72	657	5	7	37	per	lib	mod	mod	mod	nt	fa	nh/0904_nh.bmp
480.24	0.72	658	1	6	11	mem	lib	low	low	low	nt	ht	nh/0695_nh.bmp
480.96	0.72	659	5	5	12	per	con	mod	mod	mod	nt	cr	nh/0594_nh.bmp
481.68	0.72	660	5	6	61	per	lib	low	mod	low	tg	ht	wh/0355.bmp
482.40	0.72	661	3	5	22	mem	con	mod	mod	low	nt	ht	nh/0608_nh.bmp
483.12	0.72	662	5	5	92	mem	lib	mod	mod	low	nt	ht	nh/0074_nh.bmp
483.84	0.72	663	2	5	120	per	con	low	mod	low	nt	cr	nh/0032_nh.bmp
484.56	0.72	664	5	5	121	per	con	low	mod	low	tg	ms	wh/0660.bmp
485.28	0.72	665	6	8	66	per	con	mod	mod	mod	tg	ht	wh/0803.bmp
486.00	0.72	666	5	7	18	per	con	low	mod	low	nt	fa	nh/0077_nh.bmp
486.72	0.72	667	1	6	118	mem	con	low	low	mod	tg	ms	wh/0306.bmp
487.44	0.72	668	3	7	46	per	lib	mod	mod	mod	tg	ht	wh/0805.bmp
488.16	0.72	669	1	5	52	per	lib	mod	low	mod	tg	ht	wh/0278.bmp
488.88	0.72	670	5	5	32	mem	con	mod	mod	low	nt	ht	nh/0635_nh.bmp
489.60	0.72	671	4	7	45	per	lib	mod	mod	mod	tg	ht	wh/0273.bmp
490.32	0.72	672	4	7	46	per	lib	mod	mod	mod	tg	ht	wh/0805.bmp
491.04	0.72	673	4	8	117	mem	con	mod	mod	mod	tg	ms	wh/0957.bmp
491.76	0.72	674	6	5	23	mem	con	mod	mod	low	nt	ms	nh/0082_nh.bmp
492.48	0.72	675	5	5	26	mem	con	mod	mod	low	tg	ht	wh/0493.bmp
493.20	0.72	676	4	8	77	per	con	mod	mod	mod	nt	cr	nh/0772_nh.bmp
493.92	0.72	677	2	7	59	mem	con	mod	mod	low	tg	ms	wh/0153.bmp
494.64	0.72	678	1	7	113	per	con	mod	low	mod	nt	cr	nh/1018_nh.bmp
495.36	0.72	679	1	6	114	mem	con	low	low	mod	nt	ms	nh/0096_nh.bmp
496.08	0.72	680	5	8	77	per	con	mod	mod	mod	nt	cr	nh/0772_nh.bmp
496.80	0.72	681	5	7	41	per	lib	mod	mod	mod	nt	cr	nh/0182_nh.bmp
497.52	0.72	682	5	6	64	per	lib	low	mod	low	nt	fa	nh/0351_nh.bmp
498.24	0.72	683	6	5	26	mem	con	mod	mod	low	tg	ht	wh/0493.bmp
498.96	0.72	684	6	5	92	mem	lib	mod	mod	low	nt	ht	nh/0074_nh.bmp
499.68	0.72	685	6	7	33	per	lib	mod	mod	mod	tg	ht	wh/0428.bmp
500.40	0.72	686	6	5	19	mem	con	mod	mod	low	tg	ht	wh/0934.bmp
501.12	0.72	687	5	5	125	per	con	low	mod	low	nt	cr	nh/0940_nh.bmp
501.84	0.72	688	6	6	43	mem	lib	mod	mod	mod	tg	ht	wh/0843.bmp
502.56	0.72	689	6	5	6	per	con	mod	mod	mod	nt	fa	nh/0680_nh.bmp
503.28	0.72	690	1	8	110	mem	con	low	low	low	tg	ht	wh/0148.bmp
504.00	0.72	691	1	6	117	mem	con	low	low	mod	nt	ms	nh/0569_nh.bmp
504.72	0.72	692	4	6	26	per	lib	mod	mod	mod	tg	ht	wh/0199.bmp
505.44	0.72	693	3	7	59	mem	con	mod	mod	low	tg	ms	wh/0153.bmp
506.16	0.72	694	4	6	52	per	lib	low	mod	low	tg	ms	wh/0744.bmp
506.88	0.72	695	6	6	37	mem	lib	mod	mod	mod	tg	ht	wh/0396.bmp
507.60	0.72	696	5	7	23	per	con	low	mod	low	tg	ms	wh/0690.bmp
508.32	0.72	697	3	8	58	per	lib	low	mod	low	nt	cr	nh/0382_nh.bmp
509.04	0.72	698	5	7	20	per	con	low	mod	low	nt	cr	nh/0036_nh.bmp
509.76	0.72	699	4	6	105	mem	con	mod	mod	mod	tg	ht	wh/0684.bmp
510.48	0.72	700	5	5	81	mem	lib	mod	mod	low	nt	ht	nh/0190_nh.bmp
511.20	0.72	701	5	8	48	mem	lib	mod	mod	mod	tg	ht	wh/0548.bmp
511.92	0.72	702	4	5	22	mem	con	mod	mod	low	nt	ht	nh/0608_nh.bmp
512.64	0.72	703	4	7	38	per	lib	mod	mod	mod	nt	cr	nh/0810_nh.bmp
513.36	0.72	704	3	7	17	per	con	low	mod	low	nt	cr	nh/0818_nh.bmp
514.08	0.72	705	6	8	54	per	lib	low	mod	low	nt	cr	nh/0284_nh.bmp
514.80	0.72	706	5	7	45	per	lib	mod	mod	mod	tg	ht	wh/0273.bmp
515.52	0.72	707	6	5	84	mem	lib	mod	mod	low	tg	ht	wh/0238.bmp
516.24	0.72	708	4	7	58	mem	con	mod	mod	low	nt	ht	nh/0150_nh.bmp
516.96	0.72	709	1	6	75	per	con	low	low	low	tg	ms	wh/0173.bmp
517.68	0.72	710	5	7	58	mem	con	mod	mod	low	nt	ht	nh/0150_nh.bmp
518.40	0.72	711	6	5	28	mem	con	mod	mod	low	nt	ms	nh/0964_nh.bmp
519.12	0.72	712	1	5	112	per	lib	low	low	low	nt	fa	nh/0507_nh.bmp
519.84	0.72	713	6	5	125	per	con	low	mod	low	nt	cr	nh/0940_nh.bmp
520.56	0.72	714	5	7	56	mem	con	mod	mod	low	nt	ms	nh/0079_nh.bmp
521.28	0.72	715	5	6	52	per	lib	low	mod	low	tg	ms	wh/0744.bmp
522.00	0.72	716	6	8	33	mem	lib	mod	mod	mod	tg	ht	wh/0563.bmp
522.72	0.72	717	6	6	17	per	lib	mod	mod	mod	nt	cr	nh/0187_nh.bmp
523.44	0.72	718	5	6	107	mem	con	mod	mod	mod	nt	ms	nh/0902_nh.bmp
524.16	0.72	719	3	5	120	per	con	low	mod	low	nt	cr	nh/0032_nh.bmp
524.88	0.72	720	6	8	46	mem	lib	mod	mod	mod	tg	ht	wh/0784.bmp
525.60	0.72	721	5	7	105	mem	lib	mod	mod	low	nt	ht	nh/0489_nh.bmp
526.32	0.72	722	4	7	59	mem	con	mod	mod	low	tg	ms	wh/0153.bmp
527.04	0.72	723	1	6	91	per	con	mod	low	mod	tg	ms	wh/0277.bmp
527.76	0.72	724	5	8	117	mem	con	mod	mod	mod	tg	ms	wh/0957.bmp
528.48	0.72	725	5	8	38	mem	lib	mod	mod	mod	nt	ht	nh/0973_nh.bmp
529.20	0.72	726	4	8	51	per	lib	low	mod	low	nt	fa	nh/0329_nh.bmp
529.92	0.72	727	1	5	107	per	lib	low	low	low	nt	cr	nh/0633_nh.bmp
530.64	0.72	728	4	5	91	mem	lib	mod	mod	low	tg	ht	wh/0383.bmp
531.36	0.72	729	5	7	111	mem	lib	mod	mod	low	tg	ht	wh/0503.bmp
532.08	0.72	730	4	8	53	per	lib	low	mod	low	tg	ht	wh/0134.bmp
532.80	0.72	731	1	8	24	mem	lib	low	low	mod	nt	ht	nh/0669_nh.bmp
533.52	0.72	732	5	7	59	mem	con	mod	mod	low	tg	ms	wh/0153.bmp
534.24	0.72	733	1	6	8	mem	lib	low	low	low	nt	ht	nh/0710_nh.bmp
534.96	0.72	734	5	5	15	per	con	mod	mod	mod	tg	ms	wh/0446.bmp
535.68	0.72	735	6	7	63	mem	con	mod	mod	low	nt	ht	nh/0336_nh.bmp
536.40	0.72	736	5	6	24	per	lib	mod	mod	mod	nt	cr	nh/0094_nh.bmp
537.12	0.72	737	6	6	38	mem	lib	mod	mod	mod	nt	ht	nh/0954_nh.bmp
537.84	0.72	738	6	5	121	per	con	low	mod	low	tg	ms	wh/0660.bmp
538.56	0.72	739	2	8	123	mem	con	mod	mod	mod	nt	ms	nh/0558_nh.bmp
539.28	0.72	740	6	7	105	mem	lib	mod	mod	low	nt	ht	nh/0489_nh.bmp
540.00	0.72	741	6	5	1	per	con	mod	mod	mod	nt	cr	nh/0543_nh.bmp
540.72	0.72	742	4	5	115	per	con	low	mod	low	nt	cr	nh/0080_nh.bmp
541.44	0.72	743	6	6	20	per	lib	mod	mod	mod	nt	fa	nh/0855_nh.bmp
542.16	0.72	744	6	7	58	mem	con	mod	mod	low	nt	ht	nh/0150_nh.bmp
542.88	0.72	745	3	8	123	mem	con	mod	mod	mod	nt	ms	nh/0558_nh.bmp
543.60	0.72	746	5	6	27	per	lib	mod	mod	mod	tg	ht	wh/0222.bmp
544.32	0.72	747	4	5	9	per	con	mod	mod	mod	tg	ht	wh/0714.bmp
545.04	0.72	748	5	7	46	per	lib	mod	mod	mod	tg	ht	wh/0805.bmp
545.76	0.72	749	6	5	82	mem	lib	mod	mod	low	tg	ht	wh/0125.bmp
546.48	0.72	750	6	8	79	per	con	mod	mod	mod	nt	cr	nh/0716_nh.bmp
547.20	0.72	751	6	8	126	mem	con	mod	mod	mod	tg	ms	wh/0946.bmp
547.92	0.72	752	4	7	62	mem	con	mod	mod	low	nt	ht	nh/0451_nh.bmp
548.64	0.72	753	3	7	27	per	con	low	mod	low	nt	cr	nh/0232_nh.bmp
549.36	0.72	754	5	8	37	mem	lib	mod	mod	mod	nt	ht	nh/0947_nh.bmp
550.08	0.72	755	1	5	65	mem	lib	low	low	mod	tg	ht	wh/0652.bmp
550.80	0.72	756	6	7	104	mem	lib	mod	mod	low	tg	ht	wh/0508.bmp
551.52	0.72	757	5	7	60	mem	con	mod	mod	low	tg	ms	wh/0802.bmp
552.24	0.72	758	6	5	116	per	con	low	mod	low	tg	ms	wh/0035.bmp
552.96	0.72	759	1	7	89	mem	con	low	low	mod	nt	ht	nh/0762_nh.bmp
553.68	0.72	760	1	5	34	mem	con	low	low	low	tg	ms	wh/0223.bmp
554.40	0.72	761	5	6	103	mem	con	mod	mod	mod	tg	ms	wh/0442.bmp
555.12	0.72	762	5	8	75	per	con	mod	mod	mod	tg	ht	wh/0909.bmp
555.84	0.72	763	6	7	37	per	lib	mod	mod	mod	nt	fa	nh/0904_nh.bmp
556.56	0.72	764	5	7	62	mem	con	mod	mod	low	nt	ht	nh/0451_nh.bmp
557.28	0.72	765	6	7	111	mem	lib	mod	mod	low	tg	ht	wh/0503.bmp
558.00	0.72	766	4	7	27	per	con	low	mod	low	nt	cr	nh/0232_nh.bmp
558.72	0.72	767	4	7	17	per	con	low	mod	low	nt	cr	nh/0818_nh.bmp
559.44	0.72	768	6	7	21	per	con	low	mod	low	tg	ms	wh/0443.bmp
560.16	0.72	769	4	5	96	mem	lib	mod	mod	low	nt	ht	nh/0967_nh.bmp
560.88	0.72	770	5	8	67	per	con	mod	mod	mod	tg	ms	wh/0371.bmp
561.60	0.72	771	5	6	97	mem	con	mod	mod	mod	nt	ht	nh/0591_nh.bmp
562.32	0.72	772	5	6	98	mem	con	mod	mod	mod	tg	ms	wh/0380.bmp
563.04	0.72	773	6	5	89	mem	lib	mod	mod	low	tg	ht	wh/0465.bmp
563.76	0.72	774	5	7	61	mem	con	mod	mod	low	tg	ms	wh/0417.bmp
564.48	0.72	775	1	8	102	mem	con	low	low	low	tg	ms	wh/0528.bmp
565.20	0.72	776	5	8	56	per	lib	low	mod	low	tg	ht	wh/0338.bmp
565.92	0.72	777	6	7	29	per	con	low	mod	low	tg	ms	wh/0361.bmp
566.64	0.72	778	1	8	93	per	con	low	low	low	nt	cr	nh/0711_nh.bmp
567.36	0.72	779	4	8	58	per	lib	low	mod	low	nt	cr	nh/0382_nh.bmp
568.08	0.72	780	6	8	67	per	con	mod	mod	mod	tg	ms	wh/0371.bmp
568.80	0.72	781	5	7	101	mem	lib	mod	mod	low	nt	ht	nh/0619_nh.bmp
569.52	0.72	782	5	7	108	mem	lib	mod	mod	low	nt	ht	nh/0029_nh.bmp
570.24	0.72	783	4	8	52	per	lib	low	mod	low	nt	fa	nh/0299_nh.bmp
570.96	0.72	784	5	7	17	per	con	low	mod	low	nt	cr	nh/0818_nh.bmp
571.68	0.72	785	5	8	52	per	lib	low	mod	low	nt	fa	nh/0299_nh.bmp
572.40	0.72	786	5	7	38	per	lib	mod	mod	mod	nt	cr	nh/0810_nh.bmp
573.12	0.72	787	6	8	37	mem	lib	mod	mod	mod	nt	ht	nh/0947_nh.bmp
573.84	0.72	788	6	5	32	mem	con	mod	mod	low	nt	ht	nh/0635_nh.bmp
574.56	0.72	789	5	5	96	mem	lib	mod	mod	low	nt	ht	nh/0967_nh.bmp
575.28	0.72	790	6	5	15	per	con	mod	mod	mod	tg	ms	wh/0446.bmp
576.00	0.72	791	5	5	115	per	con	low	mod	low	nt	cr	nh/0080_nh.bmp
576.72	0.72	792	4	8	123	mem	con	mod	mod	mod	nt	ms	nh/0558_nh.bmp
577.44	0.72	793	6	7	101	mem	lib	mod	mod	low	nt	ht	nh/0619_nh.bmp
578.16	0.72	794	6	8	75	per	con	mod	mod	mod	tg	ht	wh/0909.bmp
578.88	0.72	795	5	6	105	mem	con	mod	mod	mod	tg	ht	wh/0684.bmp
579.60	0.72	796	6	6	105	mem	con	mod	mod	mod	tg	ht	wh/0684.bmp
580.32	0.72	797	5	8	51	per	lib	low	mod	low	nt	fa	nh/0329_nh.bmp
581.04	0.72	798	6	7	59	mem	con	mod	mod	low	tg	ms	wh/0153.bmp
581.76	0.72	799	4	5	120	per	con	low	mod	low	nt	cr	nh/0032_nh.bmp
582.48	0.72	800	5	5	22	mem	con	mod	mod	low	nt	ht	nh/0608_nh.bmp
583.20	0.72	801	6	7	62	mem	con	mod	mod	low	nt	ht	nh/0451_nh.bmp
583.92	0.72	802	5	8	58	per	lib	low	mod	low	nt	cr	nh/0382_nh.bmp
584.64	0.72	803	6	6	35	mem	lib	mod	mod	mod	nt	ht	nh/0876_nh.bmp
585.36	0.72	804	6	8	38	mem	lib	mod	mod	mod	nt	ht	nh/0973_nh.bmp
586.08	0.72	805	6	6	97	mem	con	mod	mod	mod	nt	ht	nh/0591_nh.bmp
586.80	0.72	806	6	8	51	per	lib	low	mod	low	nt	fa	nh/0329_nh.bmp
587.52	0.72	807	1	6	76	per	con	low	low	low	tg	ms	wh/0225.bmp
588.24	0.72	808	5	8	123	mem	con	mod	mod	mod	nt	ms	nh/0558_nh.bmp
588.96	0.72	809	5	5	120	per	con	low	mod	low	nt	cr	nh/0032_nh.bmp
589.68	0.72	810	6	8	48	mem	lib	mod	mod	mod	tg	ht	wh/0548.bmp
590.40	0.72	811	5	5	13	per	con	mod	mod	mod	tg	ms	wh/0196.bmp
591.12	0.72	812	5	7	27	per	con	low	mod	low	nt	cr	nh/0232_nh.bmp
591.84	0.72	813	6	5	22	mem	con	mod	mod	low	nt	ht	nh/0608_nh.bmp
592.56	0.72	814	1	6	80	per	con	low	low	low	nt	cr	nh/0434_nh.bmp
593.28	0.72	815	1	7	68	mem	lib	low	low	low	nt	ht	nh/0815_nh.bmp
594.00	0.72	816	5	8	122	mem	con	mod	mod	mod	nt	ms	nh/0593_nh.bmp
594.72	0.72	817	6	5	12	per	con	mod	mod	mod	nt	cr	nh/0594_nh.bmp
595.44	0.72	818	1	7	122	per	con	mod	low	mod	tg	ms	wh/0949.bmp
596.16	0.72	819	6	8	61	per	lib	low	mod	low	tg	ht	wh/0510.bmp
596.88	0.72	820	4	7	44	per	lib	mod	mod	mod	nt	fa	nh/0650_nh.bmp
597.60	0.72	821	6	6	98	mem	con	mod	mod	mod	tg	ms	wh/0380.bmp
598.32	0.72	822	6	6	27	per	lib	mod	mod	mod	tg	ht	wh/0222.bmp
599.04	0.72	823	1	6	115	mem	con	low	low	mod	tg	ms	wh/0044.bmp
599.76	0.72	824	6	5	118	per	con	low	mod	low	tg	ms	wh/0963.bmp
600.48	0.72	825	5	5	9	per	con	mod	mod	mod	tg	ht	wh/0714.bmp
601.20	0.72	826	1	8	88	per	con	low	low	low	nt	cr	nh/0090_nh.bmp
601.92	0.72	827	6	5	24	mem	con	mod	mod	low	tg	ms	wh/1023.bmp
602.64	0.72	828	6	7	20	per	con	low	mod	low	nt	cr	nh/0036_nh.bmp
603.36	0.72	829	5	5	16	per	con	mod	mod	mod	nt	cr	nh/0542_nh.bmp
604.08	0.72	830	6	5	96	mem	lib	mod	mod	low	nt	ht	nh/0967_nh.bmp
604.80	0.72	831	5	6	26	per	lib	mod	mod	mod	tg	ht	wh/0199.bmp
605.52	0.72	832	4	6	100	mem	con	mod	mod	mod	tg	ht	wh/0795.bmp
606.24	0.72	833	5	8	53	per	lib	low	mod	low	tg	ht	wh/0134.bmp
606.96	0.72	834	5	7	44	per	lib	mod	mod	mod	nt	fa	nh/0650_nh.bmp
607.68	0.72	835	6	8	113	mem	con	mod	mod	mod	nt	ht	nh/0350_nh.bmp
608.40	0.72	836	6	8	122	mem	con	mod	mod	mod	nt	ms	nh/0593_nh.bmp
609.12	0.72	837	5	5	91	mem	lib	mod	mod	low	tg	ht	wh/0383.bmp
609.84	0.72	838	6	7	41	per	lib	mod	mod	mod	nt	cr	nh/0182_nh.bmp
610.56	0.72	839	5	6	100	mem	con	mod	mod	mod	tg	ht	wh/0795.bmp
611.28	0.72	840	6	5	114	per	con	low	mod	low	tg	ms	wh/0194.bmp
612.00	0.72	841	1	6	12	mem	lib	low	low	low	nt	ht	nh/0113_nh.bmp
612.72	0.72	842	6	5	3	per	con	mod	mod	mod	tg	ht	wh/0099.bmp
613.44	0.72	843	6	5	81	mem	lib	mod	mod	low	nt	ht	nh/0190_nh.bmp
614.16	0.72	844	6	8	56	per	lib	low	mod	low	tg	ht	wh/0338.bmp
614.88	0.72	845	6	6	59	per	lib	low	mod	low	nt	fa	nh/0256_nh.bmp
615.60	0.72	846	6	5	13	per	con	mod	mod	mod	tg	ms	wh/0196.bmp
616.32	0.72	847	6	8	40	mem	lib	mod	mod	mod	nt	ht	nh/0397_nh.bmp
617.04	0.72	848	6	7	17	per	con	low	mod	low	nt	cr	nh/0818_nh.bmp
617.76	0.72	849	6	6	26	per	lib	mod	mod	mod	tg	ht	wh/0199.bmp
618.48	0.72	850	6	8	45	mem	lib	mod	mod	mod	tg	ht	wh/0447.bmp
619.20	0.72	851	6	7	23	per	con	low	mod	low	tg	ms	wh/0690.bmp
619.92	0.72	852	6	7	45	per	lib	mod	mod	mod	tg	ht	wh/0273.bmp
620.64	0.72	853	5	6	55	per	lib	low	mod	low	nt	cr	nh/0758_nh.bmp
621.36	0.72	854	5	7	49	mem	con	mod	mod	low	tg	ht	wh/0613.bmp
622.08	0.72	855	6	6	64	per	lib	low	mod	low	nt	fa	nh/0351_nh.bmp
622.80	0.72	856	6	7	60	mem	con	mod	mod	low	tg	ms	wh/0802.bmp
623.52	0.72	857	6	8	53	per	lib	low	mod	low	tg	ht	wh/0134.bmp
624.24	0.72	858	6	7	24	per	con	low	mod	low	tg	ms	wh/0760.bmp
624.96	0.72	859	6	6	24	per	lib	mod	mod	mod	nt	cr	nh/0094_nh.bmp
625.68	0.72	860	6	6	100	mem	con	mod	mod	mod	tg	ht	wh/0795.bmp
626.40	0.72	861	6	8	80	per	con	mod	mod	mod	nt	cr	nh/0807_nh.bmp
627.12	0.72	862	6	6	107	mem	con	mod	mod	mod	nt	ms	nh/0902_nh.bmp
627.84	0.72	863	6	5	9	per	con	mod	mod	mod	tg	ht	wh/0714.bmp
628.56	0.72	864	6	7	18	per	con	low	mod	low	nt	fa	nh/0077_nh.bmp
629.28	0.72	865	5	5	95	mem	lib	mod	mod	low	nt	ht	nh/0075_nh.bmp
630.00	0.72	866	6	7	44	per	lib	mod	mod	mod	nt	fa	nh/0650_nh.bmp
630.72	0.72	867	1	5	58	per	lib	mod	low	mod	nt	fa	nh/0129_nh.bmp
631.44	0.72	868	6	8	123	mem	con	mod	mod	mod	nt	ms	nh/0558_nh.bmp
632.16	0.72	869	6	7	46	per	lib	mod	mod	mod	tg	ht	wh/0805.bmp
632.88	0.72	870	6	7	38	per	lib	mod	mod	mod	nt	cr	nh/0810_nh.bmp
633.60	0.72	871	6	6	56	per	lib	low	mod	low	tg	ms	wh/0730.bmp
634.32	0.72	872	6	7	108	mem	lib	mod	mod	low	nt	ht	nh/0029_nh.bmp
635.04	0.72	873	6	6	103	mem	con	mod	mod	mod	tg	ms	wh/0442.bmp
635.76	0.72	874	6	6	19	per	lib	mod	mod	mod	tg	ht	wh/0941.bmp
636.48	0.72	875	6	5	120	per	con	low	mod	low	nt	cr	nh/0032_nh.bmp
637.20	0.72	876	1	8	82	per	con	low	low	low	nt	cr	nh/0197_nh.bmp
637.92	0.72	877	6	6	52	per	lib	low	mod	low	tg	ms	wh/0744.bmp
638.64	0.72	878	6	8	77	per	con	mod	mod	mod	nt	cr	nh/0772_nh.bmp
639.36	0.72	879	6	5	95	mem	lib	mod	mod	low	nt	ht	nh/0075_nh.bmp
640.08	0.72	880	1	5	101	per	lib	low	low	low	tg	ms	wh/0956.bmp
640.80	0.72	881	6	5	91	mem	lib	mod	mod	low	tg	ht	wh/0383.bmp
641.52	0.72	882	5	7	106	mem	lib	mod	mod	low	tg	ht	wh/0577.bmp
642.24	0.72	883	6	7	49	mem	con	mod	mod	low	tg	ht	wh/0613.bmp
642.96	0.72	884	6	5	16	per	con	mod	mod	mod	nt	cr	nh/0542_nh.bmp
643.68	0.72	885	6	6	61	per	lib	low	mod	low	tg	ht	wh/0355.bmp
644.40	0.72	886	6	7	61	mem	con	mod	mod	low	tg	ms	wh/0417.bmp
645.12	0.72	887	6	8	58	per	lib	low	mod	low	nt	cr	nh/0382_nh.bmp
645.84	0.72	888	6	8	52	per	lib	low	mod	low	nt	fa	nh/0299_nh.bmp
646.56	0.72	889	6	6	55	per	lib	low	mod	low	nt	cr	nh/0758_nh.bmp
647.28	0.72	890	6	7	56	mem	con	mod	mod	low	nt	ms	nh/0079_nh.bmp
648.00	0.72	891	1	7	3	per	lib	low	low	low	tg	ms	wh/0055.bmp
648.72	0.72	892	6	7	27	per	con	low	mod	low	nt	cr	nh/0232_nh.bmp
649.44	0.72	893	6	8	117	mem	con	mod	mod	mod	tg	ms	wh/0957.bmp
650.16	0.72	894	6	5	115	per	con	low	mod	low	nt	cr	nh/0080_nh.bmp
650.88	0.72	895	6	7	106	mem	lib	mod	mod	low	tg	ht	wh/0577.bmp
651.60	0.72	896	6	6	48	mem	lib	mod	mod	mod	tg	ht	wh/0497.bmp
