onset	duration	trial	pres	ts_blk	ts_trl	task	crit	disc	mem_disc	per_disc	per_type	accuracy	stim_file
7.20	0.72	1	1	7	99	mem	lib	mod	mod	mod	tg	ht	wh/0060.bmp
7.92	0.72	2	1	5	106	mem	lib	low	low	low	nt	ht	nh/0617_nh.bmp
8.64	0.72	3	1	7	9	per	lib	low	mod	low	nt	cr	nh/0521_nh.bmp
9.36	0.72	4	1	7	13	per	lib	low	mod	low	nt	fa	nh/0172_nh.bmp
10.08	0.72	5	1	7	14	per	lib	low	mod	low	nt	cr	nh/0450_nh.bmp
10.80	0.72	6	1	5	93	per	con	mod	mod	mod	tg	ht	wh/0717.bmp
11.52	0.72	7	1	5	32	mem	con	mod	mod	mod	nt	ms	nh/0599_nh.bmp
12.24	0.72	8	1	6	74	per	lib	low	low	low	nt	fa	nh/0859_nh.bmp
12.96	0.72	9	1	7	89	mem	lib	low	low	low	nt	ht	nh/0518_nh.bmp
13.68	0.72	10	1	8	9	mem	con	mod	mod	low	nt	ms	nh/0394_nh.bmp
14.40	0.72	11	1	6	108	per	con	mod	low	mod	nt	cr	nh/0188_nh.bmp
15.12	0.72	12	1	7	34	per	con	mod	mod	mod	nt	cr	nh/0275_nh.bmp
15.84	0.72	13	1	5	88	per	con	mod	mod	mod	nt	cr	nh/0556_nh.bmp
16.56	0.72	14	1	8	42	per	lib	mod	mod	mod	tg	ht	wh/0586.bmp
17.28	0.72	15	1	8	54	mem	con	low	low	low	nt	ht	nh/0258_nh.bmp
18.00	0.72	16	1	5	17	mem	con	mod	mod	mod	tg	ht	wh/0337.bmp
18.72	0.72	17	1	8	13	mem	con	mod	mod	low	nt	ht	nh/0756_nh.bmp
19.44	0.72	18	1	7	58	per	lib	mod	low	mod	tg	ht	wh/0046.bmp
20.16	0.72	19	1	8	15	mem	con	mod	mod	low	tg	ht	wh/0176.bmp
20.88	0.72	20	1	7	75	mem	con	mod	mod	mod	nt	ht	nh/0385_nh.bmp
21.60	0.72	21	1	7	25	per	con	low	mod	low	tg	ms	wh/0734.bmp
22.32	0.72	22	1	8	45	per	lib	mod	mod	mod	nt	cr	nh/0552_nh.bmp
23.04	0.72	23	1	5	47	mem	lib	mod	mod	mod	tg	ht	wh/0715.bmp
23.76	0.72	24	1	7	80	mem	con	mod	mod	mod	nt	ht	nh/0399_nh.bmp
24.48	0.72	25	2	7	99	mem	lib	mod	mod	mod	tg	ht	wh/0060.bmp
25.20	0.72	26	1	7	5	per	lib	low	mod	low	tg	ht	wh/0939.bmp
25.92	0.72	27	1	7	106	mem	lib	mod	mod	mod	nt	ht	nh/0546_nh.bmp
26.64	0.72	28	1	5	69	per	lib	low	mod	low	nt	fa	nh/0012_nh.bmp
27.36	0.72	29	1	7	108	mem	lib	mod	mod	mod	nt	ht	nh/0958_nh.bmp
28.08	0.72	30	1	8	109	mem	lib	low	low	mod	nt	ht	nh/0084_nh.bmp
28.80	0.72	31	1	5	5	mem	con	low	low	mod	tg	n/a	wh/0545.bmp
29.52	0.72	32	1	5	29	mem	con	mod	mod	mod	tg	ms	wh/0995.bmp
30.24	0.72	33	1	8	24	mem	lib	mod	mod	low	nt	ht	nh/0157_nh.bmp
30.96	0.72	34	1	7	67	mem	con	mod	mod	mod	tg	ms	wh/0086.bmp
31.68	0.72	35	1	8	68	per	lib	low	low	low	tg	ht	wh/0089.bmp
32.40	0.72	36	1	5	80	per	lib	low	mod	low	tg	ht	wh/1014.bmp
33.12	0.72	37	1	6	38	mem	lib	mod	mod	low	nt	ht	nh/0746_nh.bmp
33.84	0.72	38	1	7	23	per	con	low	mod	low	nt	cr	nh/0249_nh.bmp
34.56	0.72	39	1	6	62	mem	con	low	low	low	tg	ms	wh/0268.bmp
35.28	0.72	40	2	8	24	mem	lib	mod	mod	low	nt	ht	nh/0157_nh.bmp
36.00	0.72	41	1	8	87	per	con	low	low	low	nt	cr	nh/0737_nh.bmp
36.72	0.72	42	1	5	76	per	lib	low	mod	low	nt	fa	nh/0254_nh.bmp
37.44	0.72	43	1	5	125	per	con	low	mod	low	nt	cr	nh/0170_nh.bmp
38.16	0.72	44	2	5	125	per	con	low	mod	low	nt	cr	nh/0170_nh.bmp
38.88	0.72	45	1	5	71	per	lib	low	mod	low	nt	fa	nh/0139_nh.bmp
39.60	0.72	46	1	5	24	mem	con	mod	mod	mod	nt	ms	nh/0833_nh.bmp
40.32	0.72	47	1	8	17	mem	lib	mod	mod	low	nt	ht	nh/0883_nh.bmp
41.04	0.72	48	1	5	122	per	con	low	mod	low	tg	ms	wh/0618.bmp
41.76	0.72	49	1	6	23	mem	con	mod	mod	low	tg	ht	wh/1004.bmp
42.48	0.72	50	1	5	3	mem	con	low	low	mod	tg	ms	wh/0180.bmp
43.20	0.72	51	1	5	82	per	con	mod	mod	mod	nt	cr	nh/0694_nh.bmp
43.92	0.72	52	1	5	42	mem	lib	mod	mod	mod	tg	ht	wh/0495.bmp
44.64	0.72	53	2	7	23	per	con	low	mod	low	nt	cr	nh/0249_nh.bmp
45.36	0.72	54	1	5	43	mem	lib	mod	mod	mod	nt	ht	nh/0602_nh.bmp
46.08	0.72	55	1	5	34	mem	lib	mod	mod	mod	nt	ht	nh/0871_nh.bmp
46.80	0.72	56	1	6	28	mem	con	mod	mod	low	tg	ht	wh/0875.bmp
47.52	0.72	57	1	7	116	mem	con	low	low	mod	tg	ms	wh/0982.bmp
48.24	0.72	58	1	6	42	mem	lib	mod	mod	low	tg	ht	wh/0374.bmp
48.96	0.72	59	1	6	31	mem	con	mod	mod	low	tg	ht	wh/0241.bmp
49.68	0.72	60	1	7	65	mem	con	mod	mod	mod	tg	ht	wh/0318.bmp
50.40	0.72	61	1	6	18	mem	con	mod	mod	low	tg	ht	wh/0574.bmp
51.12	0.72	62	1	5	117	per	con	low	mod	low	tg	ms	wh/0678.bmp
51.84	0.72	63	1	6	25	mem	con	mod	mod	low	nt	ht	nh/0582_nh.bmp
52.56	0.72	64	1	7	39	per	con	mod	mod	mod	tg	ht	wh/0590.bmp
53.28	0.72	65	2	7	75	mem	con	mod	mod	mod	nt	ht	nh/0385_nh.bmp
54.00	0.72	66	1	8	23	mem	lib	mod	mod	low	tg	ht	wh/0024.bmp
54.72	0.72	67	2	7	106	mem	lib	mod	mod	mod	nt	ht	nh/0546_nh.bmp
55.44	0.72	68	2	8	42	per	lib	mod	mod	mod	tg	ht	wh/0586.bmp
56.16	0.72	69	1	7	16	per	lib	low	mod	low	tg	ht	wh/0848.bmp
56.88	0.72	70	1	8	49	mem	con	low	low	low	tg	ht	wh/0285.bmp
57.60	0.72	71	1	5	54	per	lib	mod	mod	mod	nt	cr	nh/0971_nh.bmp
58.32	0.72	72	1	6	22	mem	con	mod	mod	low	nt	ht	nh/0820_nh.bmp
59.04	0.72	73	1	8	110	mem	lib	low	low	mod	nt	ht	nh/0342_nh.bmp
59.76	0.72	74	1	6	115	mem	lib	low	low	mod	tg	ms	wh/0668.bmp
60.48	0.72	75	1	5	28	mem	con	mod	mod	mod	nt	ms	nh/0797_nh.bmp
61.20	0.72	76	1	8	5	mem	con	mod	mod	low	nt	ms	nh/0453_nh.bmp
61.92	0.72	77	1	5	113	per	con	low	mod	low	nt	cr	nh/1019_nh.bmp
62.64	0.72	78	1	7	28	per	con	low	mod	low	tg	ms	wh/0164.bmp
63.36	0.72	79	1	8	11	mem	con	mod	mod	low	tg	ht	wh/0114.bmp
64.08	0.72	80	1	5	55	per	lib	mod	mod	mod	nt	cr	nh/0822_nh.bmp
64.80	0.72	81	1	5	65	per	lib	low	mod	low	tg	ht	wh/0064.bmp
65.52	0.72	82	1	8	7	mem	con	mod	mod	low	nt	ht	nh/0401_nh.bmp
66.24	0.72	83	2	6	23	mem	con	mod	mod	low	tg	ht	wh/1004.bmp
66.96	0.72	84	2	7	80	mem	con	mod	mod	mod	nt	ht	nh/0399_nh.bmp
67.68	0.72	85	2	5	55	per	lib	mod	mod	mod	nt	cr	nh/0822_nh.bmp
68.40	0.72	86	1	7	98	mem	lib	mod	mod	mod	tg	ht	wh/0888.bmp
69.12	0.72	87	1	7	41	per	con	mod	mod	mod	tg	ht	wh/0827.bmp
69.84	0.72	88	1	7	102	mem	lib	mod	mod	mod	nt	ht	nh/0420_nh.bmp
70.56	0.72	89	2	5	88	per	con	mod	mod	mod	nt	cr	nh/0556_nh.bmp
71.28	0.72	90	2	5	80	per	lib	low	mod	low	tg	ht	wh/1014.bmp
72.00	0.72	91	1	6	27	mem	con	mod	mod	low	nt	ms	nh/0491_nh.bmp
72.72	0.72	92	1	5	58	per	lib	mod	mod	mod	nt	cr	nh/0549_nh.bmp
73.44	0.72	93	1	8	106	mem	lib	low	low	mod	tg	ms	wh/0673.bmp
74.16	0.72	94	3	7	75	mem	con	mod	mod	mod	nt	ht	nh/0385_nh.bmp
74.88	0.72	95	1	7	45	per	con	mod	mod	mod	nt	cr	nh/0638_nh.bmp
75.60	0.72	96	1	6	128	mem	lib	low	low	mod	tg	ht	wh/0840.bmp
76.32	0.72	97	2	6	38	mem	lib	mod	mod	low	nt	ht	nh/0746_nh.bmp
77.04	0.72	98	1	5	22	mem	con	mod	mod	mod	tg	ms	wh/0623.bmp
77.76	0.72	99	1	7	74	mem	con	mod	mod	mod	nt	ht	nh/0735_nh.bmp
78.48	0.72	100	1	5	101	mem	lib	low	low	low	tg	ht	wh/0880.bmp
79.20	0.72	101	2	7	25	per	con	low	mod	low	tg	ms	wh/0734.bmp
79.92	0.72	102	2	6	22	mem	con	mod	mod	low	nt	ht	nh/0820_nh.bmp
80.64	0.72	103	2	8	17	mem	lib	mod	mod	low	nt	ht	nh/0883_nh.bmp
81.36	0.72	104	1	8	6	mem	con	mod	mod	low	tg	ms	wh/0248.bmp
82.08	0.72	105	2	5	58	per	lib	mod	mod	mod	nt	cr	nh/0549_nh.bmp
82.80	0.72	106	2	5	65	per	lib	low	mod	low	tg	ht	wh/0064.bmp
83.52	0.72	107	1	7	29	per	con	low	mod	low	nt	cr	nh/0143_nh.bmp
84.24	0.72	108	1	5	51	per	lib	mod	mod	mod	tg	ht	wh/0179.bmp
84.96	0.72	109	2	6	25	mem	con	mod	mod	low	nt	ht	nh/0582_nh.bmp
85.68	0.72	110	2	7	13	per	lib	low	mod	low	nt	fa	nh/0172_nh.bmp
86.40	0.72	111	1	8	29	mem	lib	mod	mod	low	tg	ht	wh/0519.bmp
87.12	0.72	112	3	8	24	mem	lib	mod	mod	low	nt	ht	nh/0157_nh.bmp
87.84	0.72	113	3	5	55	per	lib	mod	mod	mod	nt	cr	nh/0822_nh.bmp
88.56	0.72	114	1	6	26	mem	con	mod	mod	low	nt	ht	nh/0073_nh.bmp
89.28	0.72	115	1	8	33	per	lib	mod	mod	mod	tg	ht	wh/0832.bmp
90.00	0.72	116	1	6	41	mem	lib	mod	mod	low	tg	ht	wh/0165.bmp
90.72	0.72	117	2	7	74	mem	con	mod	mod	mod	nt	ht	nh/0735_nh.bmp
91.44	0.72	118	1	5	94	per	con	mod	mod	mod	nt	fa	nh/0603_nh.bmp
92.16	0.72	119	2	5	24	mem	con	mod	mod	mod	nt	ms	nh/0833_nh.bmp
92.88	0.72	120	2	5	43	mem	lib	mod	mod	mod	nt	ht	nh/0602_nh.bmp
93.60	0.72	121	1	7	128	mem	con	low	low	mod	nt	ht	nh/0372_nh.bmp
94.32	0.72	122	2	7	9	per	lib	low	mod	low	nt	cr	nh/0521_nh.bmp
95.04	0.72	123	1	7	100	mem	lib	mod	mod	mod	nt	ht	nh/0686_nh.bmp
95.76	0.72	124	1	5	98	mem	lib	low	low	low	nt	ht	nh/0063_nh.bmp
96.48	0.72	125	2	7	16	per	lib	low	mod	low	tg	ht	wh/0848.bmp
97.20	0.72	126	2	5	42	mem	lib	mod	mod	mod	tg	ht	wh/0495.bmp
97.92	0.72	127	1	5	124	per	con	low	mod	low	nt	cr	nh/0986_nh.bmp
98.64	0.72	128	1	6	34	mem	lib	mod	mod	low	nt	ht	nh/0403_nh.bmp
99.36	0.72	129	1	7	40	per	con	mod	mod	mod	nt	cr	nh/0821_nh.bmp
100.08	0.72	130	2	5	93	per	con	mod	mod	mod	tg	ht	wh/0717.bmp
100.80	0.72	131	1	6	46	mem	lib	mod	mod	low	tg	ms	wh/0578.bmp
101.52	0.72	132	3	5	58	per	lib	mod	mod	mod	nt	cr	nh/0549_nh.bmp
102.24	0.72	133	2	7	34	per	con	mod	mod	mod	nt	cr	nh/0275_nh.bmp
102.96	0.72	134	3	7	9	per	lib	low	mod	low	nt	cr	nh/0521_nh.bmp
103.68	0.72	135	1	7	10	per	lib	low	mod	low	tg	ht	wh/0042.bmp
104.40	0.72	136	3	7	16	per	lib	low	mod	low	tg	ht	wh/0848.bmp
105.12	0.72	137	1	8	22	mem	lib	mod	mod	low	tg	ht	wh/0863.bmp
105.84	0.72	138	1	5	46	mem	lib	mod	mod	mod	tg	ht	wh/0764.bmp
106.56	0.72	139	1	6	45	mem	lib	mod	mod	low	nt	ht	nh/0118_nh.bmp
107.28	0.72	140	2	7	67	mem	con	mod	mod	mod	tg	ms	wh/0086.bmp
108.00	0.72	141	2	5	28	mem	con	mod	mod	mod	nt	ms	nh/0797_nh.bmp
108.72	0.72	142	1	8	18	mem	lib	mod	mod	low	tg	ht	wh/0612.bmp
109.44	0.72	143	1	6	83	per	con	low	low	low	tg	ms	wh/0219.bmp
110.16	0.72	144	1	6	84	per	con	low	low	low	tg	ms	wh/0639.bmp
110.88	0.72	145	2	5	54	per	lib	mod	mod	mod	nt	cr	nh/0971_nh.bmp
111.60	0.72	146	2	7	45	per	con	mod	mod	mod	nt	cr	nh/0638_nh.bmp
112.32	0.72	147	1	7	21	per	con	low	mod	low	tg	ms	wh/0247.bmp
113.04	0.72	148	2	8	11	mem	con	mod	mod	low	tg	ht	wh/0114.bmp
113.76	0.72	149	3	5	125	per	con	low	mod	low	nt	cr	nh/0170_nh.bmp
114.48	0.72	150	2	6	26	mem	con	mod	mod	low	nt	ht	nh/0073_nh.bmp
115.20	0.72	151	1	8	93	per	con	low	low	low	nt	cr	nh/0610_nh.bmp
115.92	0.72	152	2	5	34	mem	lib	mod	mod	mod	nt	ht	nh/0871_nh.bmp
116.64	0.72	153	1	7	66	mem	con	mod	mod	mod	tg	ms	wh/0564.bmp
117.36	0.72	154	1	5	91	per	con	mod	mod	mod	tg	ht	wh/0020.bmp
118.08	0.72	155	1	6	53	mem	con	low	low	low	tg	ms	wh/0566.bmp
118.80	0.72	156	3	5	88	per	con	mod	mod	mod	nt	cr	nh/0556_nh.bmp
119.52	0.72	157	1	7	55	per	lib	mod	low	mod	nt	fa	nh/0839_nh.bmp
120.24	0.72	158	3	7	45	per	con	mod	mod	mod	nt	cr	nh/0638_nh.bmp
120.96	0.72	159	2	8	13	mem	con	mod	mod	low	nt	ht	nh/0756_nh.bmp
121.68	0.72	160	1	5	102	mem	lib	low	low	low	tg	ht	wh/0280.bmp
122.40	0.72	161	2	7	102	mem	lib	mod	mod	mod	nt	ht	nh/0420_nh.bmp
123.12	0.72	162	2	7	10	per	lib	low	mod	low	tg	ht	wh/0042.bmp
123.84	0.72	163	2	5	51	per	lib	mod	mod	mod	tg	ht	wh/0179.bmp
124.56	0.72	164	3	8	17	mem	lib	mod	mod	low	nt	ht	nh/0883_nh.bmp
125.28	0.72	165	2	5	71	per	lib	low	mod	low	nt	fa	nh/0139_nh.bmp
126.00	0.72	166	2	8	45	per	lib	mod	mod	mod	nt	cr	nh/0552_nh.bmp
126.72	0.72	167	1	8	122	per	con	mod	low	mod	nt	cr	nh/0402_nh.bmp
127.44	0.72	168	2	8	9	mem	con	mod	mod	low	nt	ms	nh/0394_nh.bmp
128.16	0.72	169	1	5	114	per	con	low	mod	low	tg	ms	wh/0018.bmp
128.88	0.72	170	2	6	45	mem	lib	mod	mod	low	nt	ht	nh/0118_nh.bmp
129.60	0.72	171	3	7	23	per	con	low	mod	low	nt	cr	nh/0249_nh.bmp
130.32	0.72	172	3	5	80	per	lib	low	mod	low	tg	ht	wh/1014.bmp
131.04	0.72	173	3	5	42	mem	lib	mod	mod	mod	tg	ht	wh/0495.bmp
131.76	0.72	174	1	6	116	mem	lib	low	low	mod	nt	ht	nh/0532_nh.bmp
132.48	0.72	175	3	5	24	mem	con	mod	mod	mod	nt	ms	nh/0833_nh.bmp
133.20	0.72	176	1	7	6	per	lib	low	mod	low	nt	fa	nh/0388_nh.bmp
133.92	0.72	177	4	8	24	mem	lib	mod	mod	low	nt	ht	nh/0157_nh.bmp
134.64	0.72	178	1	8	47	per	lib	mod	mod	mod	tg	ht	wh/0300.bmp
135.36	0.72	179	2	8	33	per	lib	mod	mod	mod	tg	ht	wh/0832.bmp
136.08	0.72	180	1	7	69	mem	con	mod	mod	mod	nt	ms	nh/0778_nh.bmp
136.80	0.72	181	1	5	57	per	lib	mod	mod	mod	tg	ht	wh/0056.bmp
137.52	0.72	182	2	6	31	mem	con	mod	mod	low	tg	ht	wh/0241.bmp
138.24	0.72	183	2	7	21	per	con	low	mod	low	tg	ms	wh/0247.bmp
138.96	0.72	184	2	5	91	per	con	mod	mod	mod	tg	ht	wh/0020.bmp
139.68	0.72	185	1	7	61	per	lib	mod	low	mod	nt	cr	nh/0186_nh.bmp
140.40	0.72	186	2	7	100	mem	lib	mod	mod	mod	nt	ht	nh/0686_nh.bmp
141.12	0.72	187	4	5	88	per	con	mod	mod	mod	nt	cr	nh/0556_nh.bmp
141.84	0.72	188	2	8	5	mem	con	mod	mod	low	nt	ms	nh/0453_nh.bmp
142.56	0.72	189	4	5	80	per	lib	low	mod	low	tg	ht	wh/1014.bmp
143.28	0.72	190	3	8	33	per	lib	mod	mod	mod	tg	ht	wh/0832.bmp
144.00	0.72	191	1	7	27	per	con	low	mod	low	nt	cr	nh/0108_nh.bmp
144.72	0.72	192	1	5	74	per	lib	low	mod	low	nt	cr	nh/0780_nh.bmp
145.44	0.72	193	2	5	124	per	con	low	mod	low	nt	cr	nh/0986_nh.bmp
146.16	0.72	194	2	8	6	mem	con	mod	mod	low	tg	ms	wh/0248.bmp
146.88	0.72	195	1	5	50	per	lib	mod	mod	mod	tg	ht	wh/0629.bmp
147.60	0.72	196	2	5	57	per	lib	mod	mod	mod	tg	ht	wh/0056.bmp
148.32	0.72	197	2	6	42	mem	lib	mod	mod	low	tg	ht	wh/0374.bmp
149.04	0.72	198	1	8	20	mem	lib	mod	mod	low	nt	ht	nh/0253_nh.bmp
149.76	0.72	199	3	6	25	mem	con	mod	mod	low	nt	ht	nh/0582_nh.bmp
150.48	0.72	200	2	5	117	per	con	low	mod	low	tg	ms	wh/0678.bmp
151.20	0.72	201	1	8	46	per	lib	mod	mod	mod	nt	fa	nh/0978_nh.bmp
151.92	0.72	202	1	6	122	mem	lib	low	low	mod	nt	ht	nh/0101_nh.bmp
152.64	0.72	203	3	8	6	mem	con	mod	mod	low	tg	ms	wh/0248.bmp
153.36	0.72	204	2	8	18	mem	lib	mod	mod	low	tg	ht	wh/0612.bmp
154.08	0.72	205	3	5	34	mem	lib	mod	mod	mod	nt	ht	nh/0871_nh.bmp
154.80	0.72	206	2	5	74	per	lib	low	mod	low	nt	cr	nh/0780_nh.bmp
155.52	0.72	207	2	6	27	mem	con	mod	mod	low	nt	ms	nh/0491_nh.bmp
156.24	0.72	208	2	5	32	mem	con	mod	mod	mod	nt	ms	nh/0599_nh.bmp
156.96	0.72	209	3	5	32	mem	con	mod	mod	mod	nt	ms	nh/0599_nh.bmp
157.68	0.72	210	3	5	91	per	con	mod	mod	mod	tg	ht	wh/0020.bmp
158.40	0.72	211	4	7	16	per	lib	low	mod	low	tg	ht	wh/0848.bmp
159.12	0.72	212	4	7	9	per	lib	low	mod	low	nt	cr	nh/0521_nh.bmp
159.84	0.72	213	1	7	20	per	con	low	mod	low	nt	cr	nh/0262_nh.bmp
160.56	0.72	214	2	8	7	mem	con	mod	mod	low	nt	ht	nh/0401_nh.bmp
161.28	0.72	215	3	8	7	mem	con	mod	mod	low	nt	ht	nh/0401_nh.bmp
162.00	0.72	216	1	8	44	per	lib	mod	mod	mod	tg	ms	wh/0852.bmp
162.72	0.72	217	1	5	127	per	con	low	mod	low	tg	ms	wh/0023.bmp
163.44	0.72	218	1	8	41	per	lib	mod	mod	mod	nt	cr	nh/0544_nh.bmp
164.16	0.72	219	2	5	82	per	con	mod	mod	mod	nt	cr	nh/0694_nh.bmp
164.88	0.72	220	1	6	114	mem	lib	low	low	mod	tg	ht	wh/0389.bmp
165.60	0.72	221	3	7	21	per	con	low	mod	low	tg	ms	wh/0247.bmp
166.32	0.72	222	2	7	65	mem	con	mod	mod	mod	tg	ht	wh/0318.bmp
167.04	0.72	223	4	7	23	per	con	low	mod	low	nt	cr	nh/0249_nh.bmp
167.76	0.72	224	1	7	82	mem	lib	low	low	low	tg	ht	wh/0994.bmp
168.48	0.72	225	1	5	41	mem	lib	mod	mod	mod	nt	ht	nh/0269_nh.bmp
169.20	0.72	226	3	7	80	mem	con	mod	mod	mod	nt	ht	nh/0399_nh.bmp
169.92	0.72	227	3	7	10	per	lib	low	mod	low	tg	ht	wh/0042.bmp
170.64	0.72	228	2	5	127	per	con	low	mod	low	tg	ms	wh/0023.bmp
171.36	0.72	229	3	5	51	per	lib	mod	mod	mod	tg	ht	wh/0179.bmp
172.08	0.72	230	1	5	77	per	lib	low	mod	low	tg	ms	wh/0640.bmp
172.80	0.72	231	2	6	34	mem	lib	mod	mod	low	nt	ht	nh/0403_nh.bmp
173.52	0.72	232	4	8	6	mem	con	mod	mod	low	tg	ms	wh/0248.bmp
174.24	0.72	233	1	8	48	per	lib	mod	mod	mod	nt	cr	nh/0763_nh.bmp
174.96	0.72	234	1	6	3	per	lib	mod	low	mod	tg	ht	wh/0051.bmp
175.68	0.72	235	2	7	20	per	con	low	mod	low	nt	cr	nh/0262_nh.bmp
176.40	0.72	236	2	8	29	mem	lib	mod	mod	low	tg	ht	wh/0519.bmp
177.12	0.72	237	1	5	87	per	con	mod	mod	mod	nt	cr	nh/0239_nh.bmp
177.84	0.72	238	1	6	60	mem	con	low	low	low	nt	ms	nh/0767_nh.bmp
178.56	0.72	239	1	6	82	per	con	low	low	low	nt	cr	nh/0181_nh.bmp
179.28	0.72	240	2	5	94	per	con	mod	mod	mod	nt	fa	nh/0603_nh.bmp
180.00	0.72	241	2	7	5	per	lib	low	mod	low	tg	ht	wh/0939.bmp
180.72	0.72	242	2	5	113	per	con	low	mod	low	nt	cr	nh/1019_nh.bmp
181.44	0.72	243	1	8	57	mem	con	low	low	low	tg	ms	wh/0136.bmp
182.16	0.72	244	3	6	23	mem	con	mod	mod	low	tg	ht	wh/1004.bmp
182.88	0.72	245	2	5	69	per	lib	low	mod	low	nt	fa	nh/0012_nh.bmp
183.60	0.72	246	3	5	71	per	lib	low	mod	low	nt	fa	nh/0139_nh.bmp
184.32	0.72	247	2	5	87	per	con	mod	mod	mod	nt	cr	nh/0239_nh.bmp
185.04	0.72	248	4	6	23	mem	con	mod	mod	low	tg	ht	wh/1004.bmp
185.76	0.72	249	3	6	22	mem	con	mod	mod	low	nt	ht	nh/0820_nh.bmp
186.48	0.72	250	1	6	14	per	lib	mod	low	mod	tg	ht	wh/0625.bmp
187.20	0.72	251	1	6	39	mem	lib	mod	mod	low	tg	ht	wh/0193.bmp
187.92	0.72	252	1	8	32	mem	lib	mod	mod	low	nt	ht	nh/0297_nh.bmp
188.64	0.72	253	1	6	107	per	con	mod	low	mod	nt	cr	nh/0951_nh.bmp
189.36	0.72	254	2	8	47	per	lib	mod	mod	mod	tg	ht	wh/0300.bmp
190.08	0.72	255	4	7	80	mem	con	mod	mod	mod	nt	ht	nh/0399_nh.bmp
190.80	0.72	256	3	7	20	per	con	low	mod	low	nt	cr	nh/0262_nh.bmp
191.52	0.72	257	3	6	34	mem	lib	mod	mod	low	nt	ht	nh/0403_nh.bmp
192.24	0.72	258	1	8	16	mem	con	mod	mod	low	tg	ht	wh/0814.bmp
192.96	0.72	259	3	6	45	mem	lib	mod	mod	low	nt	ht	nh/0118_nh.bmp
193.68	0.72	260	1	7	19	per	con	low	mod	low	tg	ms	wh/0647.bmp
194.40	0.72	261	3	6	27	mem	con	mod	mod	low	nt	ms	nh/0491_nh.bmp
195.12	0.72	262	2	5	76	per	lib	low	mod	low	nt	fa	nh/0254_nh.bmp
195.84	0.72	263	3	5	28	mem	con	mod	mod	mod	nt	ms	nh/0797_nh.bmp
196.56	0.72	264	3	5	54	per	lib	mod	mod	mod	nt	cr	nh/0971_nh.bmp
197.28	0.72	265	2	8	48	per	lib	mod	mod	mod	nt	cr	nh/0763_nh.bmp
198.00	0.72	266	1	8	56	mem	con	low	low	low	nt	ms	nh/1015_nh.bmp
198.72	0.72	267	3	6	42	mem	lib	mod	mod	low	tg	ht	wh/0374.bmp
199.44	0.72	268	2	5	29	mem	con	mod	mod	mod	tg	ms	wh/0995.bmp
200.16	0.72	269	1	5	11	mem	con	low	low	mod	nt	ht	nh/0948_nh.bmp
200.88	0.72	270	2	8	16	mem	con	mod	mod	low	tg	ht	wh/0814.bmp
201.60	0.72	271	3	8	45	per	lib	mod	mod	mod	nt	cr	nh/0552_nh.bmp
202.32	0.72	272	4	6	27	mem	con	mod	mod	low	nt	ms	nh/0491_nh.bmp
203.04	0.72	273	4	5	28	mem	con	mod	mod	mod	nt	ms	nh/0797_nh.bmp
203.76	0.72	274	4	5	55	per	lib	mod	mod	mod	nt	cr	nh/0822_nh.bmp
204.48	0.72	275	1	5	56	per	lib	mod	mod	mod	tg	ht	wh/0366.bmp
205.20	0.72	276	3	7	65	mem	con	mod	mod	mod	tg	ht	wh/0318.bmp
205.92	0.72	277	1	7	42	per	con	mod	mod	mod	nt	cr	nh/0666_nh.bmp
206.64	0.72	278	3	8	47	per	lib	mod	mod	mod	tg	ht	wh/0300.bmp
207.36	0.72	279	3	5	124	per	con	low	mod	low	nt	cr	nh/0986_nh.bmp
208.08	0.72	280	2	6	18	mem	con	mod	mod	low	tg	ht	wh/0574.bmp
208.80	0.72	281	2	7	66	mem	con	mod	mod	mod	tg	ms	wh/0564.bmp
209.52	0.72	282	1	5	95	per	con	mod	mod	mod	tg	ms	wh/0952.bmp
210.24	0.72	283	1	7	7	per	lib	low	mod	low	tg	ht	wh/0255.bmp
210.96	0.72	284	4	7	65	mem	con	mod	mod	mod	tg	ht	wh/0318.bmp
211.68	0.72	285	4	6	25	mem	con	mod	mod	low	nt	ht	nh/0582_nh.bmp
212.40	0.72	286	2	7	40	per	con	mod	mod	mod	nt	cr	nh/0821_nh.bmp
213.12	0.72	287	2	6	46	mem	lib	mod	mod	low	tg	ms	wh/0578.bmp
213.84	0.72	288	4	7	21	per	con	low	mod	low	tg	ms	wh/0247.bmp
214.56	0.72	289	3	7	74	mem	con	mod	mod	mod	nt	ht	nh/0735_nh.bmp
215.28	0.72	290	2	5	50	per	lib	mod	mod	mod	tg	ht	wh/0629.bmp
216.00	0.72	291	2	7	98	mem	lib	mod	mod	mod	tg	ht	wh/0888.bmp
216.72	0.72	292	3	5	87	per	con	mod	mod	mod	nt	cr	nh/0239_nh.bmp
217.44	0.72	293	4	6	22	mem	con	mod	mod	low	nt	ht	nh/0820_nh.bmp
218.16	0.72	294	3	8	48	per	lib	mod	mod	mod	nt	cr	nh/0763_nh.bmp
218.88	0.72	295	1	6	4	per	lib	mod	low	mod	tg	ht	wh/0537.bmp
219.60	0.72	296	3	5	127	per	con	low	mod	low	tg	ms	wh/0023.bmp
220.32	0.72	297	3	5	117	per	con	low	mod	low	tg	ms	wh/0678.bmp
221.04	0.72	298	4	5	42	mem	lib	mod	mod	mod	tg	ht	wh/0495.bmp
221.76	0.72	299	1	5	84	per	con	mod	mod	mod	tg	ht	wh/0378.bmp
222.48	0.72	300	3	5	82	per	con	mod	mod	mod	nt	cr	nh/0694_nh.bmp
223.20	0.72	301	1	5	14	mem	con	low	low	mod	nt	ht	nh/0016_nh.bmp
223.92	0.72	302	2	5	47	mem	lib	mod	mod	mod	tg	ht	wh/0715.bmp
224.64	0.72	303	4	5	71	per	lib	low	mod	low	nt	fa	nh/0139_nh.bmp
225.36	0.72	304	1	7	101	mem	lib	mod	mod	mod	tg	ht	wh/0441.bmp
226.08	0.72	305	1	5	73	per	lib	low	mod	low	tg	ht	wh/0111.bmp
226.80	0.72	306	3	8	42	per	lib	mod	mod	mod	tg	ht	wh/0586.bmp
227.52	0.72	307	3	5	57	per	lib	mod	mod	mod	tg	ht	wh/0056.bmp
228.24	0.72	308	3	7	34	per	con	mod	mod	mod	nt	cr	nh/0275_nh.bmp
228.96	0.72	309	4	5	54	per	lib	mod	mod	mod	nt	cr	nh/0971_nh.bmp
229.68	0.72	310	1	7	49	per	lib	mod	low	mod	tg	ht	wh/0347.bmp
230.40	0.72	311	3	7	102	mem	lib	mod	mod	mod	nt	ht	nh/0420_nh.bmp
231.12	0.72	312	1	5	128	per	con	low	mod	low	nt	cr	nh/0892_nh.bmp
231.84	0.72	313	3	6	31	mem	con	mod	mod	low	tg	ht	wh/0241.bmp
232.56	0.72	314	4	5	24	mem	con	mod	mod	mod	nt	ms	nh/0833_nh.bmp
233.28	0.72	315	2	8	20	mem	lib	mod	mod	low	nt	ht	nh/0253_nh.bmp
234.00	0.72	316	5	5	54	per	lib	mod	mod	mod	nt	cr	nh/0971_nh.bmp
234.72	0.72	317	1	5	33	mem	lib	mod	mod	mod	nt	ht	nh/0609_nh.bmp
235.44	0.72	318	2	7	29	per	con	low	mod	low	nt	cr	nh/0143_nh.bmp
236.16	0.72	319	4	5	91	per	con	mod	mod	mod	tg	ht	wh/0020.bmp
236.88	0.72	320	1	7	70	mem	con	mod	mod	mod	tg	ht	wh/0835.bmp
237.60	0.72	321	2	5	114	per	con	low	mod	low	tg	ms	wh/0018.bmp
238.32	0.72	322	3	8	11	mem	con	mod	mod	low	tg	ht	wh/0114.bmp
239.04	0.72	323	4	7	10	per	lib	low	mod	low	tg	ht	wh/0042.bmp
239.76	0.72	324	2	5	84	per	con	mod	mod	mod	tg	ht	wh/0378.bmp
240.48	0.72	325	3	7	66	mem	con	mod	mod	mod	tg	ms	wh/0564.bmp
241.20	0.72	326	2	5	95	per	con	mod	mod	mod	tg	ms	wh/0952.bmp
241.92	0.72	327	3	7	40	per	con	mod	mod	mod	nt	cr	nh/0821_nh.bmp
242.64	0.72	328	1	6	37	mem	lib	mod	mod	low	nt	ht	nh/0793_nh.bmp
243.36	0.72	329	3	5	93	per	con	mod	mod	mod	tg	ht	wh/0717.bmp
244.08	0.72	330	3	5	95	per	con	mod	mod	mod	tg	ms	wh/0952.bmp
244.80	0.72	331	2	7	19	per	con	low	mod	low	tg	ms	wh/0647.bmp
245.52	0.72	332	2	5	122	per	con	low	mod	low	tg	ms	wh/0618.bmp
246.24	0.72	333	2	5	46	mem	lib	mod	mod	mod	tg	ht	wh/0764.bmp
246.96	0.72	334	1	7	56	per	lib	mod	low	mod	nt	fa	nh/0611_nh.bmp
247.68	0.72	335	3	5	114	per	con	low	mod	low	tg	ms	wh/0018.bmp
248.40	0.72	336	3	5	47	mem	lib	mod	mod	mod	tg	ht	wh/0715.bmp
249.12	0.72	337	5	6	23	mem	con	mod	mod	low	tg	ht	wh/1004.bmp
249.84	0.72	338	3	5	74	per	lib	low	mod	low	nt	cr	nh/0780_nh.bmp
250.56	0.72	339	1	7	104	mem	lib	mod	mod	mod	tg	ht	wh/0294.bmp
251.28	0.72	340	4	6	45	mem	lib	mod	mod	low	nt	ht	nh/0118_nh.bmp
252.00	0.72	341	1	5	20	mem	con	mod	mod	mod	tg	ht	wh/0560.bmp
252.72	0.72	342	3	5	50	per	lib	mod	mod	mod	tg	ht	wh/0629.bmp
253.44	0.72	343	3	7	99	mem	lib	mod	mod	mod	tg	ht	wh/0060.bmp
254.16	0.72	344	2	7	28	per	con	low	mod	low	tg	ms	wh/0164.bmp
254.88	0.72	345	3	5	94	per	con	mod	mod	mod	nt	fa	nh/0603_nh.bmp
255.60	0.72	346	3	5	46	mem	lib	mod	mod	mod	tg	ht	wh/0764.bmp
256.32	0.72	347	3	7	28	per	con	low	mod	low	tg	ms	wh/0164.bmp
257.04	0.72	348	1	7	121	mem	con	low	low	mod	tg	ms	wh/0381.bmp
257.76	0.72	349	2	7	101	mem	lib	mod	mod	mod	tg	ht	wh/0441.bmp
258.48	0.72	350	3	8	9	mem	con	mod	mod	low	nt	ms	nh/0394_nh.bmp
259.20	0.72	351	3	7	5	per	lib	low	mod	low	tg	ht	wh/0939.bmp
259.92	0.72	352	4	5	114	per	con	low	mod	low	tg	ms	wh/0018.bmp
260.64	0.72	353	1	6	101	per	con	mod	low	mod	tg	ht	wh/0869.bmp
261.36	0.72	354	2	8	44	per	lib	mod	mod	mod	tg	ms	wh/0852.bmp
262.08	0.72	355	1	5	35	mem	lib	mod	mod	mod	tg	ht	wh/0851.bmp
262.80	0.72	356	4	8	48	per	lib	mod	mod	mod	nt	cr	nh/0763_nh.bmp
263.52	0.72	357	1	5	21	mem	con	mod	mod	mod	nt	ms	nh/0408_nh.bmp
264.24	0.72	358	4	5	95	per	con	mod	mod	mod	tg	ms	wh/0952.bmp
264.96	0.72	359	3	5	43	mem	lib	mod	mod	mod	nt	ht	nh/0602_nh.bmp
265.68	0.72	360	5	8	24	mem	lib	mod	mod	low	nt	ht	nh/0157_nh.bmp
266.40	0.72	361	3	5	113	per	con	low	mod	low	nt	cr	nh/1019_nh.bmp
267.12	0.72	362	1	8	67	per	lib	low	low	low	nt	fa	nh/0226_nh.bmp
267.84	0.72	363	2	7	41	per	con	mod	mod	mod	tg	ht	wh/0827.bmp
268.56	0.72	364	1	6	54	mem	con	low	low	low	tg	ms	wh/0260.bmp
269.28	0.72	365	2	7	42	per	con	mod	mod	mod	nt	cr	nh/0666_nh.bmp
270.00	0.72	366	1	6	69	per	lib	low	low	low	tg	ht	wh/0175.bmp
270.72	0.72	367	3	7	25	per	con	low	mod	low	tg	ms	wh/0734.bmp
271.44	0.72	368	4	7	28	per	con	low	mod	low	tg	ms	wh/0164.bmp
272.16	0.72	369	2	8	41	per	lib	mod	mod	mod	nt	cr	nh/0544_nh.bmp
272.88	0.72	370	4	7	34	per	con	mod	mod	mod	nt	cr	nh/0275_nh.bmp
273.60	0.72	371	4	5	34	mem	lib	mod	mod	mod	nt	ht	nh/0871_nh.bmp
274.32	0.72	372	1	8	85	per	con	low	low	low	tg	ms	wh/0830.bmp
275.04	0.72	373	3	7	106	mem	lib	mod	mod	mod	nt	ht	nh/0546_nh.bmp
275.76	0.72	374	2	5	17	mem	con	mod	mod	mod	tg	ht	wh/0337.bmp
276.48	0.72	375	4	5	50	per	lib	mod	mod	mod	tg	ht	wh/0629.bmp
277.20	0.72	376	3	7	98	mem	lib	mod	mod	mod	tg	ht	wh/0888.bmp
277.92	0.72	377	3	8	29	mem	lib	mod	mod	low	tg	ht	wh/0519.bmp
278.64	0.72	378	1	8	76	per	lib	low	low	low	tg	ht	wh/0147.bmp
279.36	0.72	379	3	7	19	per	con	low	mod	low	tg	ms	wh/0647.bmp
280.08	0.72	380	3	7	101	mem	lib	mod	mod	mod	tg	ht	wh/0441.bmp
280.80	0.72	381	5	7	10	per	lib	low	mod	low	tg	ht	wh/0042.bmp
281.52	0.72	382	1	5	64	per	lib	mod	mod	mod	nt	cr	nh/0436_nh.bmp
282.24	0.72	383	4	5	82	per	con	mod	mod	mod	nt	cr	nh/0694_nh.bmp
282.96	0.72	384	2	7	39	per	con	mod	mod	mod	tg	ht	wh/0590.bmp
283.68	0.72	385	1	6	95	per	con	low	low	low	tg	ms	wh/0005.bmp
284.40	0.72	386	4	8	17	mem	lib	mod	mod	low	nt	ht	nh/0883_nh.bmp
285.12	0.72	387	4	5	125	per	con	low	mod	low	nt	cr	nh/0170_nh.bmp
285.84	0.72	388	4	5	47	mem	lib	mod	mod	mod	tg	ht	wh/0715.bmp
286.56	0.72	389	3	7	41	per	con	mod	mod	mod	tg	ht	wh/0827.bmp
287.28	0.72	390	3	8	20	mem	lib	mod	mod	low	nt	ht	nh/0253_nh.bmp
288.00	0.72	391	3	7	67	mem	con	mod	mod	mod	tg	ms	wh/0086.bmp
288.72	0.72	392	4	7	19	per	con	low	mod	low	tg	ms	wh/0647.bmp
289.44	0.72	393	3	6	18	mem	con	mod	mod	low	tg	ht	wh/0574.bmp
290.16	0.72	394	2	7	70	mem	con	mod	mod	mod	tg	ht	wh/0835.bmp
290.88	0.72	395	2	5	22	mem	con	mod	mod	mod	tg	ms	wh/0623.bmp
291.60	0.72	396	5	6	25	mem	con	mod	mod	low	nt	ht	nh/0582_nh.bmp
292.32	0.72	397	2	6	41	mem	lib	mod	mod	low	tg	ht	wh/0165.bmp
293.04	0.72	398	3	7	42	per	con	mod	mod	mod	nt	cr	nh/0666_nh.bmp
293.76	0.72	399	2	5	33	mem	lib	mod	mod	mod	nt	ht	nh/0609_nh.bmp
294.48	0.72	400	3	5	65	per	lib	low	mod	low	tg	ht	wh/0064.bmp
295.20	0.72	401	2	5	21	mem	con	mod	mod	mod	nt	ms	nh/0408_nh.bmp
295.92	0.72	402	4	7	98	mem	lib	mod	mod	mod	tg	ht	wh/0888.bmp
296.64	0.72	403	6	6	25	mem	con	mod	mod	low	nt	ht	nh/0582_nh.bmp
297.36	0.72	404	4	6	34	mem	lib	mod	mod	low	nt	ht	nh/0403_nh.bmp
298.08	0.72	405	1	6	98	per	con	mod	low	mod	tg	ms	wh/0779.bmp
298.80	0.72	406	1	7	125	mem	con	low	low	mod	nt	ht	nh/0305_nh.bmp
299.52	0.72	407	4	5	51	per	lib	mod	mod	mod	tg	ht	wh/0179.bmp
300.24	0.72	408	4	7	5	per	lib	low	mod	low	tg	ht	wh/0939.bmp
300.96	0.72	409	5	5	47	mem	lib	mod	mod	mod	tg	ht	wh/0715.bmp
301.68	0.72	410	1	7	38	per	con	mod	mod	mod	tg	ht	wh/0915.bmp
302.40	0.72	411	4	5	74	per	lib	low	mod	low	nt	cr	nh/0780_nh.bmp
303.12	0.72	412	5	8	6	mem	con	mod	mod	low	tg	ms	wh/0248.bmp
303.84	0.72	413	3	8	13	mem	con	mod	mod	low	nt	ht	nh/0756_nh.bmp
304.56	0.72	414	4	5	46	mem	lib	mod	mod	mod	tg	ht	wh/0764.bmp
305.28	0.72	415	5	7	16	per	lib	low	mod	low	tg	ht	wh/0848.bmp
306.00	0.72	416	3	5	69	per	lib	low	mod	low	nt	fa	nh/0012_nh.bmp
306.72	0.72	417	3	5	84	per	con	mod	mod	mod	tg	ht	wh/0378.bmp
307.44	0.72	418	3	5	33	mem	lib	mod	mod	mod	nt	ht	nh/0609_nh.bmp
308.16	0.72	419	4	8	13	mem	con	mod	mod	low	nt	ht	nh/0756_nh.bmp
308.88	0.72	420	5	7	98	mem	lib	mod	mod	mod	tg	ht	wh/0888.bmp
309.60	0.72	421	4	5	113	per	con	low	mod	low	nt	cr	nh/1019_nh.bmp
310.32	0.72	422	3	5	122	per	con	low	mod	low	tg	ms	wh/0618.bmp
311.04	0.72	423	1	5	8	mem	con	low	low	mod	nt	ms	nh/0837_nh.bmp
311.76	0.72	424	5	5	42	mem	lib	mod	mod	mod	tg	ht	wh/0495.bmp
312.48	0.72	425	5	7	34	per	con	mod	mod	mod	nt	cr	nh/0275_nh.bmp
313.20	0.72	426	1	7	81	mem	lib	low	low	low	tg	ht	wh/0657.bmp
313.92	0.72	427	1	6	65	per	lib	low	low	low	nt	fa	nh/0842_nh.bmp
314.64	0.72	428	2	5	41	mem	lib	mod	mod	mod	nt	ht	nh/0269_nh.bmp
315.36	0.72	429	2	8	22	mem	lib	mod	mod	low	tg	ht	wh/0863.bmp
316.08	0.72	430	2	5	64	per	lib	mod	mod	mod	nt	cr	nh/0436_nh.bmp
316.80	0.72	431	5	8	48	per	lib	mod	mod	mod	nt	cr	nh/0763_nh.bmp
317.52	0.72	432	4	8	29	mem	lib	mod	mod	low	tg	ht	wh/0519.bmp
318.24	0.72	433	4	8	20	mem	lib	mod	mod	low	nt	ht	nh/0253_nh.bmp
318.96	0.72	434	5	7	28	per	con	low	mod	low	tg	ms	wh/0164.bmp
319.68	0.72	435	3	6	46	mem	lib	mod	mod	low	tg	ms	wh/0578.bmp
320.40	0.72	436	4	7	40	per	con	mod	mod	mod	nt	cr	nh/0821_nh.bmp
321.12	0.72	437	4	8	7	mem	con	mod	mod	low	nt	ht	nh/0401_nh.bmp
321.84	0.72	438	3	5	41	mem	lib	mod	mod	mod	nt	ht	nh/0269_nh.bmp
322.56	0.72	439	1	8	70	per	lib	low	low	low	tg	ht	wh/0587.bmp
323.28	0.72	440	4	5	41	mem	lib	mod	mod	mod	nt	ht	nh/0269_nh.bmp
324.00	0.72	441	5	8	13	mem	con	mod	mod	low	nt	ht	nh/0756_nh.bmp
324.72	0.72	442	1	5	99	mem	lib	low	low	low	nt	ht	nh/0244_nh.bmp
325.44	0.72	443	4	5	93	per	con	mod	mod	mod	tg	ht	wh/0717.bmp
326.16	0.72	444	5	7	40	per	con	mod	mod	mod	nt	cr	nh/0821_nh.bmp
326.88	0.72	445	5	5	113	per	con	low	mod	low	nt	cr	nh/1019_nh.bmp
327.60	0.72	446	2	5	20	mem	con	mod	mod	mod	tg	ht	wh/0560.bmp
328.32	0.72	447	4	5	117	per	con	low	mod	low	tg	ms	wh/0678.bmp
329.04	0.72	448	2	7	108	mem	lib	mod	mod	mod	nt	ht	nh/0958_nh.bmp
329.76	0.72	449	5	5	28	mem	con	mod	mod	mod	nt	ms	nh/0797_nh.bmp
330.48	0.72	450	3	7	13	per	lib	low	mod	low	nt	fa	nh/0172_nh.bmp
331.20	0.72	451	5	5	41	mem	lib	mod	mod	mod	nt	ht	nh/0269_nh.bmp
331.92	0.72	452	3	8	18	mem	lib	mod	mod	low	tg	ht	wh/0612.bmp
332.64	0.72	453	3	6	41	mem	lib	mod	mod	low	tg	ht	wh/0165.bmp
333.36	0.72	454	1	7	117	mem	con	low	low	mod	nt	ms	nh/0221_nh.bmp
334.08	0.72	455	5	7	65	mem	con	mod	mod	mod	tg	ht	wh/0318.bmp
334.80	0.72	456	2	8	15	mem	con	mod	mod	low	tg	ht	wh/0176.bmp
335.52	0.72	457	5	8	20	mem	lib	mod	mod	low	nt	ht	nh/0253_nh.bmp
336.24	0.72	458	5	5	46	mem	lib	mod	mod	mod	tg	ht	wh/0764.bmp
336.96	0.72	459	3	7	29	per	con	low	mod	low	nt	cr	nh/0143_nh.bmp
337.68	0.72	460	5	5	117	per	con	low	mod	low	tg	ms	wh/0678.bmp
338.40	0.72	461	1	8	118	per	con	mod	low	mod	tg	ms	wh/0945.bmp
339.12	0.72	462	4	7	74	mem	con	mod	mod	mod	nt	ht	nh/0735_nh.bmp
339.84	0.72	463	2	8	32	mem	lib	mod	mod	low	nt	ht	nh/0297_nh.bmp
340.56	0.72	464	4	6	41	mem	lib	mod	mod	low	tg	ht	wh/0165.bmp
341.28	0.72	465	2	5	73	per	lib	low	mod	low	tg	ht	wh/0111.bmp
342.00	0.72	466	4	7	45	per	con	mod	mod	mod	nt	cr	nh/0638_nh.bmp
342.72	0.72	467	3	8	5	mem	con	mod	mod	low	nt	ms	nh/0453_nh.bmp
343.44	0.72	468	3	5	29	mem	con	mod	mod	mod	tg	ms	wh/0995.bmp
344.16	0.72	469	2	5	35	mem	lib	mod	mod	mod	tg	ht	wh/0851.bmp
344.88	0.72	470	1	8	124	per	con	mod	low	mod	tg	ht	wh/0373.bmp
345.60	0.72	471	5	8	7	mem	con	mod	mod	low	nt	ht	nh/0401_nh.bmp
346.32	0.72	472	2	7	7	per	lib	low	mod	low	tg	ht	wh/0255.bmp
347.04	0.72	473	1	8	95	per	con	low	low	low	tg	ms	wh/0198.bmp
347.76	0.72	474	1	7	48	per	con	mod	mod	mod	tg	ht	wh/0968.bmp
348.48	0.72	475	2	5	77	per	lib	low	mod	low	tg	ms	wh/0640.bmp
349.20	0.72	476	4	6	31	mem	con	mod	mod	low	tg	ht	wh/0241.bmp
349.92	0.72	477	4	8	9	mem	con	mod	mod	low	nt	ms	nh/0394_nh.bmp
350.64	0.72	478	4	7	41	per	con	mod	mod	mod	tg	ht	wh/0827.bmp
351.36	0.72	479	5	7	19	per	con	low	mod	low	tg	ms	wh/0647.bmp
352.08	0.72	480	5	5	80	per	lib	low	mod	low	tg	ht	wh/1014.bmp
352.80	0.72	481	3	5	21	mem	con	mod	mod	mod	nt	ms	nh/0408_nh.bmp
353.52	0.72	482	5	5	55	per	lib	mod	mod	mod	nt	cr	nh/0822_nh.bmp
354.24	0.72	483	3	8	16	mem	con	mod	mod	low	tg	ht	wh/0814.bmp
354.96	0.72	484	6	8	48	per	lib	mod	mod	mod	nt	cr	nh/0763_nh.bmp
355.68	0.72	485	5	6	22	mem	con	mod	mod	low	nt	ht	nh/0820_nh.bmp
356.40	0.72	486	2	7	6	per	lib	low	mod	low	nt	fa	nh/0388_nh.bmp
357.12	0.72	487	5	6	41	mem	lib	mod	mod	low	tg	ht	wh/0165.bmp
357.84	0.72	488	3	7	7	per	lib	low	mod	low	tg	ht	wh/0255.bmp
358.56	0.72	489	4	7	7	per	lib	low	mod	low	tg	ht	wh/0255.bmp
359.28	0.72	490	6	5	54	per	lib	mod	mod	mod	nt	cr	nh/0971_nh.bmp
360.00	0.72	491	4	5	29	mem	con	mod	mod	mod	tg	ms	wh/0995.bmp
360.72	0.72	492	5	6	31	mem	con	mod	mod	low	tg	ht	wh/0241.bmp
361.44	0.72	493	2	7	104	mem	lib	mod	mod	mod	tg	ht	wh/0294.bmp
362.16	0.72	494	3	7	6	per	lib	low	mod	low	nt	fa	nh/0388_nh.bmp
362.88	0.72	495	4	8	42	per	lib	mod	mod	mod	tg	ht	wh/0586.bmp
363.60	0.72	496	4	7	102	mem	lib	mod	mod	mod	nt	ht	nh/0420_nh.bmp
364.32	0.72	497	1	6	100	per	con	mod	low	mod	nt	cr	nh/0418_nh.bmp
365.04	0.72	498	4	7	67	mem	con	mod	mod	mod	tg	ms	wh/0086.bmp
365.76	0.72	499	2	8	46	per	lib	mod	mod	mod	nt	fa	nh/0978_nh.bmp
366.48	0.72	500	5	8	42	per	lib	mod	mod	mod	tg	ht	wh/0586.bmp
367.20	0.72	501	4	5	122	per	con	low	mod	low	tg	ms	wh/0618.bmp
367.92	0.72	502	3	7	108	mem	lib	mod	mod	mod	nt	ht	nh/0958_nh.bmp
368.64	0.72	503	4	5	32	mem	con	mod	mod	mod	nt	ms	nh/0599_nh.bmp
369.36	0.72	504	5	5	51	per	lib	mod	mod	mod	tg	ht	wh/0179.bmp
370.08	0.72	505	4	8	45	per	lib	mod	mod	mod	nt	cr	nh/0552_nh.bmp
370.80	0.72	506	2	6	28	mem	con	mod	mod	low	tg	ht	wh/0875.bmp
371.52	0.72	507	6	5	28	mem	con	mod	mod	mod	nt	ms	nh/0797_nh.bmp
372.24	0.72	508	4	7	101	mem	lib	mod	mod	mod	tg	ht	wh/0441.bmp
372.96	0.72	509	1	7	87	mem	lib	low	low	low	nt	ht	nh/0106_nh.bmp
373.68	0.72	510	2	7	48	per	con	mod	mod	mod	tg	ht	wh/0968.bmp
374.40	0.72	511	4	8	11	mem	con	mod	mod	low	tg	ht	wh/0114.bmp
375.12	0.72	512	5	5	91	per	con	mod	mod	mod	tg	ht	wh/0020.bmp
375.84	0.72	513	4	7	13	per	lib	low	mod	low	nt	fa	nh/0172_nh.bmp
376.56	0.72	514	4	7	42	per	con	mod	mod	mod	nt	cr	nh/0666_nh.bmp
377.28	0.72	515	3	7	70	mem	con	mod	mod	mod	tg	ht	wh/0835.bmp
378.00	0.72	516	4	5	124	per	con	low	mod	low	nt	cr	nh/0986_nh.bmp
378.72	0.72	517	5	7	21	per	con	low	mod	low	tg	ms	wh/0247.bmp
379.44	0.72	518	5	7	5	per	lib	low	mod	low	tg	ht	wh/0939.bmp
380.16	0.72	519	1	7	88	mem	lib	low	low	low	tg	ht	wh/0043.bmp
380.88	0.72	520	4	8	33	per	lib	mod	mod	mod	tg	ht	wh/0832.bmp
381.60	0.72	521	3	7	104	mem	lib	mod	mod	mod	tg	ht	wh/0294.bmp
382.32	0.72	522	6	5	80	per	lib	low	mod	low	tg	ht	wh/1014.bmp
383.04	0.72	523	4	7	104	mem	lib	mod	mod	mod	tg	ht	wh/0294.bmp
383.76	0.72	524	5	5	50	per	lib	mod	mod	mod	tg	ht	wh/0629.bmp
384.48	0.72	525	4	8	16	mem	con	mod	mod	low	tg	ht	wh/0814.bmp
385.20	0.72	526	3	8	46	per	lib	mod	mod	mod	nt	fa	nh/0978_nh.bmp
385.92	0.72	527	5	8	17	mem	lib	mod	mod	low	nt	ht	nh/0883_nh.bmp
386.64	0.72	528	5	7	74	mem	con	mod	mod	mod	nt	ht	nh/0735_nh.bmp
387.36	0.72	529	6	6	23	mem	con	mod	mod	low	tg	ht	wh/1004.bmp
388.08	0.72	530	1	8	84	per	con	low	low	low	nt	cr	nh/0990_nh.bmp
388.80	0.72	531	5	5	74	per	lib	low	mod	low	nt	cr	nh/0780_nh.bmp
389.52	0.72	532	1	6	63	mem	con	low	low	low	nt	ms	nh/0376_nh.bmp
390.24	0.72	533	3	5	35	mem	lib	mod	mod	mod	tg	ht	wh/0851.bmp
390.96	0.72	534	4	5	21	mem	con	mod	mod	mod	nt	ms	nh/0408_nh.bmp
391.68	0.72	535	1	8	91	per	con	low	low	low	nt	cr	nh/0516_nh.bmp
392.40	0.72	536	4	5	65	per	lib	low	mod	low	tg	ht	wh/0064.bmp
393.12	0.72	537	4	5	57	per	lib	mod	mod	mod	tg	ht	wh/0056.bmp
393.84	0.72	538	1	7	59	per	lib	mod	low	mod	tg	ht	wh/0921.bmp
394.56	0.72	539	5	5	88	per	con	mod	mod	mod	nt	cr	nh/0556_nh.bmp
395.28	0.72	540	4	8	5	mem	con	mod	mod	low	nt	ms	nh/0453_nh.bmp
396.00	0.72	541	1	6	6	per	lib	mod	low	mod	tg	ht	wh/0234.bmp
396.72	0.72	542	3	6	38	mem	lib	mod	mod	low	nt	ht	nh/0746_nh.bmp
397.44	0.72	543	1	7	90	mem	lib	low	low	low	nt	ms	nh/0728_nh.bmp
398.16	0.72	544	5	5	34	mem	lib	mod	mod	mod	nt	ht	nh/0871_nh.bmp
398.88	0.72	545	4	5	43	mem	lib	mod	mod	mod	nt	ht	nh/0602_nh.bmp
399.60	0.72	546	1	8	89	per	con	low	low	low	tg	ms	wh/0041.bmp
400.32	0.72	547	2	6	37	mem	lib	mod	mod	low	nt	ht	nh/0793_nh.bmp
401.04	0.72	548	3	5	64	per	lib	mod	mod	mod	nt	cr	nh/0436_nh.bmp
401.76	0.72	549	2	7	27	per	con	low	mod	low	nt	cr	nh/0108_nh.bmp
402.48	0.72	550	6	7	19	per	con	low	mod	low	tg	ms	wh/0647.bmp
403.20	0.72	551	3	7	27	per	con	low	mod	low	nt	cr	nh/0108_nh.bmp
403.92	0.72	552	6	7	16	per	lib	low	mod	low	tg	ht	wh/0848.bmp
404.64	0.72	553	6	5	47	mem	lib	mod	mod	mod	tg	ht	wh/0715.bmp
405.36	0.72	554	4	7	66	mem	con	mod	mod	mod	tg	ms	wh/0564.bmp
406.08	0.72	555	1	7	94	mem	lib	low	low	low	tg	ht	wh/0034.bmp
406.80	0.72	556	6	5	113	per	con	low	mod	low	nt	cr	nh/1019_nh.bmp
407.52	0.72	557	4	5	69	per	lib	low	mod	low	nt	fa	nh/0012_nh.bmp
408.24	0.72	558	1	8	74	per	lib	low	low	low	nt	cr	nh/0058_nh.bmp
408.96	0.72	559	4	5	33	mem	lib	mod	mod	mod	nt	ht	nh/0609_nh.bmp
409.68	0.72	560	6	6	41	mem	lib	mod	mod	low	tg	ht	wh/0165.bmp
410.40	0.72	561	2	7	38	per	con	mod	mod	mod	tg	ht	wh/0915.bmp
411.12	0.72	562	2	7	69	mem	con	mod	mod	mod	nt	ms	nh/0778_nh.bmp
411.84	0.72	563	3	8	44	per	lib	mod	mod	mod	tg	ms	wh/0852.bmp
412.56	0.72	564	4	7	6	per	lib	low	mod	low	nt	fa	nh/0388_nh.bmp
413.28	0.72	565	4	7	70	mem	con	mod	mod	mod	tg	ht	wh/0835.bmp
414.00	0.72	566	4	5	94	per	con	mod	mod	mod	nt	fa	nh/0603_nh.bmp
414.72	0.72	567	3	8	32	mem	lib	mod	mod	low	nt	ht	nh/0297_nh.bmp
415.44	0.72	568	6	7	28	per	con	low	mod	low	tg	ms	wh/0164.bmp
416.16	0.72	569	3	6	28	mem	con	mod	mod	low	tg	ht	wh/0875.bmp
416.88	0.72	570	3	8	41	per	lib	mod	mod	mod	nt	cr	nh/0544_nh.bmp
417.60	0.72	571	1	6	110	per	con	mod	low	mod	tg	ht	wh/0953.bmp
418.32	0.72	572	5	6	27	mem	con	mod	mod	low	nt	ms	nh/0491_nh.bmp
419.04	0.72	573	1	6	70	per	lib	low	low	low	tg	ht	wh/0677.bmp
419.76	0.72	574	3	5	77	per	lib	low	mod	low	tg	ms	wh/0640.bmp
420.48	0.72	575	5	7	66	mem	con	mod	mod	mod	tg	ms	wh/0564.bmp
421.20	0.72	576	5	7	42	per	con	mod	mod	mod	nt	cr	nh/0666_nh.bmp
421.92	0.72	577	2	7	14	per	lib	low	mod	low	nt	cr	nh/0450_nh.bmp
422.64	0.72	578	4	7	99	mem	lib	mod	mod	mod	tg	ht	wh/0060.bmp
423.36	0.72	579	5	5	71	per	lib	low	mod	low	nt	fa	nh/0139_nh.bmp
424.08	0.72	580	2	5	128	per	con	low	mod	low	nt	cr	nh/0892_nh.bmp
424.80	0.72	581	4	6	46	mem	lib	mod	mod	low	tg	ms	wh/0578.bmp
425.52	0.72	582	3	6	37	mem	lib	mod	mod	low	nt	ht	nh/0793_nh.bmp
426.24	0.72	583	4	8	46	per	lib	mod	mod	mod	nt	fa	nh/0978_nh.bmp
426.96	0.72	584	6	5	88	per	con	mod	mod	mod	nt	cr	nh/0556_nh.bmp
427.68	0.72	585	4	8	32	mem	lib	mod	mod	low	nt	ht	nh/0297_nh.bmp
428.40	0.72	586	4	6	42	mem	lib	mod	mod	low	tg	ht	wh/0374.bmp
429.12	0.72	587	5	5	82	per	con	mod	mod	mod	nt	cr	nh/0694_nh.bmp
429.84	0.72	588	5	7	104	mem	lib	mod	mod	mod	tg	ht	wh/0294.bmp
430.56	0.72	589	2	8	23	mem	lib	mod	mod	low	tg	ht	wh/0024.bmp
431.28	0.72	590	4	8	44	per	lib	mod	mod	mod	tg	ms	wh/0852.bmp
432.00	0.72	591	4	6	28	mem	con	mod	mod	low	tg	ht	wh/0875.bmp
432.72	0.72	592	3	5	20	mem	con	mod	mod	mod	tg	ht	wh/0560.bmp
433.44	0.72	593	3	7	14	per	lib	low	mod	low	nt	cr	nh/0450_nh.bmp
434.16	0.72	594	1	6	71	per	lib	low	low	low	nt	cr	nh/0676_nh.bmp
434.88	0.72	595	5	7	6	per	lib	low	mod	low	nt	fa	nh/0388_nh.bmp
435.60	0.72	596	3	5	76	per	lib	low	mod	low	nt	fa	nh/0254_nh.bmp
436.32	0.72	597	4	8	41	per	lib	mod	mod	mod	nt	cr	nh/0544_nh.bmp
437.04	0.72	598	3	5	73	per	lib	low	mod	low	tg	ht	wh/0111.bmp
437.76	0.72	599	1	8	104	mem	lib	low	low	mod	tg	ms	wh/0924.bmp
438.48	0.72	600	4	5	64	per	lib	mod	mod	mod	nt	cr	nh/0436_nh.bmp
439.20	0.72	601	4	8	47	per	lib	mod	mod	mod	tg	ht	wh/0300.bmp
439.92	0.72	602	6	7	42	per	con	mod	mod	mod	nt	cr	nh/0666_nh.bmp
440.64	0.72	603	3	5	128	per	con	low	mod	low	nt	cr	nh/0892_nh.bmp
441.36	0.72	604	5	7	45	per	con	mod	mod	mod	nt	cr	nh/0638_nh.bmp
442.08	0.72	605	1	6	77	per	lib	low	low	low	tg	ht	wh/0825.bmp
442.80	0.72	606	1	8	59	mem	con	low	low	low	nt	ht	nh/0482_nh.bmp
443.52	0.72	607	5	5	24	mem	con	mod	mod	mod	nt	ms	nh/0833_nh.bmp
444.24	0.72	608	1	6	67	per	lib	low	low	low	nt	fa	nh/0360_nh.bmp
444.96	0.72	609	5	5	57	per	lib	mod	mod	mod	tg	ht	wh/0056.bmp
445.68	0.72	610	3	8	15	mem	con	mod	mod	low	tg	ht	wh/0176.bmp
446.40	0.72	611	5	5	95	per	con	mod	mod	mod	tg	ms	wh/0952.bmp
447.12	0.72	612	3	7	48	per	con	mod	mod	mod	tg	ht	wh/0968.bmp
447.84	0.72	613	5	7	9	per	lib	low	mod	low	nt	cr	nh/0521_nh.bmp
448.56	0.72	614	6	7	45	per	con	mod	mod	mod	nt	cr	nh/0638_nh.bmp
449.28	0.72	615	5	7	80	mem	con	mod	mod	mod	nt	ht	nh/0399_nh.bmp
450.00	0.72	616	1	8	55	mem	con	low	low	low	nt	ms	nh/0154_nh.bmp
450.72	0.72	617	4	5	128	per	con	low	mod	low	nt	cr	nh/0892_nh.bmp
451.44	0.72	618	5	5	65	per	lib	low	mod	low	tg	ht	wh/0064.bmp
452.16	0.72	619	4	5	127	per	con	low	mod	low	tg	ms	wh/0023.bmp
452.88	0.72	620	3	5	22	mem	con	mod	mod	mod	tg	ms	wh/0623.bmp
453.60	0.72	621	4	5	58	per	lib	mod	mod	mod	nt	cr	nh/0549_nh.bmp
454.32	0.72	622	5	6	28	mem	con	mod	mod	low	tg	ht	wh/0875.bmp
455.04	0.72	623	5	8	9	mem	con	mod	mod	low	nt	ms	nh/0394_nh.bmp
455.76	0.72	624	6	8	6	mem	con	mod	mod	low	tg	ms	wh/0248.bmp
456.48	0.72	625	5	6	34	mem	lib	mod	mod	low	nt	ht	nh/0403_nh.bmp
457.20	0.72	626	3	7	69	mem	con	mod	mod	mod	nt	ms	nh/0778_nh.bmp
457.92	0.72	627	4	6	37	mem	lib	mod	mod	low	nt	ht	nh/0793_nh.bmp
458.64	0.72	628	6	7	80	mem	con	mod	mod	mod	nt	ht	nh/0399_nh.bmp
459.36	0.72	629	1	5	6	mem	con	low	low	mod	tg	ht	wh/0907.bmp
460.08	0.72	630	4	5	76	per	lib	low	mod	low	nt	fa	nh/0254_nh.bmp
460.80	0.72	631	1	6	117	mem	lib	low	low	mod	tg	ht	wh/1008.bmp
461.52	0.72	632	4	5	87	per	con	mod	mod	mod	nt	cr	nh/0239_nh.bmp
462.24	0.72	633	6	7	98	mem	lib	mod	mod	mod	tg	ht	wh/0888.bmp
462.96	0.72	634	6	8	7	mem	con	mod	mod	low	nt	ht	nh/0401_nh.bmp
463.68	0.72	635	5	8	44	per	lib	mod	mod	mod	tg	ms	wh/0852.bmp
464.40	0.72	636	5	5	122	per	con	low	mod	low	tg	ms	wh/0618.bmp
465.12	0.72	637	4	7	69	mem	con	mod	mod	mod	nt	ms	nh/0778_nh.bmp
465.84	0.72	638	3	8	22	mem	lib	mod	mod	low	tg	ht	wh/0863.bmp
466.56	0.72	639	4	7	25	per	con	low	mod	low	tg	ms	wh/0734.bmp
467.28	0.72	640	5	8	33	per	lib	mod	mod	mod	tg	ht	wh/0832.bmp
468.00	0.72	641	5	5	127	per	con	low	mod	low	tg	ms	wh/0023.bmp
468.72	0.72	642	6	8	13	mem	con	mod	mod	low	nt	ht	nh/0756_nh.bmp
469.44	0.72	643	5	5	87	per	con	mod	mod	mod	nt	cr	nh/0239_nh.bmp
470.16	0.72	644	4	7	48	per	con	mod	mod	mod	tg	ht	wh/0968.bmp
470.88	0.72	645	1	7	64	per	lib	mod	low	mod	tg	ht	wh/0227.bmp
471.60	0.72	646	4	5	73	per	lib	low	mod	low	tg	ht	wh/0111.bmp
472.32	0.72	647	5	7	25	per	con	low	mod	low	tg	ms	wh/0734.bmp
473.04	0.72	648	5	8	32	mem	lib	mod	mod	low	nt	ht	nh/0297_nh.bmp
473.76	0.72	649	6	6	27	mem	con	mod	mod	low	nt	ms	nh/0491_nh.bmp
474.48	0.72	650	6	6	34	mem	lib	mod	mod	low	nt	ht	nh/0403_nh.bmp
475.20	0.72	651	4	7	75	mem	con	mod	mod	mod	nt	ht	nh/0385_nh.bmp
475.92	0.72	652	4	6	38	mem	lib	mod	mod	low	nt	ht	nh/0746_nh.bmp
476.64	0.72	653	6	5	71	per	lib	low	mod	low	nt	fa	nh/0139_nh.bmp
477.36	0.72	654	3	8	23	mem	lib	mod	mod	low	tg	ht	wh/0024.bmp
478.08	0.72	655	5	8	45	per	lib	mod	mod	mod	nt	cr	nh/0552_nh.bmp
478.80	0.72	656	3	7	100	mem	lib	mod	mod	mod	nt	ht	nh/0686_nh.bmp
479.52	0.72	657	5	7	70	mem	con	mod	mod	mod	tg	ht	wh/0835.bmp
480.24	0.72	658	5	7	13	per	lib	low	mod	low	nt	fa	nh/0172_nh.bmp
480.96	0.72	659	2	6	39	mem	lib	mod	mod	low	tg	ht	wh/0193.bmp
481.68	0.72	660	1	6	12	per	lib	mod	low	mod	nt	fa	nh/0037_nh.bmp
482.40	0.72	661	6	7	104	mem	lib	mod	mod	mod	tg	ht	wh/0294.bmp
483.12	0.72	662	5	6	42	mem	lib	mod	mod	low	tg	ht	wh/0374.bmp
483.84	0.72	663	3	7	38	per	con	mod	mod	mod	tg	ht	wh/0915.bmp
484.56	0.72	664	6	8	20	mem	lib	mod	mod	low	nt	ht	nh/0253_nh.bmp
485.28	0.72	665	1	8	71	per	lib	low	low	low	nt	fa	nh/0202_nh.bmp
486.00	0.72	666	5	5	125	per	con	low	mod	low	nt	cr	nh/0170_nh.bmp
486.72	0.72	667	5	5	73	per	lib	low	mod	low	tg	ht	wh/0111.bmp
487.44	0.72	668	6	8	9	mem	con	mod	mod	low	nt	ms	nh/0394_nh.bmp
488.16	0.72	669	5	5	76	per	lib	low	mod	low	nt	fa	nh/0254_nh.bmp
488.88	0.72	670	4	7	38	per	con	mod	mod	mod	tg	ht	wh/0915.bmp
489.60	0.72	671	2	5	56	per	lib	mod	mod	mod	tg	ht	wh/0366.bmp
490.32	0.72	672	5	8	47	per	lib	mod	mod	mod	tg	ht	wh/0300.bmp
491.04	0.72	673	3	6	39	mem	lib	mod	mod	low	tg	ht	wh/0193.bmp
491.76	0.72	674	1	8	60	mem	con	low	low	low	tg	ht	wh/0468.bmp
492.48	0.72	675	1	5	109	mem	lib	low	low	low	nt	ht	nh/0045_nh.bmp
493.20	0.72	676	4	5	20	mem	con	mod	mod	mod	tg	ht	wh/0560.bmp
493.92	0.72	677	6	7	6	per	lib	low	mod	low	nt	fa	nh/0388_nh.bmp
494.64	0.72	678	5	7	102	mem	lib	mod	mod	mod	nt	ht	nh/0420_nh.bmp
495.36	0.72	679	1	6	113	mem	lib	low	low	mod	nt	n/a	nh/0559_nh.bmp
496.08	0.72	680	6	5	87	per	con	mod	mod	mod	nt	cr	nh/0239_nh.bmp
496.80	0.72	681	5	5	43	mem	lib	mod	mod	mod	nt	ht	nh/0602_nh.bmp
497.52	0.72	682	3	5	56	per	lib	mod	mod	mod	tg	ht	wh/0366.bmp
498.24	0.72	683	4	5	35	mem	lib	mod	mod	mod	tg	ht	wh/0851.bmp
498.96	0.72	684	1	7	50	per	lib	mod	low	mod	nt	fa	nh/0349_nh.bmp
499.68	0.72	685	5	7	99	mem	lib	mod	mod	mod	tg	ht	wh/0060.bmp
500.40	0.72	686	6	7	21	per	con	low	mod	low	tg	ms	wh/0247.bmp
501.12	0.72	687	1	8	116	per	con	mod	low	mod	nt	cr	nh/0751_nh.bmp
501.84	0.72	688	4	5	84	per	con	mod	mod	mod	tg	ht	wh/0378.bmp
502.56	0.72	689	5	5	64	per	lib	mod	mod	mod	nt	cr	nh/0436_nh.bmp
503.28	0.72	690	5	5	20	mem	con	mod	mod	mod	tg	ht	wh/0560.bmp
504.00	0.72	691	5	7	67	mem	con	mod	mod	mod	tg	ms	wh/0086.bmp
504.72	0.72	692	4	7	20	per	con	low	mod	low	nt	cr	nh/0262_nh.bmp
505.44	0.72	693	4	5	56	per	lib	mod	mod	mod	tg	ht	wh/0366.bmp
506.16	0.72	694	5	5	58	per	lib	mod	mod	mod	nt	cr	nh/0549_nh.bmp
506.88	0.72	695	5	5	56	per	lib	mod	mod	mod	tg	ht	wh/0366.bmp
507.60	0.72	696	5	8	16	mem	con	mod	mod	low	tg	ht	wh/0814.bmp
508.32	0.72	697	6	5	58	per	lib	mod	mod	mod	nt	cr	nh/0549_nh.bmp
509.04	0.72	698	6	7	13	per	lib	low	mod	low	nt	fa	nh/0172_nh.bmp
509.76	0.72	699	5	8	5	mem	con	mod	mod	low	nt	ms	nh/0453_nh.bmp
510.48	0.72	700	4	7	14	per	lib	low	mod	low	nt	cr	nh/0450_nh.bmp
511.20	0.72	701	5	7	23	per	con	low	mod	low	nt	cr	nh/0249_nh.bmp
511.92	0.72	702	6	8	33	per	lib	mod	mod	mod	tg	ht	wh/0832.bmp
512.64	0.72	703	5	5	33	mem	lib	mod	mod	mod	nt	ht	nh/0609_nh.bmp
513.36	0.72	704	5	5	69	per	lib	low	mod	low	nt	fa	nh/0012_nh.bmp
514.08	0.72	705	5	5	93	per	con	mod	mod	mod	tg	ht	wh/0717.bmp
514.80	0.72	706	6	8	47	per	lib	mod	mod	mod	tg	ht	wh/0300.bmp
515.52	0.72	707	1	5	100	mem	lib	low	low	low	tg	ht	wh/0929.bmp
516.24	0.72	708	6	8	17	mem	lib	mod	mod	low	nt	ht	nh/0883_nh.bmp
516.96	0.72	709	4	7	108	mem	lib	mod	mod	mod	nt	ht	nh/0958_nh.bmp
517.68	0.72	710	6	5	73	per	lib	low	mod	low	tg	ht	wh/0111.bmp
518.40	0.72	711	6	5	50	per	lib	mod	mod	mod	tg	ht	wh/0629.bmp
519.12	0.72	712	6	8	24	mem	lib	mod	mod	low	nt	ht	nh/0157_nh.bmp
519.84	0.72	713	3	5	17	mem	con	mod	mod	mod	tg	ht	wh/0337.bmp
520.56	0.72	714	5	5	29	mem	con	mod	mod	mod	tg	ms	wh/0995.bmp
521.28	0.72	715	6	5	55	per	lib	mod	mod	mod	nt	cr	nh/0822_nh.bmp
522.00	0.72	716	6	7	10	per	lib	low	mod	low	tg	ht	wh/0042.bmp
522.72	0.72	717	5	8	29	mem	lib	mod	mod	low	tg	ht	wh/0519.bmp
523.44	0.72	718	5	5	114	per	con	low	mod	low	tg	ms	wh/0018.bmp
524.16	0.72	719	4	6	39	mem	lib	mod	mod	low	tg	ht	wh/0193.bmp
524.88	0.72	720	4	7	100	mem	lib	mod	mod	mod	nt	ht	nh/0686_nh.bmp
525.60	0.72	721	5	6	37	mem	lib	mod	mod	low	nt	ht	nh/0793_nh.bmp
526.32	0.72	722	6	7	66	mem	con	mod	mod	mod	tg	ms	wh/0564.bmp
527.04	0.72	723	1	8	63	mem	con	low	low	low	tg	ht	wh/0865.bmp
527.76	0.72	724	6	5	114	per	con	low	mod	low	tg	ms	wh/0018.bmp
528.48	0.72	725	6	5	56	per	lib	mod	mod	mod	tg	ht	wh/0366.bmp
529.20	0.72	726	5	7	7	per	lib	low	mod	low	tg	ht	wh/0255.bmp
529.92	0.72	727	5	6	38	mem	lib	mod	mod	low	nt	ht	nh/0746_nh.bmp
530.64	0.72	728	6	5	29	mem	con	mod	mod	mod	tg	ms	wh/0995.bmp
531.36	0.72	729	5	5	21	mem	con	mod	mod	mod	nt	ms	nh/0408_nh.bmp
532.08	0.72	730	5	8	46	per	lib	mod	mod	mod	nt	fa	nh/0978_nh.bmp
532.80	0.72	731	1	6	112	per	con	mod	low	mod	tg	ms	wh/0308.bmp
533.52	0.72	732	5	7	100	mem	lib	mod	mod	mod	nt	ht	nh/0686_nh.bmp
534.24	0.72	733	5	5	124	per	con	low	mod	low	nt	cr	nh/0986_nh.bmp
534.96	0.72	734	6	8	45	per	lib	mod	mod	mod	nt	cr	nh/0552_nh.bmp
535.68	0.72	735	3	6	26	mem	con	mod	mod	low	nt	ht	nh/0073_nh.bmp
536.40	0.72	736	6	5	117	per	con	low	mod	low	tg	ms	wh/0678.bmp
537.12	0.72	737	3	7	39	per	con	mod	mod	mod	tg	ht	wh/0590.bmp
537.84	0.72	738	1	8	113	per	con	mod	low	mod	tg	ht	wh/0980.bmp
538.56	0.72	739	4	5	17	mem	con	mod	mod	mod	tg	ht	wh/0337.bmp
539.28	0.72	740	4	8	15	mem	con	mod	mod	low	tg	ht	wh/0176.bmp
540.00	0.72	741	6	5	82	per	con	mod	mod	mod	nt	cr	nh/0694_nh.bmp
540.72	0.72	742	4	5	22	mem	con	mod	mod	mod	tg	ms	wh/0623.bmp
541.44	0.72	743	5	5	128	per	con	low	mod	low	nt	cr	nh/0892_nh.bmp
542.16	0.72	744	6	6	42	mem	lib	mod	mod	low	tg	ht	wh/0374.bmp
542.88	0.72	745	5	7	20	per	con	low	mod	low	nt	cr	nh/0262_nh.bmp
543.60	0.72	746	6	5	24	mem	con	mod	mod	mod	nt	ms	nh/0833_nh.bmp
544.32	0.72	747	1	8	96	per	con	low	low	low	tg	ht	wh/0022.bmp
545.04	0.72	748	6	7	7	per	lib	low	mod	low	tg	ht	wh/0255.bmp
545.76	0.72	749	4	8	23	mem	lib	mod	mod	low	tg	ht	wh/0024.bmp
546.48	0.72	750	6	7	20	per	con	low	mod	low	nt	cr	nh/0262_nh.bmp
547.20	0.72	751	1	7	92	mem	lib	low	low	low	nt	ht	nh/0636_nh.bmp
547.92	0.72	752	6	5	41	mem	lib	mod	mod	mod	nt	ht	nh/0269_nh.bmp
548.64	0.72	753	5	6	46	mem	lib	mod	mod	low	tg	ms	wh/0578.bmp
549.36	0.72	754	5	7	75	mem	con	mod	mod	mod	nt	ht	nh/0385_nh.bmp
550.08	0.72	755	4	7	27	per	con	low	mod	low	nt	cr	nh/0108_nh.bmp
550.80	0.72	756	1	6	87	per	con	low	low	low	tg	ms	wh/0144.bmp
551.52	0.72	757	1	8	108	mem	lib	low	low	mod	tg	ht	wh/0663.bmp
552.24	0.72	758	4	6	26	mem	con	mod	mod	low	nt	ht	nh/0073_nh.bmp
552.96	0.72	759	4	8	18	mem	lib	mod	mod	low	tg	ht	wh/0612.bmp
553.68	0.72	760	5	8	18	mem	lib	mod	mod	low	tg	ht	wh/0612.bmp
554.40	0.72	761	5	7	101	mem	lib	mod	mod	mod	tg	ht	wh/0441.bmp
555.12	0.72	762	6	6	22	mem	con	mod	mod	low	nt	ht	nh/0820_nh.bmp
555.84	0.72	763	6	8	18	mem	lib	mod	mod	low	tg	ht	wh/0612.bmp
556.56	0.72	764	5	8	11	mem	con	mod	mod	low	tg	ht	wh/0114.bmp
557.28	0.72	765	6	7	67	mem	con	mod	mod	mod	tg	ms	wh/0086.bmp
558.00	0.72	766	4	7	106	mem	lib	mod	mod	mod	nt	ht	nh/0546_nh.bmp
558.72	0.72	767	5	8	41	per	lib	mod	mod	mod	nt	cr	nh/0544_nh.bmp
559.44	0.72	768	5	6	45	mem	lib	mod	mod	low	nt	ht	nh/0118_nh.bmp
560.16	0.72	769	4	7	29	per	con	low	mod	low	nt	cr	nh/0143_nh.bmp
560.88	0.72	770	6	6	46	mem	lib	mod	mod	low	tg	ms	wh/0578.bmp
561.60	0.72	771	6	5	65	per	lib	low	mod	low	tg	ht	wh/0064.bmp
562.32	0.72	772	6	6	31	mem	con	mod	mod	low	tg	ht	wh/0241.bmp
563.04	0.72	773	5	8	23	mem	lib	mod	mod	low	tg	ht	wh/0024.bmp
563.76	0.72	774	4	8	22	mem	lib	mod	mod	low	tg	ht	wh/0863.bmp
564.48	0.72	775	6	7	101	mem	lib	mod	mod	mod	tg	ht	wh/0441.bmp
565.20	0.72	776	1	8	105	mem	lib	low	low	mod	tg	ms	wh/0732.bmp
565.92	0.72	777	4	6	18	mem	con	mod	mod	low	tg	ht	wh/0574.bmp
566.64	0.72	778	4	5	77	per	lib	low	mod	low	tg	ms	wh/0640.bmp
567.36	0.72	779	6	7	40	per	con	mod	mod	mod	nt	cr	nh/0821_nh.bmp
568.08	0.72	780	6	7	5	per	lib	low	mod	low	tg	ht	wh/0939.bmp
568.80	0.72	781	1	8	99	mem	lib	low	low	mod	nt	ht	nh/0416_nh.bmp
569.52	0.72	782	5	5	22	mem	con	mod	mod	mod	tg	ms	wh/0623.bmp
570.24	0.72	783	6	5	22	mem	con	mod	mod	mod	tg	ms	wh/0623.bmp
570.96	0.72	784	1	8	120	per	con	mod	low	mod	nt	cr	nh/0622_nh.bmp
571.68	0.72	785	5	7	41	per	con	mod	mod	mod	tg	ht	wh/0827.bmp
572.40	0.72	786	6	6	28	mem	con	mod	mod	low	tg	ht	wh/0875.bmp
573.12	0.72	787	5	5	35	mem	lib	mod	mod	mod	tg	ht	wh/0851.bmp
573.84	0.72	788	5	5	84	per	con	mod	mod	mod	tg	ht	wh/0378.bmp
574.56	0.72	789	5	7	48	per	con	mod	mod	mod	tg	ht	wh/0968.bmp
575.28	0.72	790	1	5	112	mem	lib	low	low	low	tg	ht	wh/0570.bmp
576.00	0.72	791	6	7	9	per	lib	low	mod	low	nt	cr	nh/0521_nh.bmp
576.72	0.72	792	6	5	95	per	con	mod	mod	mod	tg	ms	wh/0952.bmp
577.44	0.72	793	6	5	64	per	lib	mod	mod	mod	nt	cr	nh/0436_nh.bmp
578.16	0.72	794	1	6	52	mem	con	low	low	low	nt	ms	nh/0352_nh.bmp
578.88	0.72	795	1	6	91	per	con	low	low	low	nt	cr	nh/0224_nh.bmp
579.60	0.72	796	5	7	29	per	con	low	mod	low	nt	cr	nh/0143_nh.bmp
580.32	0.72	797	6	5	34	mem	lib	mod	mod	mod	nt	ht	nh/0871_nh.bmp
581.04	0.72	798	6	5	127	per	con	low	mod	low	tg	ms	wh/0023.bmp
581.76	0.72	799	5	7	14	per	lib	low	mod	low	nt	cr	nh/0450_nh.bmp
582.48	0.72	800	5	7	106	mem	lib	mod	mod	mod	nt	ht	nh/0546_nh.bmp
583.20	0.72	801	6	6	38	mem	lib	mod	mod	low	nt	ht	nh/0746_nh.bmp
583.92	0.72	802	5	5	94	per	con	mod	mod	mod	nt	fa	nh/0603_nh.bmp
584.64	0.72	803	1	6	13	per	lib	mod	low	mod	nt	cr	nh/0475_nh.bmp
585.36	0.72	804	5	6	18	mem	con	mod	mod	low	tg	ht	wh/0574.bmp
586.08	0.72	805	6	7	99	mem	lib	mod	mod	mod	tg	ht	wh/0060.bmp
586.80	0.72	806	5	7	108	mem	lib	mod	mod	mod	nt	ht	nh/0958_nh.bmp
587.52	0.72	807	5	7	38	per	con	mod	mod	mod	tg	ht	wh/0915.bmp
588.24	0.72	808	1	6	92	per	con	low	low	low	nt	cr	nh/0770_nh.bmp
588.96	0.72	809	6	7	25	per	con	low	mod	low	tg	ms	wh/0734.bmp
589.68	0.72	810	6	5	35	mem	lib	mod	mod	mod	tg	ht	wh/0851.bmp
590.40	0.72	811	1	6	2	per	lib	mod	low	mod	nt	fa	nh/0334_nh.bmp
591.12	0.72	812	1	8	102	mem	lib	low	low	mod	nt	ht	nh/0091_nh.bmp
591.84	0.72	813	6	7	74	mem	con	mod	mod	mod	nt	ht	nh/0735_nh.bmp
592.56	0.72	814	1	5	12	mem	con	low	low	mod	nt	ht	nh/0207_nh.bmp
593.28	0.72	815	5	5	17	mem	con	mod	mod	mod	tg	ht	wh/0337.bmp
594.00	0.72	816	6	5	91	per	con	mod	mod	mod	tg	ht	wh/0020.bmp
594.72	0.72	817	6	5	21	mem	con	mod	mod	mod	nt	ms	nh/0408_nh.bmp
595.44	0.72	818	1	8	65	per	lib	low	low	low	tg	ms	wh/0506.bmp
596.16	0.72	819	6	7	38	per	con	mod	mod	mod	tg	ht	wh/0915.bmp
596.88	0.72	820	6	5	33	mem	lib	mod	mod	mod	nt	ht	nh/0609_nh.bmp
597.60	0.72	821	5	6	26	mem	con	mod	mod	low	nt	ht	nh/0073_nh.bmp
598.32	0.72	822	6	5	42	mem	lib	mod	mod	mod	tg	ht	wh/0495.bmp
599.04	0.72	823	6	5	69	per	lib	low	mod	low	nt	fa	nh/0012_nh.bmp
599.76	0.72	824	5	5	77	per	lib	low	mod	low	tg	ms	wh/0640.bmp
600.48	0.72	825	1	7	118	mem	con	low	low	mod	nt	ht	nh/0867_nh.bmp
601.20	0.72	826	6	7	102	mem	lib	mod	mod	mod	nt	ht	nh/0420_nh.bmp
601.92	0.72	827	6	5	94	per	con	mod	mod	mod	nt	fa	nh/0603_nh.bmp
602.64	0.72	828	1	6	56	mem	con	low	low	low	nt	ht	nh/0480_nh.bmp
603.36	0.72	829	1	6	15	per	lib	mod	low	mod	nt	cr	nh/1005_nh.bmp
604.08	0.72	830	5	7	27	per	con	low	mod	low	nt	cr	nh/0108_nh.bmp
604.80	0.72	831	5	7	69	mem	con	mod	mod	mod	nt	ms	nh/0778_nh.bmp
605.52	0.72	832	6	5	43	mem	lib	mod	mod	mod	nt	ht	nh/0602_nh.bmp
606.24	0.72	833	4	7	39	per	con	mod	mod	mod	tg	ht	wh/0590.bmp
606.96	0.72	834	6	8	44	per	lib	mod	mod	mod	tg	ms	wh/0852.bmp
607.68	0.72	835	6	8	32	mem	lib	mod	mod	low	nt	ht	nh/0297_nh.bmp
608.40	0.72	836	6	5	128	per	con	low	mod	low	nt	cr	nh/0892_nh.bmp
609.12	0.72	837	5	8	15	mem	con	mod	mod	low	tg	ht	wh/0176.bmp
609.84	0.72	838	6	7	23	per	con	low	mod	low	nt	cr	nh/0249_nh.bmp
610.56	0.72	839	6	5	57	per	lib	mod	mod	mod	tg	ht	wh/0056.bmp
611.28	0.72	840	1	7	114	mem	con	low	low	mod	tg	ms	wh/1002.bmp
612.00	0.72	841	6	5	84	per	con	mod	mod	mod	tg	ht	wh/0378.bmp
612.72	0.72	842	1	8	128	per	con	mod	low	mod	tg	ht	wh/0688.bmp
613.44	0.72	843	6	7	27	per	con	low	mod	low	nt	cr	nh/0108_nh.bmp
614.16	0.72	844	6	6	37	mem	lib	mod	mod	low	nt	ht	nh/0793_nh.bmp
614.88	0.72	845	6	8	15	mem	con	mod	mod	low	tg	ht	wh/0176.bmp
615.60	0.72	846	6	5	17	mem	con	mod	mod	mod	tg	ht	wh/0337.bmp
616.32	0.72	847	6	7	34	per	con	mod	mod	mod	nt	cr	nh/0275_nh.bmp
617.04	0.72	848	6	5	122	per	con	low	mod	low	tg	ms	wh/0618.bmp
617.76	0.72	849	6	8	5	mem	con	mod	mod	low	nt	ms	nh/0453_nh.bmp
618.48	0.72	850	6	6	18	mem	con	mod	mod	low	tg	ht	wh/0574.bmp
619.20	0.72	851	6	5	74	per	lib	low	mod	low	nt	cr	nh/0780_nh.bmp
619.92	0.72	852	6	7	106	mem	lib	mod	mod	mod	nt	ht	nh/0546_nh.bmp
620.64	0.72	853	6	8	42	per	lib	mod	mod	mod	tg	ht	wh/0586.bmp
621.36	0.72	854	6	7	14	per	lib	low	mod	low	nt	cr	nh/0450_nh.bmp
622.08	0.72	855	1	8	69	per	lib	low	low	low	nt	cr	nh/1011_nh.bmp
622.80	0.72	856	5	5	32	mem	con	mod	mod	mod	nt	ms	nh/0599_nh.bmp
623.52	0.72	857	6	7	100	mem	lib	mod	mod	mod	nt	ht	nh/0686_nh.bmp
624.24	0.72	858	1	6	85	per	con	low	low	low	nt	cr	nh/0240_nh.bmp
624.96	0.72	859	6	8	29	mem	lib	mod	mod	low	tg	ht	wh/0519.bmp
625.68	0.72	860	6	5	77	per	lib	low	mod	low	tg	ms	wh/0640.bmp
626.40	0.72	861	6	8	23	mem	lib	mod	mod	low	tg	ht	wh/0024.bmp
627.12	0.72	862	1	8	127	per	con	mod	low	mod	nt	cr	nh/1016_nh.bmp
627.84	0.72	863	6	8	11	mem	con	mod	mod	low	tg	ht	wh/0114.bmp
628.56	0.72	864	6	5	93	per	con	mod	mod	mod	tg	ht	wh/0717.bmp
629.28	0.72	865	6	7	70	mem	con	mod	mod	mod	tg	ht	wh/0835.bmp
630.00	0.72	866	5	6	39	mem	lib	mod	mod	low	tg	ht	wh/0193.bmp
630.72	0.72	867	6	6	39	mem	lib	mod	mod	low	tg	ht	wh/0193.bmp
631.44	0.72	868	6	7	108	mem	lib	mod	mod	mod	nt	ht	nh/0958_nh.bmp
632.16	0.72	869	6	5	124	per	con	low	mod	low	nt	cr	nh/0986_nh.bmp
632.88	0.72	870	1	6	125	mem	lib	low	low	mod	nt	ht	nh/0631_nh.bmp
633.60	0.72	871	6	7	41	per	con	mod	mod	mod	tg	ht	wh/0827.bmp
634.32	0.72	872	6	8	46	per	lib	mod	mod	mod	nt	fa	nh/0978_nh.bmp
635.04	0.72	873	6	7	65	mem	con	mod	mod	mod	tg	ht	wh/0318.bmp
635.76	0.72	874	6	8	41	per	lib	mod	mod	mod	nt	cr	nh/0544_nh.bmp
636.48	0.72	875	6	7	29	per	con	low	mod	low	nt	cr	nh/0143_nh.bmp
637.20	0.72	876	1	6	72	per	lib	low	low	low	tg	ht	wh/0138.bmp
637.92	0.72	877	6	5	46	mem	lib	mod	mod	mod	tg	ht	wh/0764.bmp
638.64	0.72	878	6	5	20	mem	con	mod	mod	mod	tg	ht	wh/0560.bmp
639.36	0.72	879	5	8	22	mem	lib	mod	mod	low	tg	ht	wh/0863.bmp
640.08	0.72	880	6	5	76	per	lib	low	mod	low	nt	fa	nh/0254_nh.bmp
640.80	0.72	881	6	5	125	per	con	low	mod	low	nt	cr	nh/0170_nh.bmp
641.52	0.72	882	1	5	7	mem	con	low	low	mod	tg	ht	wh/0749.bmp
642.24	0.72	883	1	7	126	mem	con	low	low	mod	tg	ht	wh/0395.bmp
642.96	0.72	884	5	7	39	per	con	mod	mod	mod	tg	ht	wh/0590.bmp
643.68	0.72	885	6	6	45	mem	lib	mod	mod	low	nt	ht	nh/0118_nh.bmp
644.40	0.72	886	6	8	22	mem	lib	mod	mod	low	tg	ht	wh/0863.bmp
645.12	0.72	887	6	7	48	per	con	mod	mod	mod	tg	ht	wh/0968.bmp
645.84	0.72	888	6	5	32	mem	con	mod	mod	mod	nt	ms	nh/0599_nh.bmp
646.56	0.72	889	6	7	69	mem	con	mod	mod	mod	nt	ms	nh/0778_nh.bmp
647.28	0.72	890	1	6	103	per	con	mod	low	mod	nt	cr	nh/0093_nh.bmp
648.00	0.72	891	6	7	39	per	con	mod	mod	mod	tg	ht	wh/0590.bmp
648.72	0.72	892	6	8	16	mem	con	mod	mod	low	tg	ht	wh/0814.bmp
649.44	0.72	893	1	6	57	mem	con	low	low	low	tg	ht	wh/0135.bmp
650.16	0.72	894	6	6	26	mem	con	mod	mod	low	nt	ht	nh/0073_nh.bmp
650.88	0.72	895	6	5	51	per	lib	mod	mod	mod	tg	ht	wh/0179.bmp
651.60	0.72	896	6	7	75	mem	con	mod	mod	mod	nt	ht	nh/0385_nh.bmp
