onset	duration	block	trial	task	crit	disc	mem_disc	per_disc	trial_type	mem_type	per_type	left_option	resp_hand	response	accuracy	response_time	stim_file	pay	pay_tot
7.2	7.2	1	n/a	per	lib	mod	n/a	n/a	instructions	n/a	n/a	n/a	n/a	n/a	n/a	n/a	n/a	n/a	n/a
14.72	1.7519	1	1	per	lib	mod	low	mod	nt	nt	nt	nt	right	tg	fa	1.3519	nh/0992_nh.bmp	0	16.75
18.32	1.0539	1	2	per	lib	mod	low	mod	nt	tg	nt	nt	right	tg	fa	0.6539	nh/0334_nh.bmp	0	16.75
21.2	0.95328	1	3	per	lib	mod	low	mod	tg	tg	tg	nt	right	tg	ht	0.55328	wh/0051.bmp	0.05	16.8
25.52	1.18877	1	4	per	lib	mod	low	mod	tg	tg	tg	tg	left	tg	ht	0.78877	wh/0537.bmp	0.05	16.85
29.12	1.08098	1	5	per	lib	mod	low	mod	tg	nt	tg	nt	right	tg	ht	0.68098	wh/0762.bmp	0.05	16.9
33.44	1.33579	1	6	per	lib	mod	low	mod	tg	tg	tg	nt	right	tg	ht	0.93579	wh/0234.bmp	0.05	16.95
36.32	1.00282	1	7	per	lib	mod	low	mod	nt	nt	nt	nt	right	tg	fa	0.60282	nh/0048_nh.bmp	0	16.95
39.92	1.5138	1	8	per	lib	mod	low	mod	nt	nt	nt	nt	left	nt	cr	1.1138	nh/0068_nh.bmp	0.05	17
44.24	0.99399	1	9	per	lib	mod	low	mod	tg	nt	tg	nt	right	tg	ht	0.59399	wh/0923.bmp	0.05	17.05
47.12	1.4269	1	10	per	lib	mod	low	mod	tg	nt	tg	tg	left	tg	ht	1.0269	wh/0469.bmp	0.05	17.1
51.44	1.09442	1	11	per	lib	mod	low	mod	tg	nt	tg	tg	right	nt	ms	0.69442	wh/0419.bmp	-0.1	17
54.32	1.4158	1	12	per	lib	mod	low	mod	nt	tg	nt	nt	right	tg	fa	1.0158	nh/0037_nh.bmp	0	17
57.2	1.4699	1	13	per	lib	mod	low	mod	nt	tg	nt	tg	right	nt	cr	1.0699	nh/0475_nh.bmp	0.05	17.05
60.8	2.162	1	14	per	lib	mod	low	mod	tg	tg	tg	nt	right	tg	ht	1.762	wh/0625.bmp	0.05	17.1
65.12	1.4288	1	15	per	lib	mod	low	mod	nt	tg	nt	nt	left	nt	cr	1.0288	nh/1005_nh.bmp	0.05	17.15
68	1.4298	1	16	per	lib	mod	low	mod	nt	nt	nt	nt	left	nt	cr	1.0298	nh/0216_nh.bmp	0.05	17.2
70.56	3.6	1	n/a	per	lib	mod	n/a	n/a	feedback	n/a	n/a	n/a	n/a	n/a	n/a	n/a	n/a	n/a	n/a
74.88	7.2	2	n/a	mem	con	mod	n/a	n/a	instructions	n/a	n/a	n/a	n/a	n/a	n/a	n/a	n/a	n/a	n/a
83.12	1.6798	2	17	mem	con	mod	mod	low	nt	nt	nt	nt	left	nt	cr	1.2798	nh/0134_nh.bmp	0.05	17.25
86.72	1.21088	2	18	mem	con	mod	mod	low	tg	tg	tg	tg	left	tg	ht	0.81088	wh/0574.bmp	0.05	17.3
90.32	1.4118	2	19	mem	con	mod	mod	low	nt	nt	tg	tg	right	nt	cr	1.0118	wh/0382.bmp	0.05	17.35
93.2	1.7889	2	20	mem	con	mod	mod	low	nt	nt	tg	nt	right	tg	fa	1.3889	wh/0284.bmp	-0.1	17.25
96.08	1.18772	2	21	mem	con	mod	mod	low	nt	nt	nt	tg	left	tg	fa	0.78772	nh/0510_nh.bmp	-0.1	17.15
98.96	1.0462	2	22	mem	con	mod	mod	low	tg	tg	nt	tg	left	tg	ht	0.6462	nh/0820_nh.bmp	0.05	17.2
103.28	1.2249	2	23	mem	con	mod	mod	low	tg	tg	tg	nt	right	tg	ht	0.8249	wh/1004.bmp	0.05	17.25
106.16	1.27676	2	24	mem	con	mod	mod	low	nt	nt	tg	tg	right	nt	cr	0.87676	wh/0299.bmp	0.05	17.3
109.76	1.6268	2	25	mem	con	mod	mod	low	tg	tg	nt	tg	left	tg	ht	1.2268	nh/0582_nh.bmp	0.05	17.35
112.64	1.6869	2	26	mem	con	mod	mod	low	tg	tg	nt	nt	right	tg	ht	1.2869	nh/0073_nh.bmp	0.05	17.4
115.52	1.31183	2	27	mem	con	mod	mod	low	tg	tg	nt	nt	left	nt	ms	0.91183	nh/0491_nh.bmp	0	17.4
118.4	1.11062	2	28	mem	con	mod	mod	low	tg	tg	tg	nt	right	tg	ht	0.71062	wh/0875.bmp	0.05	17.45
122	1.28974	2	29	mem	con	mod	mod	low	nt	nt	nt	tg	right	nt	cr	0.88974	nh/0345_nh.bmp	0.05	17.5
124.88	1.8976	2	30	mem	con	mod	mod	low	nt	nt	tg	nt	right	tg	fa	1.4976	wh/0329.bmp	-0.1	17.4
127.76	1.08668	2	31	mem	con	mod	mod	low	tg	tg	tg	tg	left	tg	ht	0.68668	wh/0241.bmp	0.05	17.45
130.64	1.31589	2	32	mem	con	mod	mod	low	nt	nt	nt	nt	left	nt	cr	0.91589	nh/0338_nh.bmp	0.05	17.5
134.64	3.6	2	n/a	mem	con	mod	n/a	n/a	feedback	n/a	n/a	n/a	n/a	n/a	n/a	n/a	n/a	n/a	n/a
138.24	7.2	3	n/a	mem	lib	mod	n/a	n/a	instructions	n/a	n/a	n/a	n/a	n/a	n/a	n/a	n/a	n/a	n/a
145.76	1.5408	3	33	mem	lib	mod	mod	low	nt	nt	tg	tg	left	tg	fa	1.1408	wh/0036.bmp	0	17.5
149.36	1.9067	3	34	mem	lib	mod	mod	low	tg	tg	nt	nt	right	tg	ht	1.5067	nh/0403_nh.bmp	0.05	17.55
152.24	1.5728	3	35	mem	lib	mod	mod	low	nt	nt	nt	tg	left	tg	fa	1.1728	nh/0690_nh.bmp	0	17.55
155.84	1.14388	3	36	mem	lib	mod	mod	low	nt	nt	nt	nt	right	tg	fa	0.74388	nh/0443_nh.bmp	0	17.55
159.44	1.24295	3	37	mem	lib	mod	mod	low	tg	tg	nt	tg	left	tg	ht	0.84295	nh/0793_nh.bmp	0.05	17.6
162.32	1.01911	3	38	mem	lib	mod	mod	low	tg	tg	nt	nt	right	tg	ht	0.61911	nh/0746_nh.bmp	0.05	17.65
165.2	0.99307	3	39	mem	lib	mod	mod	low	tg	tg	tg	nt	right	tg	ht	0.59307	wh/0193.bmp	0.05	17.7
169.52	1.454	3	40	mem	lib	mod	mod	low	nt	nt	tg	tg	left	tg	fa	1.054	wh/0818.bmp	0	17.7
173.12	1.20571	3	41	mem	lib	mod	mod	low	tg	tg	tg	nt	right	tg	ht	0.80571	wh/0165.bmp	0.05	17.75
176	0.96399	3	42	mem	lib	mod	mod	low	tg	tg	tg	tg	left	tg	ht	0.56399	wh/0374.bmp	0.05	17.8
179.6	1.5989	3	43	mem	lib	mod	mod	low	nt	nt	tg	nt	right	tg	fa	1.1989	wh/0232.bmp	0	17.8
183.2	1.6739	3	44	mem	lib	mod	mod	low	nt	nt	nt	nt	left	nt	cr	1.2739	nh/0361_nh.bmp	0.05	17.85
187.52	1.20381	3	45	mem	lib	mod	mod	low	tg	tg	nt	tg	left	tg	ht	0.80381	nh/0118_nh.bmp	0.05	17.9
191.12	1.695	3	46	mem	lib	mod	mod	low	tg	tg	tg	tg	right	nt	ms	1.295	wh/0578.bmp	-0.1	17.8
194	2.1019	3	47	mem	lib	mod	mod	low	nt	nt	nt	tg	right	nt	cr	1.7019	nh/0760_nh.bmp	0.05	17.85
198.32	1.08989	3	48	mem	lib	mod	mod	low	nt	nt	tg	tg	left	tg	fa	0.68989	wh/0077.bmp	0	17.85
200.88	3.6	3	n/a	mem	lib	mod	n/a	n/a	feedback	n/a	n/a	n/a	n/a	n/a	n/a	n/a	n/a	n/a	n/a
204.48	7.2	4	n/a	mem	con	low	n/a	n/a	instructions	n/a	n/a	n/a	n/a	n/a	n/a	n/a	n/a	n/a	n/a
212	1.4379	4	49	mem	con	low	low	low	nt	nt	nt	nt	left	nt	cr	1.0379	nh/0261_nh.bmp	0.05	17.9
214.88	1.5448	4	50	mem	con	low	low	low	nt	nt	nt	nt	left	nt	cr	1.1448	nh/0433_nh.bmp	0.05	17.95
218.48	0.95865	4	51	mem	con	low	low	low	nt	nt	tg	nt	left	nt	cr	0.55865	wh/0458.bmp	0.05	18
222.08	1.20071	4	52	mem	con	low	low	low	tg	tg	nt	tg	right	nt	ms	0.80071	nh/0352_nh.bmp	0	18
224.96	1.07255	4	53	mem	con	low	low	low	tg	tg	tg	nt	left	nt	ms	0.67255	wh/0566.bmp	0	18
227.84	1.07955	4	54	mem	con	low	low	low	tg	tg	tg	nt	left	nt	ms	0.67955	wh/0260.bmp	0	18
231.44	1.5018	4	55	mem	con	low	low	low	nt	nt	nt	tg	right	nt	cr	1.1018	nh/0768_nh.bmp	0.05	18.05
235.76	1.2217	4	56	mem	con	low	low	low	tg	tg	nt	nt	right	tg	ht	0.8217	nh/0480_nh.bmp	0.05	18.1
240.08	1.7269	4	57	mem	con	low	low	low	tg	tg	tg	tg	left	tg	ht	1.3269	wh/0135.bmp	0.05	18.15
242.96	1.6329	4	58	mem	con	low	low	low	nt	nt	tg	nt	left	nt	cr	1.2329	wh/0513.bmp	0.05	18.2
245.84	1.6099	4	59	mem	con	low	low	low	nt	nt	nt	nt	left	nt	cr	1.2099	nh/0055_nh.bmp	0.05	18.25
249.44	1.03181	4	60	mem	con	low	low	low	tg	tg	nt	nt	left	nt	ms	0.63181	nh/0767_nh.bmp	0	18.25
253.04	0.95674	4	61	mem	con	low	low	low	nt	nt	tg	nt	left	nt	cr	0.55674	wh/0706.bmp	0.05	18.3
256.64	0.91499	4	62	mem	con	low	low	low	tg	tg	tg	nt	left	nt	ms	0.51499	wh/0268.bmp	0	18.3
260.24	0.96312	4	63	mem	con	low	low	low	tg	tg	nt	nt	left	nt	ms	0.56312	nh/0376_nh.bmp	0	18.3
263.84	2.3847	4	64	mem	con	low	low	low	nt	nt	tg	tg	right	nt	cr	1.9847	wh/0845.bmp	0.05	18.35
266.4	3.6	4	n/a	mem	con	low	n/a	n/a	feedback	n/a	n/a	n/a	n/a	n/a	n/a	n/a	n/a	n/a	n/a
270	7.2	5	n/a	per	lib	low	n/a	n/a	instructions	n/a	n/a	n/a	n/a	n/a	n/a	n/a	n/a	n/a	n/a
277.52	1.1859	5	65	per	lib	low	low	low	nt	tg	nt	nt	right	tg	fa	0.7859	nh/0842_nh.bmp	0	18.35
281.84	1.26591	5	66	per	lib	low	low	low	nt	nt	nt	tg	right	nt	cr	0.86591	nh/0528_nh.bmp	0.05	18.4
286.16	1.10648	5	67	per	lib	low	low	low	nt	tg	nt	nt	right	tg	fa	0.70648	nh/0360_nh.bmp	0	18.4
289.04	1.24595	5	68	per	lib	low	low	low	tg	nt	tg	nt	right	tg	ht	0.84595	wh/1007.bmp	0.05	18.45
291.92	1.23093	5	69	per	lib	low	low	low	tg	tg	tg	tg	left	tg	ht	0.83093	wh/0175.bmp	0.05	18.5
294.8	1.18483	5	70	per	lib	low	low	low	tg	tg	tg	tg	left	tg	ht	0.78483	wh/0677.bmp	0.05	18.55
297.68	1.6288	5	71	per	lib	low	low	low	nt	tg	nt	nt	left	nt	cr	1.2288	nh/0676_nh.bmp	0.05	18.6
300.56	1.18373	5	72	per	lib	low	low	low	tg	tg	tg	tg	left	tg	ht	0.78373	wh/0138.bmp	0.05	18.65
304.88	2.0028	5	73	per	lib	low	low	low	nt	nt	nt	nt	right	tg	fa	1.6028	nh/0488_nh.bmp	0	18.65
307.76	1.09863	5	74	per	lib	low	low	low	nt	tg	nt	nt	right	tg	fa	0.69863	nh/0859_nh.bmp	0	18.65
312.08	1.9168	5	75	per	lib	low	low	low	tg	nt	tg	tg	left	tg	ht	1.5168	wh/0999.bmp	0.05	18.7
315.68	1.22378	5	76	per	lib	low	low	low	nt	nt	nt	nt	right	tg	fa	0.82378	nh/0148_nh.bmp	0	18.7
319.28	1.638	5	77	per	lib	low	low	low	tg	tg	tg	tg	left	tg	ht	1.238	wh/0825.bmp	0.05	18.75
322.16	0.98241	5	78	per	lib	low	low	low	tg	nt	tg	nt	right	tg	ht	0.58241	wh/0431.bmp	0.05	18.8
325.76	1.6427	5	79	per	lib	low	low	low	tg	nt	tg	tg	right	nt	ms	1.2427	wh/0112.bmp	-0.1	18.7
329.36	1.10784	5	80	per	lib	low	low	low	nt	nt	nt	nt	right	tg	fa	0.70784	nh/0215_nh.bmp	0	18.7
333.36	3.6	5	n/a	per	lib	low	n/a	n/a	feedback	n/a	n/a	n/a	n/a	n/a	n/a	n/a	n/a	n/a	n/a
338.4	7.2	6	n/a	per	con	low	n/a	n/a	instructions	n/a	n/a	n/a	n/a	n/a	n/a	n/a	n/a	n/a	n/a
346.64	2.1449	6	81	per	con	low	low	low	nt	nt	nt	tg	right	nt	cr	1.7449	nh/0701_nh.bmp	0.05	18.75
349.52	1.0462	6	82	per	con	low	low	low	nt	tg	nt	tg	right	nt	cr	0.6462	nh/0181_nh.bmp	0.05	18.8
352.4	1.05642	6	83	per	con	low	low	low	tg	tg	tg	nt	left	nt	ms	0.65642	wh/0219.bmp	0	18.8
355.28	1.10899	6	84	per	con	low	low	low	tg	tg	tg	tg	right	nt	ms	0.70899	wh/0639.bmp	0	18.8
358.88	1.08526	6	85	per	con	low	low	low	nt	tg	nt	nt	left	nt	cr	0.68526	nh/0240_nh.bmp	0.05	18.85
361.76	1.16879	6	86	per	con	low	low	low	nt	nt	nt	tg	right	nt	cr	0.76879	nh/0930_nh.bmp	0.05	18.9
364.64	1.08054	6	87	per	con	low	low	low	tg	tg	tg	nt	left	nt	ms	0.68054	wh/0144.bmp	0	18.9
367.52	1.12286	6	88	per	con	low	low	low	tg	nt	tg	nt	right	tg	ht	0.72286	wh/0185.bmp	0.05	18.95
370.4	1.04971	6	89	per	con	low	low	low	tg	nt	tg	nt	left	nt	ms	0.64971	wh/0579.bmp	0	18.95
374.72	1.03247	6	90	per	con	low	low	low	tg	nt	tg	nt	left	nt	ms	0.63247	wh/0789.bmp	0	18.95
378.32	1.28087	6	91	per	con	low	low	low	nt	tg	nt	nt	left	nt	cr	0.88087	nh/0224_nh.bmp	0.05	19
381.92	1.685	6	92	per	con	low	low	low	nt	tg	nt	nt	left	nt	cr	1.285	nh/0770_nh.bmp	0.05	19.05
384.8	0.93713	6	93	per	con	low	low	low	tg	nt	tg	nt	left	nt	ms	0.53713	wh/0815.bmp	0	19.05
387.68	1.9338	6	94	per	con	low	low	low	nt	nt	nt	tg	left	tg	fa	1.5338	nh/0370_nh.bmp	-0.1	18.95
390.56	1.02882	6	95	per	con	low	low	low	tg	tg	tg	tg	right	nt	ms	0.62882	wh/0005.bmp	0	18.95
394.16	1.405	6	96	per	con	low	low	low	nt	nt	nt	nt	left	nt	cr	1.005	nh/0864_nh.bmp	0.05	19
396.72	3.6	6	n/a	per	con	low	n/a	n/a	feedback	n/a	n/a	n/a	n/a	n/a	n/a	n/a	n/a	n/a	n/a
401.76	7.2	7	n/a	per	con	mod	n/a	n/a	instructions	n/a	n/a	n/a	n/a	n/a	n/a	n/a	n/a	n/a	n/a
410.72	1.20079	7	97	per	con	mod	low	mod	tg	nt	tg	nt	right	tg	ht	0.80079	wh/0669.bmp	0.05	19.05
413.6	1.07037	7	98	per	con	mod	low	mod	tg	tg	tg	tg	right	nt	ms	0.67037	wh/0779.bmp	0	19.05
416.48	1.1399	7	99	per	con	mod	low	mod	tg	nt	tg	nt	left	nt	ms	0.7399	wh/0290.bmp	0	19.05
419.36	1.19075	7	100	per	con	mod	low	mod	nt	tg	nt	nt	left	nt	cr	0.79075	nh/0418_nh.bmp	0.05	19.1
422.96	1.27787	7	101	per	con	mod	low	mod	tg	tg	tg	nt	right	tg	ht	0.87787	wh/0869.bmp	0.05	19.15
426.56	1.5478	7	102	per	con	mod	low	mod	nt	nt	nt	nt	left	nt	cr	1.1478	nh/0316_nh.bmp	0.05	19.2
429.44	1.03416	7	103	per	con	mod	low	mod	nt	tg	nt	nt	left	nt	cr	0.63416	nh/0093_nh.bmp	0.05	19.25
433.04	1.12786	7	104	per	con	mod	low	mod	nt	nt	nt	tg	right	nt	cr	0.72786	nh/0782_nh.bmp	0.05	19.3
436.64	1.5507	7	105	per	con	mod	low	mod	tg	nt	tg	tg	right	nt	ms	1.1507	wh/0059.bmp	0	19.3
439.52	1.05762	7	106	per	con	mod	low	mod	tg	nt	tg	tg	left	tg	ht	0.65762	wh/0598.bmp	0.05	19.35
443.84	1.6619	7	107	per	con	mod	low	mod	nt	tg	nt	nt	left	nt	cr	1.2619	nh/0951_nh.bmp	0.05	19.4
448.16	1.03083	7	108	per	con	mod	low	mod	nt	tg	nt	nt	left	nt	cr	0.63083	nh/0188_nh.bmp	0.05	19.45
451.04	1.19291	7	109	per	con	mod	low	mod	nt	nt	nt	nt	left	nt	cr	0.79291	nh/0340_nh.bmp	0.05	19.5
454.64	1.6408	7	110	per	con	mod	low	mod	tg	tg	tg	nt	right	tg	ht	1.2408	wh/0953.bmp	0.05	19.55
457.52	1.22279	7	111	per	con	mod	low	mod	nt	nt	nt	tg	right	nt	cr	0.82279	nh/0708_nh.bmp	0.05	19.6
461.12	2.1389	7	112	per	con	mod	low	mod	tg	tg	tg	nt	left	nt	ms	1.7389	wh/0308.bmp	0	19.6
464.4	3.6	7	n/a	per	con	mod	n/a	n/a	feedback	n/a	n/a	n/a	n/a	n/a	n/a	n/a	n/a	n/a	n/a
468	7.2	8	n/a	mem	lib	low	n/a	n/a	instructions	n/a	n/a	n/a	n/a	n/a	n/a	n/a	n/a	n/a	n/a
476.96	2.56	8	113	mem	lib	low	low	mod	tg	tg	nt	tg	n/a	n/a	n/a	n/a	nh/0559_nh.bmp	0	19.6
479.84	1.38992	8	114	mem	lib	low	low	mod	tg	tg	tg	tg	left	tg	ht	0.98992	wh/0389.bmp	0.05	19.65
482.72	1.5419	8	115	mem	lib	low	low	mod	tg	tg	tg	nt	left	nt	ms	1.1419	wh/0668.bmp	-0.1	19.55
486.32	1.01212	8	116	mem	lib	low	low	mod	tg	tg	nt	tg	left	tg	ht	0.61212	nh/0532_nh.bmp	0.05	19.6
489.92	1.6508	8	117	mem	lib	low	low	mod	tg	tg	tg	tg	left	tg	ht	1.2508	wh/1008.bmp	0.05	19.65
494.24	0.98334	8	118	mem	lib	low	low	mod	nt	nt	tg	nt	right	tg	fa	0.58334	wh/1018.bmp	0	19.65
498.56	1.06611	8	119	mem	lib	low	low	mod	nt	nt	tg	tg	right	nt	cr	0.66611	wh/0736.bmp	0.05	19.7
501.44	1.8188	8	120	mem	lib	low	low	mod	nt	nt	nt	tg	right	nt	cr	1.4188	nh/0849_nh.bmp	0.05	19.75
505.76	1.16085	8	121	mem	lib	low	low	mod	nt	nt	nt	nt	right	tg	fa	0.76085	nh/1024_nh.bmp	0	19.75
508.64	1.02514	8	122	mem	lib	low	low	mod	tg	tg	nt	tg	left	tg	ht	0.62514	nh/0101_nh.bmp	0.05	19.8
512.24	1.25293	8	123	mem	lib	low	low	mod	nt	nt	tg	tg	right	nt	cr	0.85293	wh/0781.bmp	0.05	19.85
516.56	1.27376	8	124	mem	lib	low	low	mod	nt	nt	tg	tg	right	nt	cr	0.87376	wh/0838.bmp	0.05	19.9
519.44	1.03843	8	125	mem	lib	low	low	mod	tg	tg	nt	tg	left	tg	ht	0.63843	nh/0631_nh.bmp	0.05	19.95
523.76	1.29378	8	126	mem	lib	low	low	mod	nt	nt	nt	nt	right	tg	fa	0.89378	nh/0461_nh.bmp	0	19.95
526.64	1.18273	8	127	mem	lib	low	low	mod	nt	nt	nt	nt	right	tg	fa	0.78273	nh/0949_nh.bmp	0	19.95
530.96	1.5757	8	128	mem	lib	low	low	mod	tg	tg	tg	nt	right	tg	ht	1.1757	wh/0840.bmp	0.05	20
533.52	3.6	8	n/a	mem	lib	low	n/a	n/a	feedback	n/a	n/a	n/a	n/a	n/a	n/a	n/a	n/a	n/a	n/a
