onset	duration	trial	pres	ts_blk	ts_trl	task	crit	disc	mem_disc	per_disc	per_type	accuracy	stim_file
7.20	0.72	1	1	2	75	per	con	mod	low	mod	nt	cr	nh/0873_nh.bmp
7.92	0.72	2	1	2	28	per	lib	mod	mod	mod	nt	n/a	nh/0098_nh.bmp
8.64	0.72	3	1	3	47	per	con	low	mod	low	tg	ms	wh/0727.bmp
9.36	0.72	4	1	3	120	mem	lib	low	low	low	tg	ms	wh/0996.bmp
10.08	0.72	5	1	1	2	mem	con	mod	mod	mod	tg	n/a	wh/0425.bmp
10.80	0.72	6	1	3	38	per	con	low	mod	low	nt	n/a	nh/0168_nh.bmp
11.52	0.72	7	1	3	87	per	lib	mod	mod	mod	nt	cr	nh/0183_nh.bmp
12.24	0.72	8	1	4	60	mem	con	mod	mod	low	tg	ht	wh/0515.bmp
12.96	0.72	9	1	2	123	per	con	low	mod	low	nt	cr	nh/0231_nh.bmp
13.68	0.72	10	1	2	100	mem	con	mod	mod	low	tg	ms	wh/0816.bmp
14.40	0.72	11	1	2	94	mem	lib	mod	mod	low	tg	ht	wh/0341.bmp
15.12	0.72	12	1	1	51	per	lib	mod	low	mod	nt	cr	nh/0844_nh.bmp
15.84	0.72	13	1	4	25	per	con	mod	mod	mod	nt	cr	nh/0405_nh.bmp
16.56	0.72	14	1	1	63	per	lib	mod	low	mod	tg	ht	wh/0332.bmp
17.28	0.72	15	1	2	109	mem	con	mod	mod	low	tg	ht	wh/0066.bmp
18.00	0.72	16	1	3	82	per	lib	mod	mod	mod	tg	ht	wh/0679.bmp
18.72	0.72	17	1	2	59	mem	lib	low	low	low	tg	ms	wh/0142.bmp
19.44	0.72	18	1	1	105	mem	lib	mod	mod	mod	tg	ht	wh/0878.bmp
20.16	0.72	19	1	3	25	per	lib	low	low	low	tg	ht	wh/0141.bmp
20.88	0.72	20	1	3	74	mem	con	mod	mod	mod	nt	ht	nh/0841_nh.bmp
21.60	0.72	21	1	2	118	per	con	low	mod	low	tg	ht	wh/0745.bmp
22.32	0.72	22	1	2	92	mem	lib	mod	mod	low	tg	ht	wh/0421.bmp
23.04	0.72	23	2	1	2	mem	con	mod	mod	mod	tg	n/a	wh/0425.bmp
23.76	0.72	24	1	1	73	per	lib	low	mod	low	nt	fa	nh/0251_nh.bmp
24.48	0.72	25	1	1	41	per	con	mod	mod	mod	tg	ht	wh/0391.bmp
25.20	0.72	26	1	4	52	mem	con	mod	mod	low	tg	ht	wh/0133.bmp
25.92	0.72	27	1	4	62	mem	con	mod	mod	low	tg	ht	wh/0155.bmp
26.64	0.72	28	1	4	118	per	lib	low	mod	low	nt	fa	nh/0105_nh.bmp
27.36	0.72	29	1	3	78	mem	con	mod	mod	mod	nt	ht	nh/0585_nh.bmp
28.08	0.72	30	1	3	71	mem	con	mod	mod	mod	tg	ht	wh/0463.bmp
28.80	0.72	31	1	1	38	per	con	mod	mod	mod	nt	cr	nh/0681_nh.bmp
29.52	0.72	32	1	4	29	per	con	mod	mod	mod	nt	cr	nh/0775_nh.bmp
30.24	0.72	33	1	4	28	per	con	mod	mod	mod	tg	ht	wh/0393.bmp
30.96	0.72	34	1	1	9	mem	con	mod	mod	mod	nt	ht	nh/0984_nh.bmp
31.68	0.72	35	1	2	107	mem	con	mod	mod	low	tg	ht	wh/0128.bmp
32.40	0.72	36	1	1	98	mem	lib	mod	mod	mod	nt	ht	nh/0938_nh.bmp
33.12	0.72	37	1	1	70	per	lib	low	mod	low	tg	ms	wh/0853.bmp
33.84	0.72	38	1	2	31	per	lib	mod	mod	mod	tg	ms	wh/0289.bmp
34.56	0.72	39	1	3	1	mem	lib	mod	mod	low	tg	ht	wh/0926.bmp
35.28	0.72	40	1	1	109	mem	lib	mod	mod	mod	nt	ht	nh/0070_nh.bmp
36.00	0.72	41	2	2	31	per	lib	mod	mod	mod	tg	ms	wh/0289.bmp
36.72	0.72	42	1	4	51	mem	con	mod	mod	low	nt	ht	nh/0031_nh.bmp
37.44	0.72	43	2	4	62	mem	con	mod	mod	low	tg	ht	wh/0155.bmp
38.16	0.72	44	1	2	19	per	lib	mod	mod	mod	tg	ht	wh/0658.bmp
38.88	0.72	45	1	4	114	per	lib	low	mod	low	nt	cr	nh/0648_nh.bmp
39.60	0.72	46	1	1	44	per	con	mod	mod	mod	nt	cr	nh/0534_nh.bmp
40.32	0.72	47	1	3	67	mem	con	mod	mod	mod	nt	ms	nh/0561_nh.bmp
41.04	0.72	48	1	3	72	mem	con	mod	mod	mod	tg	ht	wh/0965.bmp
41.76	0.72	49	1	3	115	mem	lib	low	low	low	nt	ht	nh/0008_nh.bmp
42.48	0.72	50	1	2	81	mem	lib	mod	mod	low	tg	ht	wh/0733.bmp
43.20	0.72	51	1	4	96	mem	lib	mod	mod	mod	nt	ht	nh/0920_nh.bmp
43.92	0.72	52	1	4	117	per	lib	low	mod	low	tg	ms	wh/0897.bmp
44.64	0.72	53	1	4	101	per	con	low	low	low	nt	cr	nh/0121_nh.bmp
45.36	0.72	54	2	2	107	mem	con	mod	mod	low	tg	ht	wh/0128.bmp
46.08	0.72	55	1	3	81	per	lib	mod	mod	mod	nt	cr	nh/0473_nh.bmp
46.80	0.72	56	2	1	70	per	lib	low	mod	low	tg	ms	wh/0853.bmp
47.52	0.72	57	1	4	87	mem	lib	mod	mod	mod	tg	ht	wh/0879.bmp
48.24	0.72	58	1	3	92	per	lib	mod	mod	mod	tg	ms	wh/0942.bmp
48.96	0.72	59	2	3	72	mem	con	mod	mod	mod	tg	ht	wh/0965.bmp
49.68	0.72	60	1	2	110	mem	con	mod	mod	low	nt	ht	nh/0597_nh.bmp
50.40	0.72	61	2	2	110	mem	con	mod	mod	low	nt	ht	nh/0597_nh.bmp
51.12	0.72	62	1	4	21	per	con	mod	mod	mod	tg	ht	wh/0959.bmp
51.84	0.72	63	1	1	116	mem	con	low	low	mod	nt	ht	nh/0712_nh.bmp
52.56	0.72	64	1	2	23	per	lib	mod	mod	mod	tg	ht	wh/0621.bmp
53.28	0.72	65	1	1	103	mem	lib	mod	mod	mod	tg	ht	wh/0580.bmp
54.00	0.72	66	2	4	28	per	con	mod	mod	mod	tg	ht	wh/0393.bmp
54.72	0.72	67	2	2	123	per	con	low	mod	low	nt	cr	nh/0231_nh.bmp
55.44	0.72	68	2	1	103	mem	lib	mod	mod	mod	tg	ht	wh/0580.bmp
56.16	0.72	69	1	1	64	per	lib	mod	low	mod	tg	ht	wh/0235.bmp
56.88	0.72	70	2	1	109	mem	lib	mod	mod	mod	nt	ht	nh/0070_nh.bmp
57.60	0.72	71	1	4	86	mem	lib	mod	mod	mod	nt	ht	nh/0526_nh.bmp
58.32	0.72	72	1	3	43	per	con	low	mod	low	nt	cr	nh/0755_nh.bmp
59.04	0.72	73	3	1	2	mem	con	mod	mod	mod	tg	n/a	wh/0425.bmp
59.76	0.72	74	1	4	85	mem	lib	mod	mod	mod	tg	ht	wh/0596.bmp
60.48	0.72	75	1	4	63	mem	con	mod	mod	low	nt	ms	nh/0163_nh.bmp
61.20	0.72	76	2	2	81	mem	lib	mod	mod	low	tg	ht	wh/0733.bmp
61.92	0.72	77	3	2	110	mem	con	mod	mod	low	nt	ht	nh/0597_nh.bmp
62.64	0.72	78	2	2	23	per	lib	mod	mod	mod	tg	ht	wh/0621.bmp
63.36	0.72	79	2	2	109	mem	con	mod	mod	low	tg	ht	wh/0066.bmp
64.08	0.72	80	1	3	2	mem	lib	mod	mod	low	nt	ht	nh/0027_nh.bmp
64.80	0.72	81	1	1	37	per	con	mod	mod	mod	nt	cr	nh/0466_nh.bmp
65.52	0.72	82	3	1	109	mem	lib	mod	mod	mod	nt	ht	nh/0070_nh.bmp
66.24	0.72	83	2	1	44	per	con	mod	mod	mod	nt	cr	nh/0534_nh.bmp
66.96	0.72	84	2	4	114	per	lib	low	mod	low	nt	cr	nh/0648_nh.bmp
67.68	0.72	85	1	3	96	per	lib	mod	mod	mod	tg	ht	wh/0637.bmp
68.40	0.72	86	1	3	83	per	lib	mod	mod	mod	nt	cr	nh/0750_nh.bmp
69.12	0.72	87	1	4	57	mem	con	mod	mod	low	nt	ht	nh/0353_nh.bmp
69.84	0.72	88	1	4	38	mem	lib	low	low	mod	nt	ht	nh/0887_nh.bmp
70.56	0.72	89	1	4	30	per	con	mod	mod	mod	nt	cr	nh/0189_nh.bmp
71.28	0.72	90	1	1	14	mem	con	mod	mod	mod	nt	ht	nh/0896_nh.bmp
72.00	0.72	91	3	1	103	mem	lib	mod	mod	mod	tg	ht	wh/0580.bmp
72.72	0.72	92	1	4	18	per	con	mod	mod	mod	tg	ht	wh/0017.bmp
73.44	0.72	93	1	3	37	per	con	low	mod	low	nt	cr	nh/0205_nh.bmp
74.16	0.72	94	2	2	100	mem	con	mod	mod	low	tg	ms	wh/0816.bmp
74.88	0.72	95	1	2	20	per	lib	mod	mod	mod	nt	fa	nh/0627_nh.bmp
75.60	0.72	96	2	3	78	mem	con	mod	mod	mod	nt	ht	nh/0585_nh.bmp
76.32	0.72	97	2	3	2	mem	lib	mod	mod	low	nt	ht	nh/0027_nh.bmp
77.04	0.72	98	2	4	51	mem	con	mod	mod	low	nt	ht	nh/0031_nh.bmp
77.76	0.72	99	2	3	43	per	con	low	mod	low	nt	cr	nh/0755_nh.bmp
78.48	0.72	100	1	2	9	per	lib	low	low	low	nt	fa	nh/0788_nh.bmp
79.20	0.72	101	2	3	47	per	con	low	mod	low	tg	ms	wh/0727.bmp
79.92	0.72	102	1	4	22	per	con	mod	mod	mod	tg	ht	wh/0975.bmp
80.64	0.72	103	1	2	85	mem	lib	mod	mod	low	nt	ms	nh/0177_nh.bmp
81.36	0.72	104	2	1	98	mem	lib	mod	mod	mod	nt	ht	nh/0938_nh.bmp
82.08	0.72	105	1	1	12	mem	con	mod	mod	mod	tg	ht	wh/0955.bmp
82.80	0.72	106	1	2	104	mem	con	mod	mod	low	nt	ms	nh/0377_nh.bmp
83.52	0.72	107	1	4	123	per	lib	low	mod	low	tg	ht	wh/0298.bmp
84.24	0.72	108	1	3	15	mem	lib	mod	mod	low	nt	ht	nh/0115_nh.bmp
84.96	0.72	109	1	1	55	per	lib	mod	low	mod	nt	fa	nh/0898_nh.bmp
85.68	0.72	110	1	3	42	per	con	low	mod	low	tg	ht	wh/1021.bmp
86.40	0.72	111	2	2	19	per	lib	mod	mod	mod	tg	ht	wh/0658.bmp
87.12	0.72	112	2	3	67	mem	con	mod	mod	mod	nt	ms	nh/0561_nh.bmp
87.84	0.72	113	1	3	65	mem	con	mod	mod	mod	tg	ht	wh/0785.bmp
88.56	0.72	114	2	3	37	per	con	low	mod	low	nt	cr	nh/0205_nh.bmp
89.28	0.72	115	1	3	79	mem	con	mod	mod	mod	tg	ht	wh/0698.bmp
90.00	0.72	116	2	1	12	mem	con	mod	mod	mod	tg	ht	wh/0955.bmp
90.72	0.72	117	1	1	97	mem	lib	mod	mod	mod	tg	ht	wh/0287.bmp
91.44	0.72	118	1	3	103	mem	con	low	low	mod	nt	ms	nh/0286_nh.bmp
92.16	0.72	119	1	4	124	per	lib	low	mod	low	tg	ht	wh/0704.bmp
92.88	0.72	120	3	4	62	mem	con	mod	mod	low	tg	ht	wh/0155.bmp
93.60	0.72	121	2	4	25	per	con	mod	mod	mod	nt	cr	nh/0405_nh.bmp
94.32	0.72	122	1	2	30	per	lib	mod	mod	mod	nt	cr	nh/0692_nh.bmp
95.04	0.72	123	2	2	85	mem	lib	mod	mod	low	nt	ms	nh/0177_nh.bmp
95.76	0.72	124	3	2	23	per	lib	mod	mod	mod	tg	ht	wh/0621.bmp
96.48	0.72	125	1	4	64	mem	con	mod	mod	low	tg	ht	wh/0435.bmp
97.20	0.72	126	1	2	111	mem	con	mod	mod	low	nt	ms	nh/0019_nh.bmp
97.92	0.72	127	4	1	103	mem	lib	mod	mod	mod	tg	ht	wh/0580.bmp
98.64	0.72	128	1	3	107	mem	con	low	low	mod	nt	ms	nh/0553_nh.bmp
99.36	0.72	129	2	3	71	mem	con	mod	mod	mod	tg	ht	wh/0463.bmp
100.08	0.72	130	3	2	81	mem	lib	mod	mod	low	tg	ht	wh/0733.bmp
100.80	0.72	131	1	2	121	per	con	low	mod	low	nt	cr	nh/0325_nh.bmp
101.52	0.72	132	2	1	41	per	con	mod	mod	mod	tg	ht	wh/0391.bmp
102.24	0.72	133	1	4	127	per	lib	low	mod	low	nt	cr	nh/0932_nh.bmp
102.96	0.72	134	3	3	67	mem	con	mod	mod	mod	nt	ms	nh/0561_nh.bmp
103.68	0.72	135	1	3	9	mem	lib	mod	mod	low	nt	ht	nh/0040_nh.bmp
104.40	0.72	136	2	3	96	per	lib	mod	mod	mod	tg	ht	wh/0637.bmp
105.12	0.72	137	1	1	75	per	lib	low	mod	low	nt	cr	nh/0624_nh.bmp
105.84	0.72	138	2	2	111	mem	con	mod	mod	low	nt	ms	nh/0019_nh.bmp
106.56	0.72	139	1	2	114	per	con	low	mod	low	tg	ht	wh/0766.bmp
107.28	0.72	140	2	2	94	mem	lib	mod	mod	low	tg	ht	wh/0341.bmp
108.00	0.72	141	2	4	123	per	lib	low	mod	low	tg	ht	wh/0298.bmp
108.72	0.72	142	3	4	51	mem	con	mod	mod	low	nt	ht	nh/0031_nh.bmp
109.44	0.72	143	1	2	29	per	lib	mod	mod	mod	nt	cr	nh/0429_nh.bmp
110.16	0.72	144	1	3	12	mem	lib	mod	mod	low	nt	ht	nh/0741_nh.bmp
110.88	0.72	145	3	3	47	per	con	low	mod	low	tg	ms	wh/0727.bmp
111.60	0.72	146	2	3	15	mem	lib	mod	mod	low	nt	ht	nh/0115_nh.bmp
112.32	0.72	147	3	2	109	mem	con	mod	mod	low	tg	ht	wh/0066.bmp
113.04	0.72	148	1	1	124	mem	con	low	low	mod	tg	ms	wh/0702.bmp
113.76	0.72	149	4	2	110	mem	con	mod	mod	low	nt	ht	nh/0597_nh.bmp
114.48	0.72	150	1	3	46	per	con	low	mod	low	tg	ms	wh/0116.bmp
115.20	0.72	151	1	3	20	per	lib	low	low	low	tg	ht	wh/0006.bmp
115.92	0.72	152	1	2	14	per	lib	low	low	low	tg	ms	wh/0257.bmp
116.64	0.72	153	1	4	84	mem	lib	mod	mod	mod	nt	ht	nh/0724_nh.bmp
117.36	0.72	154	1	4	65	per	lib	mod	low	mod	tg	ht	wh/0550.bmp
118.08	0.72	155	3	2	19	per	lib	mod	mod	mod	tg	ht	wh/0658.bmp
118.80	0.72	156	3	2	100	mem	con	mod	mod	low	tg	ms	wh/0816.bmp
119.52	0.72	157	1	1	65	per	lib	low	mod	low	tg	ms	wh/0769.bmp
120.24	0.72	158	2	1	75	per	lib	low	mod	low	nt	cr	nh/0624_nh.bmp
120.96	0.72	159	4	2	109	mem	con	mod	mod	low	tg	ht	wh/0066.bmp
121.68	0.72	160	2	1	37	per	con	mod	mod	mod	nt	cr	nh/0466_nh.bmp
122.40	0.72	161	1	1	30	per	con	low	low	low	nt	cr	nh/0800_nh.bmp
123.12	0.72	162	1	3	8	mem	lib	mod	mod	low	tg	ms	wh/0178.bmp
123.84	0.72	163	1	2	47	mem	con	low	low	low	tg	ms	wh/1001.bmp
124.56	0.72	164	2	3	92	per	lib	mod	mod	mod	tg	ms	wh/0942.bmp
125.28	0.72	165	3	1	41	per	con	mod	mod	mod	tg	ht	wh/0391.bmp
126.00	0.72	166	2	3	65	mem	con	mod	mod	mod	tg	ht	wh/0785.bmp
126.72	0.72	167	1	1	100	mem	lib	mod	mod	mod	nt	ms	nh/0919_nh.bmp
127.44	0.72	168	1	1	68	per	lib	low	mod	low	tg	ht	wh/0472.bmp
128.16	0.72	169	2	2	28	per	lib	mod	mod	mod	nt	n/a	nh/0098_nh.bmp
128.88	0.72	170	1	1	4	mem	con	mod	mod	mod	nt	ht	nh/0642_nh.bmp
129.60	0.72	171	1	1	6	mem	con	mod	mod	mod	tg	n/a	wh/0700.bmp
130.32	0.72	172	2	3	12	mem	lib	mod	mod	low	nt	ht	nh/0741_nh.bmp
131.04	0.72	173	1	2	74	per	con	mod	low	mod	tg	ht	wh/0311.bmp
131.76	0.72	174	3	3	78	mem	con	mod	mod	mod	nt	ht	nh/0585_nh.bmp
132.48	0.72	175	2	4	127	per	lib	low	mod	low	nt	cr	nh/0932_nh.bmp
133.20	0.72	176	5	2	110	mem	con	mod	mod	low	nt	ht	nh/0597_nh.bmp
133.92	0.72	177	1	4	20	per	con	mod	mod	mod	nt	cr	nh/0274_nh.bmp
134.64	0.72	178	1	3	62	per	con	mod	low	mod	nt	cr	nh/0589_nh.bmp
135.36	0.72	179	2	2	114	per	con	low	mod	low	tg	ht	wh/0766.bmp
136.08	0.72	180	4	1	41	per	con	mod	mod	mod	tg	ht	wh/0391.bmp
136.80	0.72	181	1	3	122	mem	lib	low	low	low	tg	ht	wh/0119.bmp
137.52	0.72	182	2	4	22	per	con	mod	mod	mod	tg	ht	wh/0975.bmp
138.24	0.72	183	2	3	79	mem	con	mod	mod	mod	tg	ht	wh/0698.bmp
138.96	0.72	184	1	1	106	mem	lib	mod	mod	mod	nt	ht	nh/0857_nh.bmp
139.68	0.72	185	2	1	6	mem	con	mod	mod	mod	tg	n/a	wh/0700.bmp
140.40	0.72	186	1	4	69	per	lib	mod	low	mod	nt	fa	nh/0228_nh.bmp
141.12	0.72	187	2	4	87	mem	lib	mod	mod	mod	tg	ht	wh/0879.bmp
141.84	0.72	188	3	3	92	per	lib	mod	mod	mod	tg	ms	wh/0942.bmp
142.56	0.72	189	2	2	20	per	lib	mod	mod	mod	nt	fa	nh/0627_nh.bmp
143.28	0.72	190	1	3	41	per	con	low	mod	low	tg	ms	wh/0200.bmp
144.00	0.72	191	1	4	125	per	lib	low	mod	low	nt	cr	nh/0265_nh.bmp
144.72	0.72	192	4	3	92	per	lib	mod	mod	mod	tg	ms	wh/0942.bmp
145.44	0.72	193	1	3	127	mem	lib	low	low	low	tg	ht	wh/0747.bmp
146.16	0.72	194	1	1	94	mem	lib	low	low	mod	nt	ht	nh/0541_nh.bmp
146.88	0.72	195	2	3	46	per	con	low	mod	low	tg	ms	wh/0116.bmp
147.60	0.72	196	2	3	38	per	con	low	mod	low	nt	n/a	nh/0168_nh.bmp
148.32	0.72	197	3	4	114	per	lib	low	mod	low	nt	cr	nh/0648_nh.bmp
149.04	0.72	198	3	4	123	per	lib	low	mod	low	tg	ht	wh/0298.bmp
149.76	0.72	199	4	4	114	per	lib	low	mod	low	nt	cr	nh/0648_nh.bmp
150.48	0.72	200	2	4	29	per	con	mod	mod	mod	nt	cr	nh/0775_nh.bmp
151.20	0.72	201	1	1	48	per	con	mod	mod	mod	tg	ht	wh/0801.bmp
151.92	0.72	202	1	3	17	per	lib	low	low	low	tg	ht	wh/0015.bmp
152.64	0.72	203	5	1	103	mem	lib	mod	mod	mod	tg	ht	wh/0580.bmp
153.36	0.72	204	4	2	23	per	lib	mod	mod	mod	tg	ht	wh/0621.bmp
154.08	0.72	205	1	2	10	per	lib	low	low	low	nt	fa	nh/0122_nh.bmp
154.80	0.72	206	2	2	92	mem	lib	mod	mod	low	tg	ht	wh/0421.bmp
155.52	0.72	207	2	3	42	per	con	low	mod	low	tg	ht	wh/1021.bmp
156.24	0.72	208	2	4	118	per	lib	low	mod	low	nt	fa	nh/0105_nh.bmp
156.96	0.72	209	2	3	83	per	lib	mod	mod	mod	nt	cr	nh/0750_nh.bmp
157.68	0.72	210	1	1	25	per	con	low	low	low	tg	ms	wh/0210.bmp
158.40	0.72	211	1	3	24	per	lib	low	low	low	tg	ms	wh/0432.bmp
159.12	0.72	212	2	2	30	per	lib	mod	mod	mod	nt	cr	nh/0692_nh.bmp
159.84	0.72	213	1	2	21	per	lib	mod	mod	mod	tg	ht	wh/0899.bmp
160.56	0.72	214	3	1	98	mem	lib	mod	mod	mod	nt	ht	nh/0938_nh.bmp
161.28	0.72	215	1	4	55	mem	con	mod	mod	low	nt	ms	nh/0392_nh.bmp
162.00	0.72	216	2	4	20	per	con	mod	mod	mod	nt	cr	nh/0274_nh.bmp
162.72	0.72	217	1	3	91	per	lib	mod	mod	mod	nt	cr	nh/0100_nh.bmp
163.44	0.72	218	2	1	73	per	lib	low	mod	low	nt	fa	nh/0251_nh.bmp
164.16	0.72	219	3	4	20	per	con	mod	mod	mod	nt	cr	nh/0274_nh.bmp
164.88	0.72	220	4	4	123	per	lib	low	mod	low	tg	ht	wh/0298.bmp
165.60	0.72	221	1	1	24	per	con	low	low	low	tg	ms	wh/0307.bmp
166.32	0.72	222	1	1	74	per	lib	low	mod	low	nt	cr	nh/0233_nh.bmp
167.04	0.72	223	2	4	86	mem	lib	mod	mod	mod	nt	ht	nh/0526_nh.bmp
167.76	0.72	224	3	2	94	mem	lib	mod	mod	low	tg	ht	wh/0341.bmp
168.48	0.72	225	3	4	25	per	con	mod	mod	mod	nt	cr	nh/0405_nh.bmp
169.20	0.72	226	2	4	96	mem	lib	mod	mod	mod	nt	ht	nh/0920_nh.bmp
169.92	0.72	227	3	1	37	per	con	mod	mod	mod	nt	cr	nh/0466_nh.bmp
170.64	0.72	228	5	2	109	mem	con	mod	mod	low	tg	ht	wh/0066.bmp
171.36	0.72	229	1	1	16	mem	con	mod	mod	mod	nt	ht	nh/0935_nh.bmp
172.08	0.72	230	3	1	75	per	lib	low	mod	low	nt	cr	nh/0624_nh.bmp
172.80	0.72	231	1	4	83	mem	lib	mod	mod	mod	tg	ms	wh/0600.bmp
173.52	0.72	232	1	2	91	mem	lib	mod	mod	low	nt	ht	nh/0739_nh.bmp
174.24	0.72	233	1	1	79	per	lib	low	mod	low	tg	ms	wh/0573.bmp
174.96	0.72	234	1	2	101	mem	con	mod	mod	low	nt	n/a	nh/0997_nh.bmp
175.68	0.72	235	1	1	43	per	con	mod	mod	mod	tg	ms	wh/0605.bmp
176.40	0.72	236	1	1	47	per	con	mod	mod	mod	tg	ms	wh/0414.bmp
177.12	0.72	237	1	2	1	per	lib	low	low	low	tg	ms	wh/0722.bmp
177.84	0.72	238	4	1	75	per	lib	low	mod	low	nt	cr	nh/0624_nh.bmp
178.56	0.72	239	3	4	118	per	lib	low	mod	low	nt	fa	nh/0105_nh.bmp
179.28	0.72	240	1	2	79	per	con	mod	low	mod	tg	ht	wh/0367.bmp
180.00	0.72	241	1	3	108	mem	con	low	low	mod	tg	ms	wh/0087.bmp
180.72	0.72	242	1	4	93	mem	lib	mod	mod	mod	nt	ht	nh/0002_nh.bmp
181.44	0.72	243	1	3	7	mem	lib	mod	mod	low	tg	ht	wh/0014.bmp
182.16	0.72	244	2	4	30	per	con	mod	mod	mod	nt	cr	nh/0189_nh.bmp
182.88	0.72	245	1	2	86	mem	lib	mod	mod	low	nt	ht	nh/0217_nh.bmp
183.60	0.72	246	1	2	53	mem	lib	low	low	low	tg	ms	wh/0771.bmp
184.32	0.72	247	1	1	83	mem	lib	low	low	mod	tg	ms	wh/0478.bmp
185.04	0.72	248	2	1	47	per	con	mod	mod	mod	tg	ms	wh/0414.bmp
185.76	0.72	249	3	1	6	mem	con	mod	mod	mod	tg	n/a	wh/0700.bmp
186.48	0.72	250	1	1	45	per	con	mod	mod	mod	nt	cr	nh/0981_nh.bmp
187.20	0.72	251	2	2	104	mem	con	mod	mod	low	nt	ms	nh/0377_nh.bmp
187.92	0.72	252	2	4	117	per	lib	low	mod	low	tg	ms	wh/0897.bmp
188.64	0.72	253	3	2	30	per	lib	mod	mod	mod	nt	cr	nh/0692_nh.bmp
189.36	0.72	254	4	1	6	mem	con	mod	mod	mod	tg	n/a	wh/0700.bmp
190.08	0.72	255	2	3	8	mem	lib	mod	mod	low	tg	ms	wh/0178.bmp
190.80	0.72	256	3	2	123	per	con	low	mod	low	nt	cr	nh/0231_nh.bmp
191.52	0.72	257	1	3	73	mem	con	mod	mod	mod	nt	n/a	nh/0204_nh.bmp
192.24	0.72	258	1	2	64	mem	lib	low	low	low	nt	ht	nh/0614_nh.bmp
192.96	0.72	259	4	3	78	mem	con	mod	mod	mod	nt	ht	nh/0585_nh.bmp
193.68	0.72	260	3	2	20	per	lib	mod	mod	mod	nt	fa	nh/0627_nh.bmp
194.40	0.72	261	2	2	118	per	con	low	mod	low	tg	ht	wh/0745.bmp
195.12	0.72	262	2	1	79	per	lib	low	mod	low	tg	ms	wh/0573.bmp
195.84	0.72	263	2	4	21	per	con	mod	mod	mod	tg	ht	wh/0959.bmp
196.56	0.72	264	1	4	115	per	lib	low	mod	low	tg	ht	wh/0379.bmp
197.28	0.72	265	2	3	1	mem	lib	mod	mod	low	tg	ht	wh/0926.bmp
198.00	0.72	266	1	3	48	per	con	low	mod	low	nt	cr	nh/0455_nh.bmp
198.72	0.72	267	2	2	101	mem	con	mod	mod	low	nt	n/a	nh/0997_nh.bmp
199.44	0.72	268	2	3	9	mem	lib	mod	mod	low	nt	ht	nh/0040_nh.bmp
200.16	0.72	269	2	1	9	mem	con	mod	mod	mod	nt	ht	nh/0984_nh.bmp
200.88	0.72	270	3	3	9	mem	lib	mod	mod	low	nt	ht	nh/0040_nh.bmp
201.60	0.72	271	2	4	60	mem	con	mod	mod	low	tg	ht	wh/0515.bmp
202.32	0.72	272	2	4	124	per	lib	low	mod	low	tg	ht	wh/0704.bmp
203.04	0.72	273	1	4	3	mem	con	low	low	low	nt	ht	nh/0109_nh.bmp
203.76	0.72	274	2	1	45	per	con	mod	mod	mod	nt	cr	nh/0981_nh.bmp
204.48	0.72	275	4	2	100	mem	con	mod	mod	low	tg	ms	wh/0816.bmp
205.20	0.72	276	1	1	76	per	lib	low	mod	low	nt	cr	nh/0836_nh.bmp
205.92	0.72	277	1	2	95	mem	lib	mod	mod	low	tg	ht	wh/0868.bmp
206.64	0.72	278	2	1	43	per	con	mod	mod	mod	tg	ms	wh/0605.bmp
207.36	0.72	279	2	1	68	per	lib	low	mod	low	tg	ht	wh/0472.bmp
208.08	0.72	280	3	2	111	mem	con	mod	mod	low	nt	ms	nh/0019_nh.bmp
208.80	0.72	281	3	3	12	mem	lib	mod	mod	low	nt	ht	nh/0741_nh.bmp
209.52	0.72	282	4	2	81	mem	lib	mod	mod	low	tg	ht	wh/0733.bmp
210.24	0.72	283	3	4	22	per	con	mod	mod	mod	tg	ht	wh/0975.bmp
210.96	0.72	284	4	3	9	mem	lib	mod	mod	low	nt	ht	nh/0040_nh.bmp
211.68	0.72	285	1	4	1	mem	con	low	low	low	nt	ms	nh/0486_nh.bmp
212.40	0.72	286	2	3	81	per	lib	mod	mod	mod	nt	cr	nh/0473_nh.bmp
213.12	0.72	287	3	3	83	per	lib	mod	mod	mod	nt	cr	nh/0750_nh.bmp
213.84	0.72	288	3	3	72	mem	con	mod	mod	mod	tg	ht	wh/0965.bmp
214.56	0.72	289	3	3	81	per	lib	mod	mod	mod	nt	cr	nh/0473_nh.bmp
215.28	0.72	290	5	1	41	per	con	mod	mod	mod	tg	ht	wh/0391.bmp
216.00	0.72	291	2	1	100	mem	lib	mod	mod	mod	nt	ms	nh/0919_nh.bmp
216.72	0.72	292	3	4	30	per	con	mod	mod	mod	nt	cr	nh/0189_nh.bmp
217.44	0.72	293	2	1	48	per	con	mod	mod	mod	tg	ht	wh/0801.bmp
218.16	0.72	294	3	3	71	mem	con	mod	mod	mod	tg	ht	wh/0463.bmp
218.88	0.72	295	1	2	127	per	con	low	mod	low	nt	fa	nh/0145_nh.bmp
219.60	0.72	296	3	4	29	per	con	mod	mod	mod	nt	cr	nh/0775_nh.bmp
220.32	0.72	297	2	1	97	mem	lib	mod	mod	mod	tg	ht	wh/0287.bmp
221.04	0.72	298	3	3	79	mem	con	mod	mod	mod	tg	ht	wh/0698.bmp
221.76	0.72	299	4	3	83	per	lib	mod	mod	mod	nt	cr	nh/0750_nh.bmp
222.48	0.72	300	3	2	101	mem	con	mod	mod	low	nt	n/a	nh/0997_nh.bmp
223.20	0.72	301	1	2	120	per	con	low	mod	low	nt	cr	nh/0514_nh.bmp
223.92	0.72	302	2	1	14	mem	con	mod	mod	mod	nt	ht	nh/0896_nh.bmp
224.64	0.72	303	1	3	3	mem	lib	mod	mod	low	tg	ht	wh/0649.bmp
225.36	0.72	304	4	4	51	mem	con	mod	mod	low	nt	ht	nh/0031_nh.bmp
226.08	0.72	305	1	4	107	per	con	low	low	low	nt	cr	nh/1022_nh.bmp
226.80	0.72	306	3	2	118	per	con	low	mod	low	tg	ht	wh/0745.bmp
227.52	0.72	307	3	4	86	mem	lib	mod	mod	mod	nt	ht	nh/0526_nh.bmp
228.24	0.72	308	3	3	38	per	con	low	mod	low	nt	n/a	nh/0168_nh.bmp
228.96	0.72	309	3	4	87	mem	lib	mod	mod	mod	tg	ht	wh/0879.bmp
229.68	0.72	310	1	3	50	per	con	mod	low	mod	nt	cr	nh/0149_nh.bmp
230.40	0.72	311	4	4	20	per	con	mod	mod	mod	nt	cr	nh/0274_nh.bmp
231.12	0.72	312	2	3	87	per	lib	mod	mod	mod	nt	cr	nh/0183_nh.bmp
231.84	0.72	313	5	3	92	per	lib	mod	mod	mod	tg	ms	wh/0942.bmp
232.56	0.72	314	4	4	25	per	con	mod	mod	mod	nt	cr	nh/0405_nh.bmp
233.28	0.72	315	3	1	68	per	lib	low	mod	low	tg	ht	wh/0472.bmp
234.00	0.72	316	3	4	60	mem	con	mod	mod	low	tg	ht	wh/0515.bmp
234.72	0.72	317	1	2	122	per	con	low	mod	low	tg	ms	wh/0156.bmp
235.44	0.72	318	3	4	124	per	lib	low	mod	low	tg	ht	wh/0704.bmp
236.16	0.72	319	4	2	118	per	con	low	mod	low	tg	ht	wh/0745.bmp
236.88	0.72	320	4	3	47	per	con	low	mod	low	tg	ms	wh/0727.bmp
237.60	0.72	321	2	2	29	per	lib	mod	mod	mod	nt	cr	nh/0429_nh.bmp
238.32	0.72	322	2	4	57	mem	con	mod	mod	low	nt	ht	nh/0353_nh.bmp
239.04	0.72	323	2	4	125	per	lib	low	mod	low	nt	cr	nh/0265_nh.bmp
239.76	0.72	324	5	4	51	mem	con	mod	mod	low	nt	ht	nh/0031_nh.bmp
240.48	0.72	325	3	2	114	per	con	low	mod	low	tg	ht	wh/0766.bmp
241.20	0.72	326	2	2	120	per	con	low	mod	low	nt	cr	nh/0514_nh.bmp
241.92	0.72	327	3	1	9	mem	con	mod	mod	mod	nt	ht	nh/0984_nh.bmp
242.64	0.72	328	2	1	76	per	lib	low	mod	low	nt	cr	nh/0836_nh.bmp
243.36	0.72	329	2	3	7	mem	lib	mod	mod	low	tg	ht	wh/0014.bmp
244.08	0.72	330	1	4	9	mem	con	low	low	low	nt	ms	nh/0481_nh.bmp
244.80	0.72	331	4	4	124	per	lib	low	mod	low	tg	ht	wh/0704.bmp
245.52	0.72	332	1	3	84	per	lib	mod	mod	mod	tg	ht	wh/0884.bmp
246.24	0.72	333	4	2	30	per	lib	mod	mod	mod	nt	cr	nh/0692_nh.bmp
246.96	0.72	334	4	3	38	per	con	low	mod	low	nt	n/a	nh/0168_nh.bmp
247.68	0.72	335	2	3	74	mem	con	mod	mod	mod	nt	ht	nh/0841_nh.bmp
248.40	0.72	336	2	1	16	mem	con	mod	mod	mod	nt	ht	nh/0935_nh.bmp
249.12	0.72	337	2	1	38	per	con	mod	mod	mod	nt	cr	nh/0681_nh.bmp
249.84	0.72	338	1	2	52	mem	lib	low	low	low	tg	ht	wh/0028.bmp
250.56	0.72	339	2	1	106	mem	lib	mod	mod	mod	nt	ht	nh/0857_nh.bmp
251.28	0.72	340	2	2	121	per	con	low	mod	low	nt	cr	nh/0325_nh.bmp
252.00	0.72	341	2	4	85	mem	lib	mod	mod	mod	tg	ht	wh/0596.bmp
252.72	0.72	342	2	3	41	per	con	low	mod	low	tg	ms	wh/0200.bmp
253.44	0.72	343	3	1	12	mem	con	mod	mod	mod	tg	ht	wh/0955.bmp
254.16	0.72	344	2	3	73	mem	con	mod	mod	mod	nt	n/a	nh/0204_nh.bmp
254.88	0.72	345	2	2	122	per	con	low	mod	low	tg	ms	wh/0156.bmp
255.60	0.72	346	3	4	117	per	lib	low	mod	low	tg	ms	wh/0897.bmp
256.32	0.72	347	3	1	97	mem	lib	mod	mod	mod	tg	ht	wh/0287.bmp
257.04	0.72	348	1	2	39	mem	con	low	low	low	nt	ht	nh/0054_nh.bmp
257.76	0.72	349	2	3	82	per	lib	mod	mod	mod	tg	ht	wh/0679.bmp
258.48	0.72	350	3	3	15	mem	lib	mod	mod	low	nt	ht	nh/0115_nh.bmp
259.20	0.72	351	2	3	84	per	lib	mod	mod	mod	tg	ht	wh/0884.bmp
259.92	0.72	352	3	1	43	per	con	mod	mod	mod	tg	ms	wh/0605.bmp
260.64	0.72	353	4	1	2	mem	con	mod	mod	mod	tg	n/a	wh/0425.bmp
261.36	0.72	354	1	1	88	mem	lib	low	low	mod	tg	ht	wh/0501.bmp
262.08	0.72	355	2	1	105	mem	lib	mod	mod	mod	tg	ht	wh/0878.bmp
262.80	0.72	356	1	2	61	mem	lib	low	low	low	nt	ht	nh/0682_nh.bmp
263.52	0.72	357	3	3	84	per	lib	mod	mod	mod	tg	ht	wh/0884.bmp
264.24	0.72	358	3	2	122	per	con	low	mod	low	tg	ms	wh/0156.bmp
264.96	0.72	359	2	3	48	per	con	low	mod	low	nt	cr	nh/0455_nh.bmp
265.68	0.72	360	3	1	47	per	con	mod	mod	mod	tg	ms	wh/0414.bmp
266.40	0.72	361	6	2	110	mem	con	mod	mod	low	nt	ht	nh/0597_nh.bmp
267.12	0.72	362	4	3	12	mem	lib	mod	mod	low	nt	ht	nh/0741_nh.bmp
267.84	0.72	363	3	1	48	per	con	mod	mod	mod	tg	ht	wh/0801.bmp
268.56	0.72	364	2	1	74	per	lib	low	mod	low	nt	cr	nh/0233_nh.bmp
269.28	0.72	365	3	2	121	per	con	low	mod	low	nt	cr	nh/0325_nh.bmp
270.00	0.72	366	4	2	101	mem	con	mod	mod	low	nt	n/a	nh/0997_nh.bmp
270.72	0.72	367	1	2	98	mem	con	mod	mod	low	tg	ht	wh/0529.bmp
271.44	0.72	368	4	4	87	mem	lib	mod	mod	mod	tg	ht	wh/0879.bmp
272.16	0.72	369	3	1	79	per	lib	low	mod	low	tg	ms	wh/0573.bmp
272.88	0.72	370	4	1	68	per	lib	low	mod	low	tg	ht	wh/0472.bmp
273.60	0.72	371	2	4	93	mem	lib	mod	mod	mod	nt	ht	nh/0002_nh.bmp
274.32	0.72	372	1	2	46	mem	con	low	low	low	nt	ms	nh/0362_nh.bmp
275.04	0.72	373	3	2	107	mem	con	mod	mod	low	tg	ht	wh/0128.bmp
275.76	0.72	374	4	3	67	mem	con	mod	mod	mod	nt	ms	nh/0561_nh.bmp
276.48	0.72	375	3	3	96	per	lib	mod	mod	mod	tg	ht	wh/0637.bmp
277.20	0.72	376	1	1	54	per	lib	mod	low	mod	tg	ht	wh/0687.bmp
277.92	0.72	377	5	3	83	per	lib	mod	mod	mod	nt	cr	nh/0750_nh.bmp
278.64	0.72	378	3	1	76	per	lib	low	mod	low	nt	cr	nh/0836_nh.bmp
279.36	0.72	379	1	1	56	per	lib	mod	low	mod	tg	ht	wh/0047.bmp
280.08	0.72	380	1	2	116	per	con	low	mod	low	tg	ht	wh/0387.bmp
280.80	0.72	381	2	2	116	per	con	low	mod	low	tg	ht	wh/0387.bmp
281.52	0.72	382	3	4	125	per	lib	low	mod	low	nt	cr	nh/0265_nh.bmp
282.24	0.72	383	3	3	48	per	con	low	mod	low	nt	cr	nh/0455_nh.bmp
282.96	0.72	384	1	2	15	per	lib	low	low	low	tg	ht	wh/0191.bmp
283.68	0.72	385	4	4	29	per	con	mod	mod	mod	nt	cr	nh/0775_nh.bmp
284.40	0.72	386	4	4	125	per	lib	low	mod	low	nt	cr	nh/0265_nh.bmp
285.12	0.72	387	2	2	86	mem	lib	mod	mod	low	nt	ht	nh/0217_nh.bmp
285.84	0.72	388	3	3	65	mem	con	mod	mod	mod	tg	ht	wh/0785.bmp
286.56	0.72	389	4	4	117	per	lib	low	mod	low	tg	ms	wh/0897.bmp
287.28	0.72	390	4	2	20	per	lib	mod	mod	mod	nt	fa	nh/0627_nh.bmp
288.00	0.72	391	3	1	38	per	con	mod	mod	mod	nt	cr	nh/0681_nh.bmp
288.72	0.72	392	3	3	1	mem	lib	mod	mod	low	tg	ht	wh/0926.bmp
289.44	0.72	393	3	3	82	per	lib	mod	mod	mod	tg	ht	wh/0679.bmp
290.16	0.72	394	4	3	65	mem	con	mod	mod	mod	tg	ht	wh/0785.bmp
290.88	0.72	395	2	4	84	mem	lib	mod	mod	mod	nt	ht	nh/0724_nh.bmp
291.60	0.72	396	5	4	125	per	lib	low	mod	low	nt	cr	nh/0265_nh.bmp
292.32	0.72	397	3	4	127	per	lib	low	mod	low	nt	cr	nh/0932_nh.bmp
293.04	0.72	398	2	4	63	mem	con	mod	mod	low	nt	ms	nh/0163_nh.bmp
293.76	0.72	399	1	2	66	per	con	mod	low	mod	nt	fa	nh/0906_nh.bmp
294.48	0.72	400	3	1	44	per	con	mod	mod	mod	nt	cr	nh/0534_nh.bmp
295.20	0.72	401	2	3	91	per	lib	mod	mod	mod	nt	cr	nh/0100_nh.bmp
295.92	0.72	402	4	2	114	per	con	low	mod	low	tg	ht	wh/0766.bmp
296.64	0.72	403	4	4	127	per	lib	low	mod	low	nt	cr	nh/0932_nh.bmp
297.36	0.72	404	5	2	30	per	lib	mod	mod	mod	nt	cr	nh/0692_nh.bmp
298.08	0.72	405	3	3	41	per	con	low	mod	low	tg	ms	wh/0200.bmp
298.80	0.72	406	1	2	62	mem	lib	low	low	low	nt	ms	nh/0057_nh.bmp
299.52	0.72	407	5	3	67	mem	con	mod	mod	mod	nt	ms	nh/0561_nh.bmp
300.24	0.72	408	4	3	82	per	lib	mod	mod	mod	tg	ht	wh/0679.bmp
300.96	0.72	409	2	2	127	per	con	low	mod	low	nt	fa	nh/0145_nh.bmp
301.68	0.72	410	1	3	55	per	con	mod	low	mod	nt	cr	nh/0922_nh.bmp
302.40	0.72	411	3	1	16	mem	con	mod	mod	mod	nt	ht	nh/0935_nh.bmp
303.12	0.72	412	4	2	94	mem	lib	mod	mod	low	tg	ht	wh/0341.bmp
303.84	0.72	413	5	2	23	per	lib	mod	mod	mod	tg	ht	wh/0621.bmp
304.56	0.72	414	3	2	104	mem	con	mod	mod	low	nt	ms	nh/0377_nh.bmp
305.28	0.72	415	1	2	70	per	con	mod	low	mod	tg	ms	wh/0288.bmp
306.00	0.72	416	3	1	74	per	lib	low	mod	low	nt	cr	nh/0233_nh.bmp
306.72	0.72	417	2	4	115	per	lib	low	mod	low	tg	ht	wh/0379.bmp
307.44	0.72	418	5	1	75	per	lib	low	mod	low	nt	cr	nh/0624_nh.bmp
308.16	0.72	419	1	4	90	mem	lib	mod	mod	mod	tg	ms	wh/0162.bmp
308.88	0.72	420	1	1	101	mem	lib	mod	mod	mod	tg	ht	wh/0847.bmp
309.60	0.72	421	3	3	74	mem	con	mod	mod	mod	nt	ht	nh/0841_nh.bmp
310.32	0.72	422	5	2	100	mem	con	mod	mod	low	tg	ms	wh/0816.bmp
311.04	0.72	423	4	1	38	per	con	mod	mod	mod	nt	cr	nh/0681_nh.bmp
311.76	0.72	424	2	4	52	mem	con	mod	mod	low	tg	ht	wh/0133.bmp
312.48	0.72	425	4	4	30	per	con	mod	mod	mod	nt	cr	nh/0189_nh.bmp
313.20	0.72	426	4	1	37	per	con	mod	mod	mod	nt	cr	nh/0466_nh.bmp
313.92	0.72	427	3	1	100	mem	lib	mod	mod	mod	nt	ms	nh/0919_nh.bmp
314.64	0.72	428	4	4	86	mem	lib	mod	mod	mod	nt	ht	nh/0526_nh.bmp
315.36	0.72	429	2	4	64	mem	con	mod	mod	low	tg	ht	wh/0435.bmp
316.08	0.72	430	1	3	59	per	con	mod	low	mod	tg	ms	wh/0918.bmp
316.80	0.72	431	5	4	29	per	con	mod	mod	mod	nt	cr	nh/0775_nh.bmp
317.52	0.72	432	1	2	56	mem	lib	low	low	low	tg	ht	wh/0862.bmp
318.24	0.72	433	2	2	91	mem	lib	mod	mod	low	nt	ht	nh/0739_nh.bmp
318.96	0.72	434	3	4	28	per	con	mod	mod	mod	tg	ht	wh/0393.bmp
319.68	0.72	435	1	3	31	per	lib	low	low	low	nt	cr	nh/0790_nh.bmp
320.40	0.72	436	3	3	2	mem	lib	mod	mod	low	nt	ht	nh/0027_nh.bmp
321.12	0.72	437	6	1	41	per	con	mod	mod	mod	tg	ht	wh/0391.bmp
321.84	0.72	438	4	1	47	per	con	mod	mod	mod	tg	ms	wh/0414.bmp
322.56	0.72	439	1	4	47	mem	lib	low	low	mod	nt	ht	nh/0974_nh.bmp
323.28	0.72	440	1	4	77	per	lib	mod	low	mod	nt	cr	nh/0829_nh.bmp
324.00	0.72	441	1	1	17	per	con	low	low	low	nt	cr	nh/0634_nh.bmp
324.72	0.72	442	3	1	14	mem	con	mod	mod	mod	nt	ht	nh/0896_nh.bmp
325.44	0.72	443	1	3	102	mem	con	low	low	mod	nt	ms	nh/0296_nh.bmp
326.16	0.72	444	1	3	114	mem	lib	low	low	low	nt	ht	nh/0159_nh.bmp
326.88	0.72	445	3	4	57	mem	con	mod	mod	low	nt	ht	nh/0353_nh.bmp
327.60	0.72	446	4	1	100	mem	lib	mod	mod	mod	nt	ms	nh/0919_nh.bmp
328.32	0.72	447	3	3	73	mem	con	mod	mod	mod	nt	n/a	nh/0204_nh.bmp
329.04	0.72	448	4	3	48	per	con	low	mod	low	nt	cr	nh/0455_nh.bmp
329.76	0.72	449	4	1	97	mem	lib	mod	mod	mod	tg	ht	wh/0287.bmp
330.48	0.72	450	4	3	79	mem	con	mod	mod	mod	tg	ht	wh/0698.bmp
331.20	0.72	451	2	1	101	mem	lib	mod	mod	mod	tg	ht	wh/0847.bmp
331.92	0.72	452	4	3	74	mem	con	mod	mod	mod	nt	ht	nh/0841_nh.bmp
332.64	0.72	453	1	4	43	mem	lib	low	low	mod	tg	ht	wh/0696.bmp
333.36	0.72	454	3	3	46	per	con	low	mod	low	tg	ms	wh/0116.bmp
334.08	0.72	455	4	3	71	mem	con	mod	mod	mod	tg	ht	wh/0463.bmp
334.80	0.72	456	4	4	118	per	lib	low	mod	low	nt	fa	nh/0105_nh.bmp
335.52	0.72	457	4	1	109	mem	lib	mod	mod	mod	nt	ht	nh/0070_nh.bmp
336.24	0.72	458	3	4	84	mem	lib	mod	mod	mod	nt	ht	nh/0724_nh.bmp
336.96	0.72	459	5	1	109	mem	lib	mod	mod	mod	nt	ht	nh/0070_nh.bmp
337.68	0.72	460	1	1	18	per	con	low	low	low	tg	ms	wh/0065.bmp
338.40	0.72	461	3	4	64	mem	con	mod	mod	low	tg	ht	wh/0435.bmp
339.12	0.72	462	5	1	97	mem	lib	mod	mod	mod	tg	ht	wh/0287.bmp
339.84	0.72	463	4	2	19	per	lib	mod	mod	mod	tg	ht	wh/0658.bmp
340.56	0.72	464	1	4	97	per	con	low	low	low	tg	ms	wh/0794.bmp
341.28	0.72	465	4	1	16	mem	con	mod	mod	mod	nt	ht	nh/0935_nh.bmp
342.00	0.72	466	5	1	100	mem	lib	mod	mod	mod	nt	ms	nh/0919_nh.bmp
342.72	0.72	467	5	1	6	mem	con	mod	mod	mod	tg	n/a	wh/0700.bmp
343.44	0.72	468	5	2	118	per	con	low	mod	low	tg	ht	wh/0745.bmp
344.16	0.72	469	1	3	57	per	con	mod	low	mod	tg	ms	wh/0856.bmp
344.88	0.72	470	6	3	92	per	lib	mod	mod	mod	tg	ms	wh/0942.bmp
345.60	0.72	471	1	1	123	mem	con	low	low	mod	nt	ms	nh/0740_nh.bmp
346.32	0.72	472	1	4	71	per	lib	mod	low	mod	tg	ht	wh/0009.bmp
347.04	0.72	473	2	2	95	mem	lib	mod	mod	low	tg	ht	wh/0868.bmp
347.76	0.72	474	2	2	21	per	lib	mod	mod	mod	tg	ht	wh/0899.bmp
348.48	0.72	475	4	2	107	mem	con	mod	mod	low	tg	ht	wh/0128.bmp
349.20	0.72	476	3	4	52	mem	con	mod	mod	low	tg	ht	wh/0133.bmp
349.92	0.72	477	4	2	123	per	con	low	mod	low	nt	cr	nh/0231_nh.bmp
350.64	0.72	478	3	3	37	per	con	low	mod	low	nt	cr	nh/0205_nh.bmp
351.36	0.72	479	2	1	65	per	lib	low	mod	low	tg	ms	wh/0769.bmp
352.08	0.72	480	4	3	37	per	con	low	mod	low	nt	cr	nh/0205_nh.bmp
352.80	0.72	481	1	1	5	mem	con	mod	mod	mod	tg	ht	wh/0001.bmp
353.52	0.72	482	4	2	104	mem	con	mod	mod	low	nt	ms	nh/0377_nh.bmp
354.24	0.72	483	6	4	29	per	con	mod	mod	mod	nt	cr	nh/0775_nh.bmp
354.96	0.72	484	5	2	107	mem	con	mod	mod	low	tg	ht	wh/0128.bmp
355.68	0.72	485	4	3	2	mem	lib	mod	mod	low	nt	ht	nh/0027_nh.bmp
356.40	0.72	486	3	1	105	mem	lib	mod	mod	mod	tg	ht	wh/0878.bmp
357.12	0.72	487	2	3	3	mem	lib	mod	mod	low	tg	ht	wh/0649.bmp
357.84	0.72	488	1	4	14	mem	con	low	low	low	nt	ms	nh/0411_nh.bmp
358.56	0.72	489	3	2	91	mem	lib	mod	mod	low	nt	ht	nh/0739_nh.bmp
359.28	0.72	490	5	3	74	mem	con	mod	mod	mod	nt	ht	nh/0841_nh.bmp
360.00	0.72	491	2	1	4	mem	con	mod	mod	mod	nt	ht	nh/0642_nh.bmp
360.72	0.72	492	6	1	103	mem	lib	mod	mod	mod	tg	ht	wh/0580.bmp
361.44	0.72	493	2	1	5	mem	con	mod	mod	mod	tg	ht	wh/0001.bmp
362.16	0.72	494	3	2	95	mem	lib	mod	mod	low	tg	ht	wh/0868.bmp
362.88	0.72	495	3	4	63	mem	con	mod	mod	low	nt	ms	nh/0163_nh.bmp
363.60	0.72	496	3	2	92	mem	lib	mod	mod	low	tg	ht	wh/0421.bmp
364.32	0.72	497	3	1	73	per	lib	low	mod	low	nt	fa	nh/0251_nh.bmp
365.04	0.72	498	4	4	52	mem	con	mod	mod	low	tg	ht	wh/0133.bmp
365.76	0.72	499	4	1	44	per	con	mod	mod	mod	nt	cr	nh/0534_nh.bmp
366.48	0.72	500	3	4	115	per	lib	low	mod	low	tg	ht	wh/0379.bmp
367.20	0.72	501	4	1	43	per	con	mod	mod	mod	tg	ms	wh/0605.bmp
367.92	0.72	502	5	1	38	per	con	mod	mod	mod	nt	cr	nh/0681_nh.bmp
368.64	0.72	503	4	4	84	mem	lib	mod	mod	mod	nt	ht	nh/0724_nh.bmp
369.36	0.72	504	1	3	98	mem	con	low	low	mod	tg	n/a	wh/0324.bmp
370.08	0.72	505	1	1	113	mem	con	low	low	mod	nt	ht	nh/0303_nh.bmp
370.80	0.72	506	4	1	12	mem	con	mod	mod	mod	tg	ht	wh/0955.bmp
371.52	0.72	507	3	1	101	mem	lib	mod	mod	mod	tg	ht	wh/0847.bmp
372.24	0.72	508	4	2	111	mem	con	mod	mod	low	nt	ms	nh/0019_nh.bmp
372.96	0.72	509	3	2	21	per	lib	mod	mod	mod	tg	ht	wh/0899.bmp
373.68	0.72	510	3	1	70	per	lib	low	mod	low	tg	ms	wh/0853.bmp
374.40	0.72	511	4	1	101	mem	lib	mod	mod	mod	tg	ht	wh/0847.bmp
375.12	0.72	512	1	1	26	per	con	low	low	low	tg	ms	wh/0407.bmp
375.84	0.72	513	5	3	9	mem	lib	mod	mod	low	nt	ht	nh/0040_nh.bmp
376.56	0.72	514	1	2	83	mem	lib	mod	mod	low	nt	ht	nh/0675_nh.bmp
377.28	0.72	515	4	1	76	per	lib	low	mod	low	nt	cr	nh/0836_nh.bmp
378.00	0.72	516	5	1	2	mem	con	mod	mod	mod	tg	n/a	wh/0425.bmp
378.72	0.72	517	4	3	96	per	lib	mod	mod	mod	tg	ht	wh/0637.bmp
379.44	0.72	518	4	4	57	mem	con	mod	mod	low	nt	ht	nh/0353_nh.bmp
380.16	0.72	519	4	4	22	per	con	mod	mod	mod	tg	ht	wh/0975.bmp
380.88	0.72	520	5	1	43	per	con	mod	mod	mod	tg	ms	wh/0605.bmp
381.60	0.72	521	5	4	86	mem	lib	mod	mod	mod	nt	ht	nh/0526_nh.bmp
382.32	0.72	522	5	1	12	mem	con	mod	mod	mod	tg	ht	wh/0955.bmp
383.04	0.72	523	3	4	93	mem	lib	mod	mod	mod	nt	ht	nh/0002_nh.bmp
383.76	0.72	524	1	1	95	mem	lib	low	low	mod	tg	ms	wh/0326.bmp
384.48	0.72	525	4	4	93	mem	lib	mod	mod	mod	nt	ht	nh/0002_nh.bmp
385.20	0.72	526	2	4	90	mem	lib	mod	mod	mod	tg	ms	wh/0162.bmp
385.92	0.72	527	4	4	64	mem	con	mod	mod	low	tg	ht	wh/0435.bmp
386.64	0.72	528	4	2	121	per	con	low	mod	low	nt	cr	nh/0325_nh.bmp
387.36	0.72	529	4	1	74	per	lib	low	mod	low	nt	cr	nh/0233_nh.bmp
388.08	0.72	530	4	3	73	mem	con	mod	mod	mod	nt	n/a	nh/0204_nh.bmp
388.80	0.72	531	3	3	7	mem	lib	mod	mod	low	tg	ht	wh/0014.bmp
389.52	0.72	532	1	4	80	per	lib	mod	low	mod	tg	ht	wh/0406.bmp
390.24	0.72	533	3	2	116	per	con	low	mod	low	tg	ht	wh/0387.bmp
390.96	0.72	534	5	4	30	per	con	mod	mod	mod	nt	cr	nh/0189_nh.bmp
391.68	0.72	535	5	1	47	per	con	mod	mod	mod	tg	ms	wh/0414.bmp
392.40	0.72	536	2	2	83	mem	lib	mod	mod	low	nt	ht	nh/0675_nh.bmp
393.12	0.72	537	3	4	85	mem	lib	mod	mod	mod	tg	ht	wh/0596.bmp
393.84	0.72	538	3	1	106	mem	lib	mod	mod	mod	nt	ht	nh/0857_nh.bmp
394.56	0.72	539	2	4	83	mem	lib	mod	mod	mod	tg	ms	wh/0600.bmp
395.28	0.72	540	1	3	56	per	con	mod	low	mod	nt	cr	nh/0776_nh.bmp
396.00	0.72	541	5	3	78	mem	con	mod	mod	mod	nt	ht	nh/0585_nh.bmp
396.72	0.72	542	1	3	97	mem	con	low	low	mod	nt	ms	nh/0752_nh.bmp
397.44	0.72	543	3	1	45	per	con	mod	mod	mod	nt	cr	nh/0981_nh.bmp
398.16	0.72	544	1	3	64	per	con	mod	low	mod	tg	ms	wh/0270.bmp
398.88	0.72	545	4	2	122	per	con	low	mod	low	tg	ms	wh/0156.bmp
399.60	0.72	546	1	2	48	mem	con	low	low	low	nt	ms	nh/0140_nh.bmp
400.32	0.72	547	5	1	76	per	lib	low	mod	low	nt	cr	nh/0836_nh.bmp
401.04	0.72	548	3	3	87	per	lib	mod	mod	mod	nt	cr	nh/0183_nh.bmp
401.76	0.72	549	4	3	7	mem	lib	mod	mod	low	tg	ht	wh/0014.bmp
402.48	0.72	550	4	3	72	mem	con	mod	mod	mod	tg	ht	wh/0965.bmp
403.20	0.72	551	5	2	94	mem	lib	mod	mod	low	tg	ht	wh/0341.bmp
403.92	0.72	552	5	1	44	per	con	mod	mod	mod	nt	cr	nh/0534_nh.bmp
404.64	0.72	553	5	2	123	per	con	low	mod	low	nt	cr	nh/0231_nh.bmp
405.36	0.72	554	4	4	60	mem	con	mod	mod	low	tg	ht	wh/0515.bmp
406.08	0.72	555	5	1	74	per	lib	low	mod	low	nt	cr	nh/0233_nh.bmp
406.80	0.72	556	4	4	85	mem	lib	mod	mod	mod	tg	ht	wh/0596.bmp
407.52	0.72	557	1	1	115	mem	con	low	low	mod	tg	ms	wh/0601.bmp
408.24	0.72	558	3	1	4	mem	con	mod	mod	mod	nt	ht	nh/0642_nh.bmp
408.96	0.72	559	5	3	2	mem	lib	mod	mod	low	nt	ht	nh/0027_nh.bmp
409.68	0.72	560	4	3	84	per	lib	mod	mod	mod	tg	ht	wh/0884.bmp
410.40	0.72	561	3	2	86	mem	lib	mod	mod	low	nt	ht	nh/0217_nh.bmp
411.12	0.72	562	3	4	21	per	con	mod	mod	mod	tg	ht	wh/0959.bmp
411.84	0.72	563	4	1	45	per	con	mod	mod	mod	nt	cr	nh/0981_nh.bmp
412.56	0.72	564	3	2	28	per	lib	mod	mod	mod	nt	n/a	nh/0098_nh.bmp
413.28	0.72	565	3	2	83	mem	lib	mod	mod	low	nt	ht	nh/0675_nh.bmp
414.00	0.72	566	6	4	86	mem	lib	mod	mod	mod	nt	ht	nh/0526_nh.bmp
414.72	0.72	567	3	2	85	mem	lib	mod	mod	low	nt	ms	nh/0177_nh.bmp
415.44	0.72	568	3	2	29	per	lib	mod	mod	mod	nt	cr	nh/0429_nh.bmp
416.16	0.72	569	5	3	38	per	con	low	mod	low	nt	n/a	nh/0168_nh.bmp
416.88	0.72	570	3	4	90	mem	lib	mod	mod	mod	tg	ms	wh/0162.bmp
417.60	0.72	571	5	4	22	per	con	mod	mod	mod	tg	ht	wh/0975.bmp
418.32	0.72	572	3	1	65	per	lib	low	mod	low	tg	ms	wh/0769.bmp
419.04	0.72	573	1	1	50	per	lib	mod	low	mod	nt	fa	nh/0725_nh.bmp
419.76	0.72	574	4	1	65	per	lib	low	mod	low	tg	ms	wh/0769.bmp
420.48	0.72	575	5	4	87	mem	lib	mod	mod	mod	tg	ht	wh/0879.bmp
421.20	0.72	576	4	4	90	mem	lib	mod	mod	mod	tg	ms	wh/0162.bmp
421.92	0.72	577	6	1	44	per	con	mod	mod	mod	nt	cr	nh/0534_nh.bmp
422.64	0.72	578	5	1	65	per	lib	low	mod	low	tg	ms	wh/0769.bmp
423.36	0.72	579	4	3	87	per	lib	mod	mod	mod	nt	cr	nh/0183_nh.bmp
424.08	0.72	580	4	1	105	mem	lib	mod	mod	mod	tg	ht	wh/0878.bmp
424.80	0.72	581	1	1	27	per	con	low	low	low	nt	cr	nh/0889_nh.bmp
425.52	0.72	582	5	4	85	mem	lib	mod	mod	mod	tg	ht	wh/0596.bmp
426.24	0.72	583	4	3	41	per	con	low	mod	low	tg	ms	wh/0200.bmp
426.96	0.72	584	4	2	92	mem	lib	mod	mod	low	tg	ht	wh/0421.bmp
427.68	0.72	585	3	3	8	mem	lib	mod	mod	low	tg	ms	wh/0178.bmp
428.40	0.72	586	1	4	5	mem	con	low	low	low	tg	ms	wh/0152.bmp
429.12	0.72	587	2	4	18	per	con	mod	mod	mod	tg	ht	wh/0017.bmp
429.84	0.72	588	6	1	109	mem	lib	mod	mod	mod	nt	ht	nh/0070_nh.bmp
430.56	0.72	589	5	3	84	per	lib	mod	mod	mod	tg	ht	wh/0884.bmp
431.28	0.72	590	4	1	70	per	lib	low	mod	low	tg	ms	wh/0853.bmp
432.00	0.72	591	3	4	18	per	con	mod	mod	mod	tg	ht	wh/0017.bmp
432.72	0.72	592	4	3	15	mem	lib	mod	mod	low	nt	ht	nh/0115_nh.bmp
433.44	0.72	593	1	1	89	mem	lib	low	low	mod	nt	ht	nh/1017_nh.bmp
434.16	0.72	594	5	3	87	per	lib	mod	mod	mod	nt	cr	nh/0183_nh.bmp
434.88	0.72	595	5	4	52	mem	con	mod	mod	low	tg	ht	wh/0133.bmp
435.60	0.72	596	1	3	117	mem	lib	low	low	low	nt	ht	nh/0485_nh.bmp
436.32	0.72	597	5	3	15	mem	lib	mod	mod	low	nt	ht	nh/0115_nh.bmp
437.04	0.72	598	5	4	25	per	con	mod	mod	mod	nt	cr	nh/0405_nh.bmp
437.76	0.72	599	6	2	118	per	con	low	mod	low	tg	ht	wh/0745.bmp
438.48	0.72	600	5	4	90	mem	lib	mod	mod	mod	tg	ms	wh/0162.bmp
439.20	0.72	601	5	3	12	mem	lib	mod	mod	low	nt	ht	nh/0741_nh.bmp
439.92	0.72	602	6	3	87	per	lib	mod	mod	mod	nt	cr	nh/0183_nh.bmp
440.64	0.72	603	6	3	78	mem	con	mod	mod	mod	nt	ht	nh/0585_nh.bmp
441.36	0.72	604	1	3	30	per	lib	low	low	low	nt	cr	nh/0076_nh.bmp
442.08	0.72	605	5	3	79	mem	con	mod	mod	mod	tg	ht	wh/0698.bmp
442.80	0.72	606	3	2	31	per	lib	mod	mod	mod	tg	ms	wh/0289.bmp
443.52	0.72	607	5	2	121	per	con	low	mod	low	nt	cr	nh/0325_nh.bmp
444.24	0.72	608	6	1	74	per	lib	low	mod	low	nt	cr	nh/0233_nh.bmp
444.96	0.72	609	3	2	127	per	con	low	mod	low	nt	fa	nh/0145_nh.bmp
445.68	0.72	610	6	2	30	per	lib	mod	mod	mod	nt	cr	nh/0692_nh.bmp
446.40	0.72	611	1	3	32	per	lib	low	low	low	nt	cr	nh/0533_nh.bmp
447.12	0.72	612	3	4	83	mem	lib	mod	mod	mod	tg	ms	wh/0600.bmp
447.84	0.72	613	4	4	21	per	con	mod	mod	mod	tg	ht	wh/0959.bmp
448.56	0.72	614	4	4	28	per	con	mod	mod	mod	tg	ht	wh/0393.bmp
449.28	0.72	615	6	4	22	per	con	mod	mod	mod	tg	ht	wh/0975.bmp
450.00	0.72	616	4	1	98	mem	lib	mod	mod	mod	nt	ht	nh/0938_nh.bmp
450.72	0.72	617	4	2	21	per	lib	mod	mod	mod	tg	ht	wh/0899.bmp
451.44	0.72	618	6	2	109	mem	con	mod	mod	low	tg	ht	wh/0066.bmp
452.16	0.72	619	2	4	55	mem	con	mod	mod	low	nt	ms	nh/0392_nh.bmp
452.88	0.72	620	4	2	86	mem	lib	mod	mod	low	nt	ht	nh/0217_nh.bmp
453.60	0.72	621	6	1	97	mem	lib	mod	mod	mod	tg	ht	wh/0287.bmp
454.32	0.72	622	5	2	21	per	lib	mod	mod	mod	tg	ht	wh/0899.bmp
455.04	0.72	623	4	1	9	mem	con	mod	mod	mod	nt	ht	nh/0984_nh.bmp
455.76	0.72	624	6	4	125	per	lib	low	mod	low	nt	cr	nh/0265_nh.bmp
456.48	0.72	625	2	2	98	mem	con	mod	mod	low	tg	ht	wh/0529.bmp
457.20	0.72	626	5	4	20	per	con	mod	mod	mod	nt	cr	nh/0274_nh.bmp
457.92	0.72	627	4	4	62	mem	con	mod	mod	low	tg	ht	wh/0155.bmp
458.64	0.72	628	5	3	41	per	con	low	mod	low	tg	ms	wh/0200.bmp
459.36	0.72	629	3	4	96	mem	lib	mod	mod	mod	nt	ht	nh/0920_nh.bmp
460.08	0.72	630	4	2	116	per	con	low	mod	low	tg	ht	wh/0387.bmp
460.80	0.72	631	4	1	106	mem	lib	mod	mod	mod	nt	ht	nh/0857_nh.bmp
461.52	0.72	632	3	2	120	per	con	low	mod	low	nt	cr	nh/0514_nh.bmp
462.24	0.72	633	1	2	7	per	lib	low	low	low	nt	fa	nh/0777_nh.bmp
462.96	0.72	634	1	2	42	mem	con	low	low	low	tg	ms	wh/0354.bmp
463.68	0.72	635	5	4	118	per	lib	low	mod	low	nt	fa	nh/0105_nh.bmp
464.40	0.72	636	5	1	101	mem	lib	mod	mod	mod	tg	ht	wh/0847.bmp
465.12	0.72	637	4	4	18	per	con	mod	mod	mod	tg	ht	wh/0017.bmp
465.84	0.72	638	4	3	81	per	lib	mod	mod	mod	nt	cr	nh/0473_nh.bmp
466.56	0.72	639	4	4	115	per	lib	low	mod	low	tg	ht	wh/0379.bmp
467.28	0.72	640	5	3	48	per	con	low	mod	low	nt	cr	nh/0455_nh.bmp
468.00	0.72	641	3	3	91	per	lib	mod	mod	mod	nt	cr	nh/0100_nh.bmp
468.72	0.72	642	4	1	48	per	con	mod	mod	mod	tg	ht	wh/0801.bmp
469.44	0.72	643	4	3	91	per	lib	mod	mod	mod	nt	cr	nh/0100_nh.bmp
470.16	0.72	644	1	4	44	mem	lib	low	low	mod	tg	ht	wh/0272.bmp
470.88	0.72	645	5	4	28	per	con	mod	mod	mod	tg	ht	wh/0393.bmp
471.60	0.72	646	4	3	8	mem	lib	mod	mod	low	tg	ms	wh/0178.bmp
472.32	0.72	647	5	3	82	per	lib	mod	mod	mod	tg	ht	wh/0679.bmp
473.04	0.72	648	3	4	55	mem	con	mod	mod	low	nt	ms	nh/0392_nh.bmp
473.76	0.72	649	1	3	26	per	lib	low	low	low	nt	cr	nh/0786_nh.bmp
474.48	0.72	650	4	4	83	mem	lib	mod	mod	mod	tg	ms	wh/0600.bmp
475.20	0.72	651	5	3	91	per	lib	mod	mod	mod	nt	cr	nh/0100_nh.bmp
475.92	0.72	652	5	4	57	mem	con	mod	mod	low	nt	ht	nh/0353_nh.bmp
476.64	0.72	653	6	4	28	per	con	mod	mod	mod	tg	ht	wh/0393.bmp
477.36	0.72	654	4	2	127	per	con	low	mod	low	nt	fa	nh/0145_nh.bmp
478.08	0.72	655	1	4	41	mem	lib	low	low	mod	tg	ht	wh/0321.bmp
478.80	0.72	656	1	4	74	per	lib	mod	low	mod	tg	ht	wh/0910.bmp
479.52	0.72	657	5	4	123	per	lib	low	mod	low	tg	ht	wh/0298.bmp
480.24	0.72	658	4	2	91	mem	lib	mod	mod	low	nt	ht	nh/0739_nh.bmp
480.96	0.72	659	5	2	81	mem	lib	mod	mod	low	tg	ht	wh/0733.bmp
481.68	0.72	660	1	1	121	mem	con	low	low	mod	tg	ms	wh/0213.bmp
482.40	0.72	661	4	2	83	mem	lib	mod	mod	low	nt	ht	nh/0675_nh.bmp
483.12	0.72	662	6	1	75	per	lib	low	mod	low	nt	cr	nh/0624_nh.bmp
483.84	0.72	663	3	3	3	mem	lib	mod	mod	low	tg	ht	wh/0649.bmp
484.56	0.72	664	1	1	22	per	con	low	low	low	nt	cr	nh/0464_nh.bmp
485.28	0.72	665	1	4	103	per	con	low	low	low	nt	cr	nh/0656_nh.bmp
486.00	0.72	666	4	1	4	mem	con	mod	mod	mod	nt	ht	nh/0642_nh.bmp
486.72	0.72	667	1	4	33	mem	lib	low	low	mod	nt	ht	nh/0476_nh.bmp
487.44	0.72	668	5	3	65	mem	con	mod	mod	mod	tg	ht	wh/0785.bmp
488.16	0.72	669	1	2	35	mem	con	low	low	low	nt	ht	nh/0685_nh.bmp
488.88	0.72	670	6	2	100	mem	con	mod	mod	low	tg	ms	wh/0816.bmp
489.60	0.72	671	6	4	118	per	lib	low	mod	low	nt	fa	nh/0105_nh.bmp
490.32	0.72	672	6	3	84	per	lib	mod	mod	mod	tg	ht	wh/0884.bmp
491.04	0.72	673	3	2	98	mem	con	mod	mod	low	tg	ht	wh/0529.bmp
491.76	0.72	674	5	2	86	mem	lib	mod	mod	low	nt	ht	nh/0217_nh.bmp
492.48	0.72	675	4	2	95	mem	lib	mod	mod	low	tg	ht	wh/0868.bmp
493.20	0.72	676	5	4	64	mem	con	mod	mod	low	tg	ht	wh/0435.bmp
493.92	0.72	677	5	3	47	per	con	low	mod	low	tg	ms	wh/0727.bmp
494.64	0.72	678	6	4	87	mem	lib	mod	mod	mod	tg	ht	wh/0879.bmp
495.36	0.72	679	6	2	94	mem	lib	mod	mod	low	tg	ht	wh/0341.bmp
496.08	0.72	680	6	2	107	mem	con	mod	mod	low	tg	ht	wh/0128.bmp
496.80	0.72	681	6	3	41	per	con	low	mod	low	tg	ms	wh/0200.bmp
497.52	0.72	682	4	3	3	mem	lib	mod	mod	low	tg	ht	wh/0649.bmp
498.24	0.72	683	5	2	104	mem	con	mod	mod	low	nt	ms	nh/0377_nh.bmp
498.96	0.72	684	3	1	5	mem	con	mod	mod	mod	tg	ht	wh/0001.bmp
499.68	0.72	685	1	4	98	per	con	low	low	low	nt	cr	nh/0817_nh.bmp
500.40	0.72	686	3	3	42	per	con	low	mod	low	tg	ht	wh/1021.bmp
501.12	0.72	687	5	2	116	per	con	low	mod	low	tg	ht	wh/0387.bmp
501.84	0.72	688	5	1	9	mem	con	mod	mod	mod	nt	ht	nh/0984_nh.bmp
502.56	0.72	689	4	3	42	per	con	low	mod	low	tg	ht	wh/1021.bmp
503.28	0.72	690	1	3	125	mem	lib	low	low	low	nt	ht	nh/0979_nh.bmp
504.00	0.72	691	4	3	46	per	con	low	mod	low	tg	ms	wh/0116.bmp
504.72	0.72	692	5	3	8	mem	lib	mod	mod	low	tg	ms	wh/0178.bmp
505.44	0.72	693	6	3	9	mem	lib	mod	mod	low	nt	ht	nh/0040_nh.bmp
506.16	0.72	694	6	3	48	per	con	low	mod	low	nt	cr	nh/0455_nh.bmp
506.88	0.72	695	6	4	90	mem	lib	mod	mod	mod	tg	ms	wh/0162.bmp
507.60	0.72	696	5	2	101	mem	con	mod	mod	low	nt	n/a	nh/0997_nh.bmp
508.32	0.72	697	5	3	71	mem	con	mod	mod	mod	tg	ht	wh/0463.bmp
509.04	0.72	698	1	3	101	mem	con	low	low	mod	tg	ms	wh/0659.bmp
509.76	0.72	699	4	2	28	per	lib	mod	mod	mod	nt	n/a	nh/0098_nh.bmp
510.48	0.72	700	5	4	115	per	lib	low	mod	low	tg	ht	wh/0379.bmp
511.20	0.72	701	6	2	116	per	con	low	mod	low	tg	ht	wh/0387.bmp
511.92	0.72	702	4	4	96	mem	lib	mod	mod	mod	nt	ht	nh/0920_nh.bmp
512.64	0.72	703	5	3	46	per	con	low	mod	low	tg	ms	wh/0116.bmp
513.36	0.72	704	5	4	21	per	con	mod	mod	mod	tg	ht	wh/0959.bmp
514.08	0.72	705	5	1	68	per	lib	low	mod	low	tg	ht	wh/0472.bmp
514.80	0.72	706	6	2	121	per	con	low	mod	low	nt	cr	nh/0325_nh.bmp
515.52	0.72	707	5	1	98	mem	lib	mod	mod	mod	nt	ht	nh/0938_nh.bmp
516.24	0.72	708	5	3	72	mem	con	mod	mod	mod	tg	ht	wh/0965.bmp
516.96	0.72	709	5	4	124	per	lib	low	mod	low	tg	ht	wh/0704.bmp
517.68	0.72	710	5	2	111	mem	con	mod	mod	low	nt	ms	nh/0019_nh.bmp
518.40	0.72	711	1	4	111	per	con	low	low	low	tg	ms	wh/0126.bmp
519.12	0.72	712	5	1	45	per	con	mod	mod	mod	nt	cr	nh/0981_nh.bmp
519.84	0.72	713	6	2	123	per	con	low	mod	low	nt	cr	nh/0231_nh.bmp
520.56	0.72	714	6	3	46	per	con	low	mod	low	tg	ms	wh/0116.bmp
521.28	0.72	715	5	4	84	mem	lib	mod	mod	mod	nt	ht	nh/0724_nh.bmp
522.00	0.72	716	5	2	122	per	con	low	mod	low	tg	ms	wh/0156.bmp
522.72	0.72	717	5	2	19	per	lib	mod	mod	mod	tg	ht	wh/0658.bmp
523.44	0.72	718	4	2	98	mem	con	mod	mod	low	tg	ht	wh/0529.bmp
524.16	0.72	719	4	1	5	mem	con	mod	mod	mod	tg	ht	wh/0001.bmp
524.88	0.72	720	5	4	117	per	lib	low	mod	low	tg	ms	wh/0897.bmp
525.60	0.72	721	5	3	42	per	con	low	mod	low	tg	ht	wh/1021.bmp
526.32	0.72	722	1	1	58	per	lib	mod	low	mod	nt	cr	nh/0960_nh.bmp
527.04	0.72	723	5	2	28	per	lib	mod	mod	mod	nt	n/a	nh/0098_nh.bmp
527.76	0.72	724	5	4	93	mem	lib	mod	mod	mod	nt	ht	nh/0002_nh.bmp
528.48	0.72	725	4	4	55	mem	con	mod	mod	low	nt	ms	nh/0392_nh.bmp
529.20	0.72	726	4	2	31	per	lib	mod	mod	mod	tg	ms	wh/0289.bmp
529.92	0.72	727	4	2	29	per	lib	mod	mod	mod	nt	cr	nh/0429_nh.bmp
530.64	0.72	728	6	3	83	per	lib	mod	mod	mod	nt	cr	nh/0750_nh.bmp
531.36	0.72	729	5	1	4	mem	con	mod	mod	mod	nt	ht	nh/0642_nh.bmp
532.08	0.72	730	5	4	127	per	lib	low	mod	low	nt	cr	nh/0932_nh.bmp
532.80	0.72	731	6	1	100	mem	lib	mod	mod	mod	nt	ms	nh/0919_nh.bmp
533.52	0.72	732	5	2	20	per	lib	mod	mod	mod	nt	fa	nh/0627_nh.bmp
534.24	0.72	733	1	4	104	per	con	low	low	low	tg	ms	wh/0423.bmp
534.96	0.72	734	5	3	81	per	lib	mod	mod	mod	nt	cr	nh/0473_nh.bmp
535.68	0.72	735	4	3	1	mem	lib	mod	mod	low	tg	ht	wh/0926.bmp
536.40	0.72	736	4	1	79	per	lib	low	mod	low	tg	ms	wh/0573.bmp
537.12	0.72	737	1	3	99	mem	con	low	low	mod	tg	ht	wh/0551.bmp
537.84	0.72	738	5	2	91	mem	lib	mod	mod	low	nt	ht	nh/0739_nh.bmp
538.56	0.72	739	6	4	127	per	lib	low	mod	low	nt	cr	nh/0932_nh.bmp
539.28	0.72	740	6	2	20	per	lib	mod	mod	mod	nt	fa	nh/0627_nh.bmp
540.00	0.72	741	1	1	85	mem	lib	low	low	mod	nt	ht	nh/0912_nh.bmp
540.72	0.72	742	3	3	43	per	con	low	mod	low	nt	cr	nh/0755_nh.bmp
541.44	0.72	743	5	1	16	mem	con	mod	mod	mod	nt	ht	nh/0935_nh.bmp
542.16	0.72	744	1	2	43	mem	con	low	low	low	tg	ms	wh/0456.bmp
542.88	0.72	745	1	3	58	per	con	mod	low	mod	tg	ht	wh/0218.bmp
543.60	0.72	746	6	4	30	per	con	mod	mod	mod	nt	cr	nh/0189_nh.bmp
544.32	0.72	747	5	2	31	per	lib	mod	mod	mod	tg	ms	wh/0289.bmp
545.04	0.72	748	6	4	20	per	con	mod	mod	mod	nt	cr	nh/0274_nh.bmp
545.76	0.72	749	5	4	114	per	lib	low	mod	low	nt	cr	nh/0648_nh.bmp
546.48	0.72	750	1	1	91	mem	lib	low	low	mod	tg	ht	wh/0905.bmp
547.20	0.72	751	5	1	48	per	con	mod	mod	mod	tg	ht	wh/0801.bmp
547.92	0.72	752	5	3	73	mem	con	mod	mod	mod	nt	n/a	nh/0204_nh.bmp
548.64	0.72	753	6	4	64	mem	con	mod	mod	low	tg	ht	wh/0435.bmp
549.36	0.72	754	1	4	35	mem	lib	low	low	mod	tg	ht	wh/0527.bmp
550.08	0.72	755	5	4	60	mem	con	mod	mod	low	tg	ht	wh/0515.bmp
550.80	0.72	756	1	1	125	mem	con	low	low	mod	nt	ht	nh/0866_nh.bmp
551.52	0.72	757	4	2	120	per	con	low	mod	low	nt	cr	nh/0514_nh.bmp
552.24	0.72	758	6	1	43	per	con	mod	mod	mod	tg	ms	wh/0605.bmp
552.96	0.72	759	6	1	9	mem	con	mod	mod	mod	nt	ht	nh/0984_nh.bmp
553.68	0.72	760	4	1	14	mem	con	mod	mod	mod	nt	ht	nh/0896_nh.bmp
554.40	0.72	761	4	1	73	per	lib	low	mod	low	nt	fa	nh/0251_nh.bmp
555.12	0.72	762	6	3	67	mem	con	mod	mod	mod	nt	ms	nh/0561_nh.bmp
555.84	0.72	763	6	1	47	per	con	mod	mod	mod	tg	ms	wh/0414.bmp
556.56	0.72	764	5	4	55	mem	con	mod	mod	low	nt	ms	nh/0392_nh.bmp
557.28	0.72	765	5	3	1	mem	lib	mod	mod	low	tg	ht	wh/0926.bmp
558.00	0.72	766	6	1	101	mem	lib	mod	mod	mod	tg	ht	wh/0847.bmp
558.72	0.72	767	6	3	38	per	con	low	mod	low	nt	n/a	nh/0168_nh.bmp
559.44	0.72	768	1	1	90	mem	lib	low	low	mod	nt	ms	nh/0977_nh.bmp
560.16	0.72	769	4	2	85	mem	lib	mod	mod	low	nt	ms	nh/0177_nh.bmp
560.88	0.72	770	5	1	70	per	lib	low	mod	low	tg	ms	wh/0853.bmp
561.60	0.72	771	6	1	2	mem	con	mod	mod	mod	tg	n/a	wh/0425.bmp
562.32	0.72	772	5	1	14	mem	con	mod	mod	mod	nt	ht	nh/0896_nh.bmp
563.04	0.72	773	6	4	21	per	con	mod	mod	mod	tg	ht	wh/0959.bmp
563.76	0.72	774	5	4	18	per	con	mod	mod	mod	tg	ht	wh/0017.bmp
564.48	0.72	775	5	1	73	per	lib	low	mod	low	nt	fa	nh/0251_nh.bmp
565.20	0.72	776	1	4	11	mem	con	low	low	low	tg	ms	wh/0651.bmp
565.92	0.72	777	5	3	37	per	con	low	mod	low	nt	cr	nh/0205_nh.bmp
566.64	0.72	778	5	2	114	per	con	low	mod	low	tg	ht	wh/0766.bmp
567.36	0.72	779	6	3	8	mem	lib	mod	mod	low	tg	ms	wh/0178.bmp
568.08	0.72	780	1	2	67	per	con	mod	low	mod	tg	ht	wh/0103.bmp
568.80	0.72	781	1	2	54	mem	lib	low	low	low	nt	ms	nh/0709_nh.bmp
569.52	0.72	782	6	3	72	mem	con	mod	mod	mod	tg	ht	wh/0965.bmp
570.24	0.72	783	6	1	12	mem	con	mod	mod	mod	tg	ht	wh/0955.bmp
570.96	0.72	784	6	2	21	per	lib	mod	mod	mod	tg	ht	wh/0899.bmp
571.68	0.72	785	6	2	19	per	lib	mod	mod	mod	tg	ht	wh/0658.bmp
572.40	0.72	786	6	2	91	mem	lib	mod	mod	low	nt	ht	nh/0739_nh.bmp
573.12	0.72	787	5	2	92	mem	lib	mod	mod	low	tg	ht	wh/0421.bmp
573.84	0.72	788	5	2	127	per	con	low	mod	low	nt	fa	nh/0145_nh.bmp
574.56	0.72	789	6	2	31	per	lib	mod	mod	mod	tg	ms	wh/0289.bmp
575.28	0.72	790	6	1	65	per	lib	low	mod	low	tg	ms	wh/0769.bmp
576.00	0.72	791	6	4	25	per	con	mod	mod	mod	nt	cr	nh/0405_nh.bmp
576.72	0.72	792	1	3	116	mem	lib	low	low	low	tg	ht	wh/0330.bmp
577.44	0.72	793	1	2	80	per	con	mod	low	mod	nt	cr	nh/0972_nh.bmp
578.16	0.72	794	6	4	117	per	lib	low	mod	low	tg	ms	wh/0897.bmp
578.88	0.72	795	6	3	15	mem	lib	mod	mod	low	nt	ht	nh/0115_nh.bmp
579.60	0.72	796	5	2	95	mem	lib	mod	mod	low	tg	ht	wh/0868.bmp
580.32	0.72	797	5	2	98	mem	con	mod	mod	low	tg	ht	wh/0529.bmp
581.04	0.72	798	5	1	79	per	lib	low	mod	low	tg	ms	wh/0573.bmp
581.76	0.72	799	6	4	123	per	lib	low	mod	low	tg	ht	wh/0298.bmp
582.48	0.72	800	6	3	73	mem	con	mod	mod	mod	nt	n/a	nh/0204_nh.bmp
583.20	0.72	801	6	4	85	mem	lib	mod	mod	mod	tg	ht	wh/0596.bmp
583.92	0.72	802	5	4	83	mem	lib	mod	mod	mod	tg	ms	wh/0600.bmp
584.64	0.72	803	5	2	120	per	con	low	mod	low	nt	cr	nh/0514_nh.bmp
585.36	0.72	804	5	2	85	mem	lib	mod	mod	low	nt	ms	nh/0177_nh.bmp
586.08	0.72	805	6	1	68	per	lib	low	mod	low	tg	ht	wh/0472.bmp
586.80	0.72	806	6	4	124	per	lib	low	mod	low	tg	ht	wh/0704.bmp
587.52	0.72	807	5	3	7	mem	lib	mod	mod	low	tg	ht	wh/0014.bmp
588.24	0.72	808	5	1	37	per	con	mod	mod	mod	nt	cr	nh/0466_nh.bmp
588.96	0.72	809	5	1	5	mem	con	mod	mod	mod	tg	ht	wh/0001.bmp
589.68	0.72	810	6	4	93	mem	lib	mod	mod	mod	nt	ht	nh/0002_nh.bmp
590.40	0.72	811	6	3	7	mem	lib	mod	mod	low	tg	ht	wh/0014.bmp
591.12	0.72	812	4	4	63	mem	con	mod	mod	low	nt	ms	nh/0163_nh.bmp
591.84	0.72	813	6	2	95	mem	lib	mod	mod	low	tg	ht	wh/0868.bmp
592.56	0.72	814	6	1	98	mem	lib	mod	mod	mod	nt	ht	nh/0938_nh.bmp
593.28	0.72	815	1	4	8	mem	con	low	low	low	tg	ms	wh/0499.bmp
594.00	0.72	816	6	1	38	per	con	mod	mod	mod	nt	cr	nh/0681_nh.bmp
594.72	0.72	817	6	2	114	per	con	low	mod	low	tg	ht	wh/0766.bmp
595.44	0.72	818	5	1	106	mem	lib	mod	mod	mod	nt	ht	nh/0857_nh.bmp
596.16	0.72	819	6	3	47	per	con	low	mod	low	tg	ms	wh/0727.bmp
596.88	0.72	820	6	4	114	per	lib	low	mod	low	nt	cr	nh/0648_nh.bmp
597.60	0.72	821	6	4	57	mem	con	mod	mod	low	nt	ht	nh/0353_nh.bmp
598.32	0.72	822	1	4	12	mem	con	low	low	low	tg	ht	wh/0903.bmp
599.04	0.72	823	5	3	96	per	lib	mod	mod	mod	tg	ht	wh/0637.bmp
599.76	0.72	824	6	4	52	mem	con	mod	mod	low	tg	ht	wh/0133.bmp
600.48	0.72	825	6	1	5	mem	con	mod	mod	mod	tg	ht	wh/0001.bmp
601.20	0.72	826	6	4	83	mem	lib	mod	mod	mod	tg	ms	wh/0600.bmp
601.92	0.72	827	1	4	105	per	con	low	low	low	tg	ms	wh/1012.bmp
602.64	0.72	828	6	3	2	mem	lib	mod	mod	low	nt	ht	nh/0027_nh.bmp
603.36	0.72	829	5	4	62	mem	con	mod	mod	low	tg	ht	wh/0155.bmp
604.08	0.72	830	6	4	51	mem	con	mod	mod	low	nt	ht	nh/0031_nh.bmp
604.80	0.72	831	6	3	96	per	lib	mod	mod	mod	tg	ht	wh/0637.bmp
605.52	0.72	832	6	1	73	per	lib	low	mod	low	nt	fa	nh/0251_nh.bmp
606.24	0.72	833	1	2	41	mem	con	low	low	low	tg	ht	wh/0522.bmp
606.96	0.72	834	6	2	28	per	lib	mod	mod	mod	nt	n/a	nh/0098_nh.bmp
607.68	0.72	835	5	2	29	per	lib	mod	mod	mod	nt	cr	nh/0429_nh.bmp
608.40	0.72	836	6	1	76	per	lib	low	mod	low	nt	cr	nh/0836_nh.bmp
609.12	0.72	837	6	3	79	mem	con	mod	mod	mod	tg	ht	wh/0698.bmp
609.84	0.72	838	6	2	29	per	lib	mod	mod	mod	nt	cr	nh/0429_nh.bmp
610.56	0.72	839	1	1	127	mem	con	low	low	mod	tg	ht	wh/0850.bmp
611.28	0.72	840	6	2	101	mem	con	mod	mod	low	nt	n/a	nh/0997_nh.bmp
612.00	0.72	841	6	1	16	mem	con	mod	mod	mod	nt	ht	nh/0935_nh.bmp
612.72	0.72	842	6	3	82	per	lib	mod	mod	mod	tg	ht	wh/0679.bmp
613.44	0.72	843	6	1	106	mem	lib	mod	mod	mod	nt	ht	nh/0857_nh.bmp
614.16	0.72	844	6	1	79	per	lib	low	mod	low	tg	ms	wh/0573.bmp
614.88	0.72	845	6	1	14	mem	con	mod	mod	mod	nt	ht	nh/0896_nh.bmp
615.60	0.72	846	6	4	115	per	lib	low	mod	low	tg	ht	wh/0379.bmp
616.32	0.72	847	4	3	43	per	con	low	mod	low	nt	cr	nh/0755_nh.bmp
617.04	0.72	848	5	3	43	per	con	low	mod	low	nt	cr	nh/0755_nh.bmp
617.76	0.72	849	6	3	74	mem	con	mod	mod	mod	nt	ht	nh/0841_nh.bmp
618.48	0.72	850	6	2	122	per	con	low	mod	low	tg	ms	wh/0156.bmp
619.20	0.72	851	6	4	62	mem	con	mod	mod	low	tg	ht	wh/0155.bmp
619.92	0.72	852	6	4	60	mem	con	mod	mod	low	tg	ht	wh/0515.bmp
620.64	0.72	853	1	2	11	per	lib	low	low	low	tg	ht	wh/0654.bmp
621.36	0.72	854	5	4	63	mem	con	mod	mod	low	nt	ms	nh/0163_nh.bmp
622.08	0.72	855	6	2	127	per	con	low	mod	low	nt	fa	nh/0145_nh.bmp
622.80	0.72	856	6	1	4	mem	con	mod	mod	mod	nt	ht	nh/0642_nh.bmp
623.52	0.72	857	1	2	13	per	lib	low	low	low	nt	cr	nh/0662_nh.bmp
624.24	0.72	858	5	3	3	mem	lib	mod	mod	low	tg	ht	wh/0649.bmp
624.96	0.72	859	6	2	120	per	con	low	mod	low	nt	cr	nh/0514_nh.bmp
625.68	0.72	860	6	3	91	per	lib	mod	mod	mod	nt	cr	nh/0100_nh.bmp
626.40	0.72	861	6	2	81	mem	lib	mod	mod	low	tg	ht	wh/0733.bmp
627.12	0.72	862	6	1	37	per	con	mod	mod	mod	nt	cr	nh/0466_nh.bmp
627.84	0.72	863	6	1	6	mem	con	mod	mod	mod	tg	n/a	wh/0700.bmp
628.56	0.72	864	6	3	3	mem	lib	mod	mod	low	tg	ht	wh/0649.bmp
629.28	0.72	865	6	2	23	per	lib	mod	mod	mod	tg	ht	wh/0621.bmp
630.00	0.72	866	6	2	92	mem	lib	mod	mod	low	tg	ht	wh/0421.bmp
630.72	0.72	867	6	2	85	mem	lib	mod	mod	low	nt	ms	nh/0177_nh.bmp
631.44	0.72	868	6	1	48	per	con	mod	mod	mod	tg	ht	wh/0801.bmp
632.16	0.72	869	6	2	104	mem	con	mod	mod	low	nt	ms	nh/0377_nh.bmp
632.88	0.72	870	5	2	83	mem	lib	mod	mod	low	nt	ht	nh/0675_nh.bmp
633.60	0.72	871	6	3	37	per	con	low	mod	low	nt	cr	nh/0205_nh.bmp
634.32	0.72	872	1	4	46	mem	lib	low	low	mod	nt	ht	nh/0322_nh.bmp
635.04	0.72	873	6	1	45	per	con	mod	mod	mod	nt	cr	nh/0981_nh.bmp
635.76	0.72	874	6	4	84	mem	lib	mod	mod	mod	nt	ht	nh/0724_nh.bmp
636.48	0.72	875	6	3	12	mem	lib	mod	mod	low	nt	ht	nh/0741_nh.bmp
637.20	0.72	876	5	4	96	mem	lib	mod	mod	mod	nt	ht	nh/0920_nh.bmp
637.92	0.72	877	5	1	105	mem	lib	mod	mod	mod	tg	ht	wh/0878.bmp
638.64	0.72	878	6	4	18	per	con	mod	mod	mod	tg	ht	wh/0017.bmp
639.36	0.72	879	1	4	73	per	lib	mod	low	mod	nt	cr	nh/0885_nh.bmp
640.08	0.72	880	6	3	65	mem	con	mod	mod	mod	tg	ht	wh/0785.bmp
640.80	0.72	881	6	1	105	mem	lib	mod	mod	mod	tg	ht	wh/0878.bmp
641.52	0.72	882	6	4	96	mem	lib	mod	mod	mod	nt	ht	nh/0920_nh.bmp
642.24	0.72	883	1	2	69	per	con	mod	low	mod	nt	cr	nh/0083_nh.bmp
642.96	0.72	884	6	2	86	mem	lib	mod	mod	low	nt	ht	nh/0217_nh.bmp
643.68	0.72	885	6	2	98	mem	con	mod	mod	low	tg	ht	wh/0529.bmp
644.40	0.72	886	6	3	71	mem	con	mod	mod	mod	tg	ht	wh/0463.bmp
645.12	0.72	887	6	3	42	per	con	low	mod	low	tg	ht	wh/1021.bmp
645.84	0.72	888	6	3	1	mem	lib	mod	mod	low	tg	ht	wh/0926.bmp
646.56	0.72	889	6	1	70	per	lib	low	mod	low	tg	ms	wh/0853.bmp
647.28	0.72	890	6	3	81	per	lib	mod	mod	mod	nt	cr	nh/0473_nh.bmp
648.00	0.72	891	6	2	111	mem	con	mod	mod	low	nt	ms	nh/0019_nh.bmp
648.72	0.72	892	6	4	55	mem	con	mod	mod	low	nt	ms	nh/0392_nh.bmp
649.44	0.72	893	6	3	43	per	con	low	mod	low	nt	cr	nh/0755_nh.bmp
650.16	0.72	894	1	4	72	per	lib	mod	low	mod	nt	fa	nh/0449_nh.bmp
650.88	0.72	895	6	4	63	mem	con	mod	mod	low	nt	ms	nh/0163_nh.bmp
651.60	0.72	896	6	2	83	mem	lib	mod	mod	low	nt	ht	nh/0675_nh.bmp
