onset	duration	block	trial	task	crit	disc	mem_disc	per_disc	trial_type	mem_type	per_type	left_option	resp_hand	response	accuracy	response_time	stim_file	pay	pay_tot
7.2	7.2	1	n/a	mem	lib	low	n/a	n/a	instructions	n/a	n/a	n/a	n/a	n/a	n/a	n/a	n/a	n/a	n/a
16.16	0.84622	1	1	mem	lib	low	low	low	tg	tg	tg	tg	right	nt	ms	0.44622	wh/0676.bmp	-0.1	15.55
19.76	1.31174	1	2	mem	lib	low	low	low	tg	tg	nt	nt	left	nt	ms	0.91174	nh/0825_nh.bmp	-0.1	15.45
24.08	0.93116	1	3	mem	lib	low	low	low	nt	nt	nt	tg	left	tg	fa	0.53116	nh/0112_nh.bmp	0	15.45
28.4	0.91537	1	4	mem	lib	low	low	low	nt	nt	nt	tg	right	nt	cr	0.51537	nh/0999_nh.bmp	0.05	15.5
31.28	0.96186	1	5	mem	lib	low	low	low	nt	nt	nt	tg	left	tg	fa	0.56186	nh/0431_nh.bmp	0	15.5
34.88	0.85281	1	6	mem	lib	low	low	low	nt	nt	tg	nt	right	tg	fa	0.45281	wh/0488.bmp	0	15.5
37.76	0.83671	1	7	mem	lib	low	low	low	tg	tg	tg	nt	right	tg	ht	0.43671	wh/0859.bmp	0.05	15.55
40.64	0.86137	1	8	mem	lib	low	low	low	nt	nt	tg	nt	right	tg	fa	0.46137	wh/0215.bmp	0	15.55
43.52	1.31095	1	9	mem	lib	low	low	low	tg	tg	nt	nt	right	tg	ht	0.91095	nh/0175_nh.bmp	0.05	15.6
46.4	1.19769	1	10	mem	lib	low	low	low	nt	nt	tg	tg	left	tg	fa	0.79769	wh/0148.bmp	0	15.6
50.72	1.1379	1	11	mem	lib	low	low	low	tg	tg	nt	nt	left	nt	ms	0.7379	nh/0677_nh.bmp	-0.1	15.5
54.32	1.5617	1	12	mem	lib	low	low	low	nt	nt	nt	tg	right	nt	cr	1.1617	nh/1007_nh.bmp	0.05	15.55
57.92	1.01642	1	13	mem	lib	low	low	low	tg	tg	tg	nt	right	tg	ht	0.61642	wh/0360.bmp	0.05	15.6
60.8	1.23488	1	14	mem	lib	low	low	low	nt	nt	tg	tg	right	nt	cr	0.83488	wh/0528.bmp	0.05	15.65
65.12	1.17592	1	15	mem	lib	low	low	low	tg	tg	nt	nt	right	tg	ht	0.77592	nh/0138_nh.bmp	0.05	15.7
68	1.39891	1	16	mem	lib	low	low	low	tg	tg	tg	tg	left	tg	ht	0.99891	wh/0842.bmp	0.05	15.75
70.56	3.6	1	n/a	mem	lib	low	n/a	n/a	feedback	n/a	n/a	n/a	n/a	n/a	n/a	n/a	n/a	n/a	n/a
75.6	7.2	2	n/a	per	con	mod	n/a	n/a	instructions	n/a	n/a	n/a	n/a	n/a	n/a	n/a	n/a	n/a	n/a
83.84	2.56	2	17	per	con	mod	mod	mod	nt	nt	nt	tg	n/a	mr	n/a	n/a	nh/0904_nh.bmp	0	15.75
86.72	0.8989	2	18	per	con	mod	mod	mod	nt	tg	nt	tg	right	nt	cr	0.4989	nh/0337_nh.bmp	0.05	15.8
90.32	1.07099	2	19	per	con	mod	mod	mod	nt	nt	nt	nt	left	nt	cr	0.67099	nh/0650_nh.bmp	0.05	15.85
93.2	0.96487	2	20	per	con	mod	mod	mod	tg	nt	tg	tg	right	nt	ms	0.56487	wh/0805.bmp	0	15.85
96.8	1.112	2	21	per	con	mod	mod	mod	tg	nt	tg	tg	left	tg	ht	0.712	wh/0209.bmp	0.05	15.9
99.68	1.0839	2	22	per	con	mod	mod	mod	nt	nt	nt	tg	right	nt	cr	0.6839	nh/0810_nh.bmp	0.05	15.95
103.28	0.9948	2	23	per	con	mod	mod	mod	tg	tg	tg	tg	left	tg	ht	0.5948	wh/0408.bmp	0.05	16
106.16	0.93979	2	24	per	con	mod	mod	mod	tg	tg	tg	tg	left	tg	ht	0.53979	wh/0833.bmp	0.05	16.05
109.04	0.88191	2	25	per	con	mod	mod	mod	tg	tg	tg	nt	right	tg	ht	0.48191	wh/0599.bmp	0.05	16.1
113.36	1.0641	2	26	per	con	mod	mod	mod	nt	tg	nt	tg	right	nt	cr	0.6641	nh/0560_nh.bmp	0.05	16.15
116.24	0.93641	2	27	per	con	mod	mod	mod	nt	tg	nt	tg	right	nt	cr	0.53641	nh/0995_nh.bmp	0.05	16.2
119.12	1.13793	2	28	per	con	mod	mod	mod	tg	nt	tg	tg	left	tg	ht	0.73793	wh/0273.bmp	0.05	16.25
122	1.2737	2	29	per	con	mod	mod	mod	nt	tg	nt	nt	left	nt	cr	0.8737	nh/0623_nh.bmp	0.05	16.3
126.32	1.20688	2	30	per	con	mod	mod	mod	tg	tg	tg	tg	left	tg	ht	0.80688	wh/0797.bmp	0.05	16.35
130.64	1.25389	2	31	per	con	mod	mod	mod	nt	nt	nt	tg	right	nt	cr	0.85389	nh/0182_nh.bmp	0.05	16.4
133.52	1.12375	2	32	per	con	mod	mod	mod	tg	nt	tg	tg	left	tg	ht	0.72375	wh/0428.bmp	0.05	16.45
137.52	3.6	2	n/a	per	con	mod	n/a	n/a	feedback	n/a	n/a	n/a	n/a	n/a	n/a	n/a	n/a	n/a	n/a
142.56	7.2	3	n/a	mem	lib	mod	n/a	n/a	instructions	n/a	n/a	n/a	n/a	n/a	n/a	n/a	n/a	n/a	n/a
151.52	1.00499	3	33	mem	lib	mod	mod	low	tg	tg	nt	tg	left	tg	ht	0.60499	nh/0640_nh.bmp	0.05	16.5
154.4	1.1549	3	34	mem	lib	mod	mod	low	nt	nt	nt	tg	left	tg	fa	0.7549	nh/0336_nh.bmp	0	16.5
158.72	1.6407	3	35	mem	lib	mod	mod	low	nt	nt	tg	tg	left	tg	fa	1.2407	wh/0153.bmp	0	16.5
161.6	0.92505	3	36	mem	lib	mod	mod	low	tg	tg	nt	tg	left	tg	ht	0.52505	nh/0064_nh.bmp	0.05	16.55
165.92	0.96728	3	37	mem	lib	mod	mod	low	tg	tg	tg	tg	left	tg	ht	0.56728	wh/0780.bmp	0.05	16.6
169.52	0.96001	3	38	mem	lib	mod	mod	low	tg	tg	nt	tg	left	tg	ht	0.56001	nh/1014_nh.bmp	0.05	16.65
173.12	1.17176	3	39	mem	lib	mod	mod	low	nt	nt	tg	tg	right	nt	cr	0.77176	wh/0802.bmp	0.05	16.7
176	0.98916	3	40	mem	lib	mod	mod	low	tg	tg	tg	nt	right	tg	ht	0.58916	wh/0254.bmp	0.05	16.75
180.32	1.06707	3	41	mem	lib	mod	mod	low	tg	tg	nt	tg	left	tg	ht	0.66707	nh/0111_nh.bmp	0.05	16.8
183.2	1.22094	3	42	mem	lib	mod	mod	low	tg	tg	tg	tg	left	tg	ht	0.82094	wh/0012.bmp	0.05	16.85
186.8	1.15794	3	43	mem	lib	mod	mod	low	tg	tg	tg	nt	right	tg	ht	0.75794	wh/0139.bmp	0.05	16.9
189.68	1.32891	3	44	mem	lib	mod	mod	low	nt	nt	nt	nt	left	nt	cr	0.92891	nh/0150_nh.bmp	0.05	16.95
192.56	1.15074	3	45	mem	lib	mod	mod	low	nt	nt	tg	tg	right	nt	cr	0.75074	wh/0613.bmp	0.05	17
196.16	1.26879	3	46	mem	lib	mod	mod	low	nt	nt	tg	nt	left	nt	cr	0.86879	wh/0417.bmp	0.05	17.05
199.04	1.15895	3	47	mem	lib	mod	mod	low	nt	nt	nt	nt	left	nt	cr	0.75895	nh/0079_nh.bmp	0.05	17.1
201.92	1.1339	3	48	mem	lib	mod	mod	low	nt	nt	nt	tg	right	nt	cr	0.7339	nh/0451_nh.bmp	0.05	17.15
205.92	3.6	3	n/a	mem	lib	mod	n/a	n/a	feedback	n/a	n/a	n/a	n/a	n/a	n/a	n/a	n/a	n/a	n/a
210.96	7.2	4	n/a	mem	con	mod	n/a	n/a	instructions	n/a	n/a	n/a	n/a	n/a	n/a	n/a	n/a	n/a	n/a
219.2	1.09751	4	49	mem	con	mod	mod	mod	nt	nt	tg	nt	left	nt	cr	0.69751	wh/0784.bmp	0.05	17.2
222.08	0.92309	4	50	mem	con	mod	mod	mod	nt	nt	nt	tg	right	nt	cr	0.52309	nh/0397_nh.bmp	0.05	17.25
224.96	1.15282	4	51	mem	con	mod	mod	mod	tg	tg	tg	nt	right	tg	ht	0.75282	wh/0239.bmp	0.05	17.3
227.84	0.90304	4	52	mem	con	mod	mod	mod	tg	tg	nt	tg	right	nt	ms	0.50304	nh/0378_nh.bmp	0	17.3
231.44	0.99004	4	53	mem	con	mod	mod	mod	nt	nt	nt	nt	left	nt	cr	0.59004	nh/0462_nh.bmp	0.05	17.35
234.32	0.88528	4	54	mem	con	mod	mod	mod	nt	nt	tg	nt	left	nt	cr	0.48528	wh/0563.bmp	0.05	17.4
238.64	1.5407	4	55	mem	con	mod	mod	mod	tg	tg	nt	nt	right	tg	ht	1.1407	nh/0717_nh.bmp	0.05	17.45
241.52	1.12575	4	56	mem	con	mod	mod	mod	nt	nt	nt	nt	left	nt	cr	0.72575	nh/0947_nh.bmp	0.05	17.5
244.4	0.98577	4	57	mem	con	mod	mod	mod	nt	nt	nt	tg	right	nt	cr	0.58577	nh/0973_nh.bmp	0.05	17.55
248.72	0.97729	4	58	mem	con	mod	mod	mod	tg	tg	nt	nt	right	tg	ht	0.57729	nh/0020_nh.bmp	0.05	17.6
251.6	0.9455	4	59	mem	con	mod	mod	mod	tg	tg	nt	tg	left	tg	ht	0.5455	nh/0952_nh.bmp	0.05	17.65
254.48	0.95523	4	60	mem	con	mod	mod	mod	tg	tg	tg	nt	right	tg	ht	0.55523	wh/0694.bmp	0.05	17.7
257.36	0.90235	4	61	mem	con	mod	mod	mod	nt	nt	tg	tg	right	nt	cr	0.50235	wh/0548.bmp	0.05	17.75
261.68	0.94451	4	62	mem	con	mod	mod	mod	tg	tg	tg	tg	left	tg	ht	0.54451	wh/0603.bmp	0.05	17.8
264.56	0.99481	4	63	mem	con	mod	mod	mod	nt	nt	tg	tg	right	nt	cr	0.59481	wh/0447.bmp	0.05	17.85
267.44	0.96748	4	64	mem	con	mod	mod	mod	tg	tg	tg	nt	right	tg	ht	0.56748	wh/0556.bmp	0.05	17.9
270	3.6	4	n/a	mem	con	mod	n/a	n/a	feedback	n/a	n/a	n/a	n/a	n/a	n/a	n/a	n/a	n/a	n/a
273.6	7.2	5	n/a	mem	con	low	n/a	n/a	instructions	n/a	n/a	n/a	n/a	n/a	n/a	n/a	n/a	n/a	n/a
281.12	1.48	5	65	mem	con	low	low	low	nt	nt	tg	nt	right	tg	fa	1.08	wh/0370.bmp	-0.1	17.8
284.72	0.87684	5	66	mem	con	low	low	low	nt	nt	nt	tg	right	nt	cr	0.47684	nh/0185_nh.bmp	0.05	17.85
287.6	1.00112	5	67	mem	con	low	low	low	tg	tg	nt	tg	right	nt	ms	0.60112	nh/0144_nh.bmp	0	17.85
290.48	1.5908	5	68	mem	con	low	low	low	tg	tg	tg	nt	left	nt	ms	1.1908	wh/0181.bmp	0	17.85
293.36	0.95267	5	69	mem	con	low	low	low	tg	tg	nt	nt	left	nt	ms	0.55267	nh/0639_nh.bmp	0	17.85
296.24	0.91332	5	70	mem	con	low	low	low	tg	tg	nt	tg	right	nt	ms	0.51332	nh/0219_nh.bmp	0	17.85
300.56	1.00548	5	71	mem	con	low	low	low	nt	nt	tg	nt	left	nt	cr	0.60548	wh/0930.bmp	0.05	17.9
303.44	0.90074	5	72	mem	con	low	low	low	tg	tg	nt	tg	right	nt	ms	0.50074	nh/0005_nh.bmp	0	17.9
307.04	1.09828	5	73	mem	con	low	low	low	nt	nt	tg	tg	right	nt	cr	0.69828	wh/0701.bmp	0.05	17.95
311.36	0.89541	5	74	mem	con	low	low	low	nt	nt	nt	nt	left	nt	cr	0.49541	nh/0815_nh.bmp	0.05	18
314.24	0.93534	5	75	mem	con	low	low	low	nt	nt	tg	nt	left	nt	cr	0.53534	wh/0864.bmp	0.05	18.05
317.84	0.87147	5	76	mem	con	low	low	low	nt	nt	nt	tg	right	nt	cr	0.47147	nh/0789_nh.bmp	0.05	18.1
320.72	0.85307	5	77	mem	con	low	low	low	nt	nt	nt	nt	left	nt	cr	0.45307	nh/0579_nh.bmp	0.05	18.15
323.6	1.05465	5	78	mem	con	low	low	low	tg	tg	tg	tg	right	nt	ms	0.65465	wh/0770.bmp	0	18.15
326.48	1.26571	5	79	mem	con	low	low	low	tg	tg	tg	tg	left	tg	ht	0.86571	wh/0224.bmp	0.05	18.2
330.08	1.04429	5	80	mem	con	low	low	low	tg	tg	tg	nt	right	tg	ht	0.64429	wh/0240.bmp	0.05	18.25
333.36	3.6	5	n/a	mem	con	low	n/a	n/a	feedback	n/a	n/a	n/a	n/a	n/a	n/a	n/a	n/a	n/a	n/a
336.96	7.2	6	n/a	per	con	low	n/a	n/a	instructions	n/a	n/a	n/a	n/a	n/a	n/a	n/a	n/a	n/a	n/a
344.48	1.29589	6	81	per	con	low	mod	low	tg	tg	tg	nt	left	nt	ms	0.89589	wh/0820.bmp	0	18.25
347.36	0.96296	6	82	per	con	low	mod	low	tg	tg	tg	nt	left	nt	ms	0.56296	wh/0073.bmp	0	18.25
351.68	1.07402	6	83	per	con	low	mod	low	tg	tg	tg	nt	right	tg	ht	0.67402	wh/0582.bmp	0.05	18.3
355.28	1.05214	6	84	per	con	low	mod	low	tg	nt	tg	nt	left	nt	ms	0.65214	wh/0338.bmp	0	18.3
358.88	1.04847	6	85	per	con	low	mod	low	tg	tg	tg	tg	right	nt	ms	0.64847	wh/0491.bmp	0	18.3
361.76	1.09274	6	86	per	con	low	mod	low	nt	nt	nt	tg	right	nt	cr	0.69274	nh/0284_nh.bmp	0.05	18.35
366.08	1.18379	6	87	per	con	low	mod	low	nt	tg	nt	tg	right	nt	cr	0.78379	nh/0875_nh.bmp	0.05	18.4
370.4	1.12795	6	88	per	con	low	mod	low	nt	nt	nt	nt	left	nt	cr	0.72795	nh/0299_nh.bmp	0.05	18.45
374	1.07446	6	89	per	con	low	mod	low	nt	nt	nt	nt	left	nt	cr	0.67446	nh/0382_nh.bmp	0.05	18.5
376.88	1.38979	6	90	per	con	low	mod	low	tg	nt	tg	tg	right	nt	ms	0.98979	wh/0134.bmp	0	18.5
379.76	1.1389	6	91	per	con	low	mod	low	tg	nt	tg	tg	right	nt	ms	0.7389	wh/0345.bmp	0	18.5
382.64	1.0056	6	92	per	con	low	mod	low	nt	tg	nt	tg	right	nt	cr	0.6056	nh/1004_nh.bmp	0.05	18.55
385.52	0.95367	6	93	per	con	low	mod	low	nt	tg	nt	tg	right	nt	cr	0.55367	nh/0574_nh.bmp	0.05	18.6
389.12	1.02941	6	94	per	con	low	mod	low	nt	tg	nt	tg	right	nt	cr	0.62941	nh/0241_nh.bmp	0.05	18.65
392.72	1.26671	6	95	per	con	low	mod	low	nt	nt	nt	nt	left	nt	cr	0.86671	nh/0329_nh.bmp	0.05	18.7
397.04	0.96773	6	96	per	con	low	mod	low	tg	nt	tg	nt	left	nt	ms	0.56773	wh/0510.bmp	0	18.7
399.6	3.6	6	n/a	per	con	low	n/a	n/a	feedback	n/a	n/a	n/a	n/a	n/a	n/a	n/a	n/a	n/a	n/a
403.2	7.2	7	n/a	per	lib	mod	n/a	n/a	instructions	n/a	n/a	n/a	n/a	n/a	n/a	n/a	n/a	n/a	n/a
410.72	1.15097	7	97	per	lib	mod	low	mod	nt	nt	nt	tg	right	nt	cr	0.75097	nh/0736_nh.bmp	0.05	18.75
414.32	1.04671	7	98	per	lib	mod	low	mod	nt	tg	nt	nt	right	tg	fa	0.64671	nh/1008_nh.bmp	0	18.75
417.2	1.02438	7	99	per	lib	mod	low	mod	nt	tg	nt	nt	left	nt	cr	0.62438	nh/0840_nh.bmp	0.05	18.8
421.52	1.3279	7	100	per	lib	mod	low	mod	nt	nt	nt	tg	left	tg	fa	0.9279	nh/0838_nh.bmp	0	18.8
424.4	0.98983	7	101	per	lib	mod	low	mod	tg	tg	tg	nt	right	tg	ht	0.58983	wh/0559.bmp	0.05	18.85
427.28	0.91711	7	102	per	lib	mod	low	mod	tg	nt	tg	nt	right	tg	ht	0.51711	wh/0949.bmp	0.05	18.9
430.16	1.4788	7	103	per	lib	mod	low	mod	nt	tg	nt	tg	right	nt	cr	1.0788	nh/0389_nh.bmp	0.05	18.95
433.04	1.03033	7	104	per	lib	mod	low	mod	tg	tg	tg	nt	right	tg	ht	0.63033	wh/0532.bmp	0.05	19
435.92	0.96632	7	105	per	lib	mod	low	mod	nt	tg	nt	nt	left	nt	cr	0.56632	nh/0668_nh.bmp	0.05	19.05
438.8	1.09881	7	106	per	lib	mod	low	mod	tg	tg	tg	tg	left	tg	ht	0.69881	wh/0101.bmp	0.05	19.1
443.12	1.07469	7	107	per	lib	mod	low	mod	tg	nt	tg	tg	left	tg	ht	0.67469	wh/1024.bmp	0.05	19.15
446	1.19892	7	108	per	lib	mod	low	mod	nt	nt	nt	nt	left	nt	cr	0.79892	nh/1018_nh.bmp	0.05	19.2
448.88	1.05063	7	109	per	lib	mod	low	mod	tg	nt	tg	tg	left	tg	ht	0.65063	wh/0461.bmp	0.05	19.25
451.76	0.95862	7	110	per	lib	mod	low	mod	tg	tg	tg	tg	left	tg	ht	0.55862	wh/0631.bmp	0.05	19.3
455.36	1.11202	7	111	per	lib	mod	low	mod	tg	nt	tg	nt	left	nt	ms	0.71202	wh/0849.bmp	-0.1	19.2
458.24	1.27893	7	112	per	lib	mod	low	mod	nt	nt	nt	tg	right	nt	cr	0.87893	nh/0781_nh.bmp	0.05	19.25
462.24	3.6	7	n/a	per	lib	mod	n/a	n/a	feedback	n/a	n/a	n/a	n/a	n/a	n/a	n/a	n/a	n/a	n/a
467.28	7.2	8	n/a	per	lib	low	n/a	n/a	instructions	n/a	n/a	n/a	n/a	n/a	n/a	n/a	n/a	n/a	n/a
476.24	1.4329	8	113	per	lib	low	low	low	nt	tg	nt	tg	right	nt	cr	1.0329	nh/0280_nh.bmp	0.05	19.3
480.56	1.00111	8	114	per	lib	low	low	low	nt	tg	nt	nt	left	nt	cr	0.60111	nh/0880_nh.bmp	0.05	19.35
483.44	1.21288	8	115	per	lib	low	low	low	tg	tg	tg	tg	right	nt	ms	0.81288	wh/0244.bmp	-0.1	19.25
487.04	0.94279	8	116	per	lib	low	low	low	nt	nt	nt	tg	right	nt	cr	0.54279	nh/0090_nh.bmp	0.05	19.3
490.64	1.29476	8	117	per	lib	low	low	low	nt	tg	nt	tg	right	nt	cr	0.89476	nh/0570_nh.bmp	0.05	19.35
493.52	1.16893	8	118	per	lib	low	low	low	nt	nt	nt	tg	right	nt	cr	0.76893	nh/0711_nh.bmp	0.05	19.4
496.4	1.02978	8	119	per	lib	low	low	low	tg	tg	tg	tg	right	nt	ms	0.62978	wh/0045.bmp	-0.1	19.3
500	0.98591	8	120	per	lib	low	low	low	tg	nt	tg	nt	right	tg	ht	0.58591	wh/0831.bmp	0.05	19.35
504.32	0.94831	8	121	per	lib	low	low	low	tg	nt	tg	tg	right	nt	ms	0.54831	wh/0088.bmp	-0.1	19.25
507.2	1.09419	8	122	per	lib	low	low	low	tg	tg	tg	tg	right	nt	ms	0.69419	wh/0617.bmp	-0.1	19.15
510.08	1.06554	8	123	per	lib	low	low	low	tg	tg	tg	tg	right	nt	ms	0.66554	wh/0063.bmp	-0.1	19.05
513.68	0.96583	8	124	per	lib	low	low	low	tg	nt	tg	nt	right	tg	ht	0.56583	wh/1009.bmp	0.05	19.1
518	1.4128	8	125	per	lib	low	low	low	nt	tg	nt	nt	left	nt	cr	1.0128	nh/0929_nh.bmp	0.05	19.15
522.32	1.25481	8	126	per	lib	low	low	low	tg	nt	tg	nt	right	tg	ht	0.85481	wh/0292.bmp	0.05	19.2
525.2	1.23791	8	127	per	lib	low	low	low	nt	nt	nt	nt	left	nt	cr	0.83791	nh/0197_nh.bmp	0.05	19.25
528.08	1.08056	8	128	per	lib	low	low	low	nt	nt	nt	nt	left	nt	cr	0.68056	nh/0053_nh.bmp	0.05	19.3
532.08	3.6	8	n/a	per	lib	low	n/a	n/a	feedback	n/a	n/a	n/a	n/a	n/a	n/a	n/a	n/a	n/a	n/a
