onset	duration	trial	pres	ts_blk	ts_trl	task	crit	disc	mem_disc	per_disc	per_type	accuracy	stim_file
7.20	0.72	1	1	5	116	mem	con	mod	mod	low	tg	ht	wh/0153.bmp
7.92	0.72	2	1	8	91	per	lib	mod	mod	mod	nt	fa	nh/0319_nh.bmp
8.64	0.72	3	1	6	8	mem	con	low	low	low	nt	ht	nh/0431_nh.bmp
9.36	0.72	4	1	6	30	per	lib	low	mod	low	nt	cr	nh/0382_nh.bmp
10.08	0.72	5	1	6	85	mem	con	mod	mod	mod	nt	ht	nh/0593_nh.bmp
10.80	0.72	6	1	6	77	mem	lib	mod	mod	low	nt	ht	nh/0029_nh.bmp
11.52	0.72	7	1	5	91	per	con	low	mod	low	tg	ht	wh/0690.bmp
12.24	0.72	8	1	6	31	per	lib	low	mod	low	nt	cr	nh/0329_nh.bmp
12.96	0.72	9	1	8	20	mem	con	mod	mod	low	nt	ht	nh/0635_nh.bmp
13.68	0.72	10	1	7	18	mem	lib	mod	mod	low	nt	ht	nh/0190_nh.bmp
14.40	0.72	11	1	6	42	per	con	low	low	low	nt	cr	nh/0197_nh.bmp
15.12	0.72	12	1	8	94	per	lib	mod	mod	mod	nt	cr	nh/0187_nh.bmp
15.84	0.72	13	1	6	76	mem	lib	mod	mod	low	nt	ht	nh/0893_nh.bmp
16.56	0.72	14	1	6	3	mem	con	low	low	low	tg	ht	wh/0148.bmp
17.28	0.72	15	1	5	53	per	lib	mod	mod	mod	tg	ht	wh/0209.bmp
18.00	0.72	16	1	7	65	mem	con	mod	mod	mod	nt	ht	nh/0328_nh.bmp
18.72	0.72	17	1	5	83	per	con	low	mod	low	tg	ms	wh/0760.bmp
19.44	0.72	18	1	8	40	per	con	mod	mod	mod	tg	ht	wh/0196.bmp
20.16	0.72	19	1	8	97	per	con	low	mod	low	nt	fa	nh/0080_nh.bmp
20.88	0.72	20	1	7	58	per	con	low	low	low	tg	ms	wh/0225.bmp
21.60	0.72	21	1	6	70	mem	lib	mod	mod	low	nt	ht	nh/0619_nh.bmp
22.32	0.72	22	2	6	31	per	lib	low	mod	low	nt	cr	nh/0329_nh.bmp
23.04	0.72	23	1	5	58	per	lib	mod	mod	mod	nt	cr	nh/0650_nh.bmp
23.76	0.72	24	1	5	128	mem	con	mod	mod	low	nt	ht	nh/0336_nh.bmp
24.48	0.72	25	1	6	73	mem	lib	mod	mod	low	tg	ht	wh/0503.bmp
25.20	0.72	26	1	7	68	mem	con	mod	mod	mod	nt	ms	nh/0902_nh.bmp
25.92	0.72	27	1	8	29	mem	con	mod	mod	low	tg	ht	wh/0934.bmp
26.64	0.72	28	1	7	89	mem	con	low	low	low	nt	ht	nh/0655_nh.bmp
27.36	0.72	29	1	7	105	per	lib	low	low	low	tg	ms	wh/0804.bmp
28.08	0.72	30	2	7	65	mem	con	mod	mod	mod	nt	ht	nh/0328_nh.bmp
28.80	0.72	31	1	8	62	mem	lib	mod	mod	mod	tg	ht	wh/0588.bmp
29.52	0.72	32	1	7	19	mem	lib	mod	mod	low	tg	ms	wh/0125.bmp
30.24	0.72	33	1	5	59	per	lib	mod	mod	mod	nt	cr	nh/0810_nh.bmp
30.96	0.72	34	1	8	53	mem	lib	mod	mod	mod	nt	ms	nh/0095_nh.bmp
31.68	0.72	35	1	5	102	per	con	mod	mod	mod	tg	ht	wh/0803.bmp
32.40	0.72	36	1	7	77	mem	con	mod	mod	mod	nt	ms	nh/0591_nh.bmp
33.12	0.72	37	1	8	108	per	con	low	mod	low	tg	ht	wh/0194.bmp
33.84	0.72	38	1	5	51	per	lib	mod	mod	mod	tg	ms	wh/0805.bmp
34.56	0.72	39	1	8	110	per	con	low	mod	low	tg	ms	wh/0035.bmp
35.28	0.72	40	1	8	92	per	lib	mod	mod	mod	tg	n/a	wh/0874.bmp
36.00	0.72	41	1	7	20	mem	lib	mod	mod	low	tg	ht	wh/0465.bmp
36.72	0.72	42	1	5	126	mem	con	mod	mod	low	tg	ht	wh/0802.bmp
37.44	0.72	43	1	5	119	mem	con	mod	mod	low	nt	ht	nh/0079_nh.bmp
38.16	0.72	44	1	6	92	mem	con	mod	mod	mod	nt	ht	nh/0350_nh.bmp
38.88	0.72	45	1	5	117	mem	con	mod	mod	low	nt	ht	nh/0150_nh.bmp
39.60	0.72	46	2	5	51	per	lib	mod	mod	mod	tg	ms	wh/0805.bmp
40.32	0.72	47	1	7	23	mem	lib	mod	mod	low	nt	ms	nh/0075_nh.bmp
41.04	0.72	48	1	8	6	per	lib	low	mod	low	nt	cr	nh/0758_nh.bmp
41.76	0.72	49	1	6	6	mem	con	low	low	low	nt	ms	nh/0999_nh.bmp
42.48	0.72	50	2	5	59	per	lib	mod	mod	mod	nt	cr	nh/0810_nh.bmp
43.20	0.72	51	1	8	89	per	lib	mod	mod	mod	nt	cr	nh/0855_nh.bmp
43.92	0.72	52	1	8	27	mem	con	mod	mod	low	nt	ht	nh/0082_nh.bmp
44.64	0.72	53	1	5	114	mem	con	mod	mod	low	nt	ht	nh/0451_nh.bmp
45.36	0.72	54	1	5	108	per	con	mod	mod	mod	nt	cr	nh/0716_nh.bmp
46.08	0.72	55	1	8	56	mem	lib	mod	mod	mod	tg	ht	wh/0843.bmp
46.80	0.72	56	1	5	20	mem	con	low	low	mod	tg	ms	wh/0992.bmp
47.52	0.72	57	1	7	87	mem	con	low	low	low	tg	ht	wh/0691.bmp
48.24	0.72	58	1	5	92	per	con	low	mod	low	nt	fa	nh/0077_nh.bmp
48.96	0.72	59	1	8	12	per	lib	low	mod	low	tg	ht	wh/0744.bmp
49.68	0.72	60	1	7	22	mem	lib	mod	mod	low	tg	ht	wh/0238.bmp
50.40	0.72	61	2	8	53	mem	lib	mod	mod	mod	nt	ms	nh/0095_nh.bmp
51.12	0.72	62	1	6	87	mem	con	mod	mod	mod	tg	ht	wh/0962.bmp
51.84	0.72	63	1	6	71	mem	lib	mod	mod	low	tg	ht	wh/0577.bmp
52.56	0.72	64	1	8	10	per	lib	low	mod	low	nt	cr	nh/0364_nh.bmp
53.28	0.72	65	1	8	88	per	lib	mod	mod	mod	nt	cr	nh/0094_nh.bmp
54.00	0.72	66	2	5	83	per	con	low	mod	low	tg	ms	wh/0760.bmp
54.72	0.72	67	2	5	114	mem	con	mod	mod	low	nt	ht	nh/0451_nh.bmp
55.44	0.72	68	1	6	22	per	lib	low	mod	low	tg	ht	wh/0338.bmp
56.16	0.72	69	1	8	16	per	lib	low	mod	low	tg	ht	wh/0730.bmp
56.88	0.72	70	1	6	84	mem	con	mod	mod	mod	tg	ht	wh/0957.bmp
57.60	0.72	71	1	6	94	mem	con	mod	mod	mod	nt	ht	nh/0339_nh.bmp
58.32	0.72	72	1	8	44	per	con	mod	mod	mod	tg	ht	wh/0714.bmp
59.04	0.72	73	1	8	28	mem	con	mod	mod	low	tg	ht	wh/0123.bmp
59.76	0.72	74	2	8	91	per	lib	mod	mod	mod	nt	fa	nh/0319_nh.bmp
60.48	0.72	75	1	6	23	per	lib	low	mod	low	nt	cr	nh/0284_nh.bmp
61.20	0.72	76	2	6	85	mem	con	mod	mod	mod	nt	ht	nh/0593_nh.bmp
61.92	0.72	77	1	8	34	per	con	mod	mod	mod	tg	ht	wh/0446.bmp
62.64	0.72	78	1	8	26	mem	con	mod	mod	low	nt	ht	nh/0608_nh.bmp
63.36	0.72	79	2	8	110	per	con	low	mod	low	tg	ms	wh/0035.bmp
64.08	0.72	80	1	8	87	per	lib	mod	mod	mod	tg	ms	wh/0941.bmp
64.80	0.72	81	2	8	44	per	con	mod	mod	mod	tg	ht	wh/0714.bmp
65.52	0.72	82	1	8	5	per	lib	low	mod	low	tg	ms	wh/0355.bmp
66.24	0.72	83	2	7	20	mem	lib	mod	mod	low	tg	ht	wh/0465.bmp
66.96	0.72	84	2	8	97	per	con	low	mod	low	nt	fa	nh/0080_nh.bmp
67.68	0.72	85	1	8	84	per	lib	mod	mod	mod	tg	ht	wh/0199.bmp
68.40	0.72	86	1	8	13	per	lib	low	mod	low	nt	fa	nh/0256_nh.bmp
69.12	0.72	87	1	5	26	mem	con	low	low	mod	nt	ms	nh/0469_nh.bmp
69.84	0.72	88	1	5	71	mem	lib	mod	mod	mod	nt	ht	nh/0462_nh.bmp
70.56	0.72	89	1	8	68	mem	con	low	low	mod	tg	ms	wh/0306.bmp
71.28	0.72	90	1	8	60	mem	lib	mod	mod	mod	nt	ms	nh/0697_nh.bmp
72.00	0.72	91	1	5	122	mem	con	mod	mod	low	tg	ht	wh/0613.bmp
72.72	0.72	92	1	8	75	mem	con	low	low	mod	nt	ms	nh/0626_nh.bmp
73.44	0.72	93	2	5	102	per	con	mod	mod	mod	tg	ht	wh/0803.bmp
74.16	0.72	94	1	5	101	per	con	mod	mod	mod	tg	ht	wh/0909.bmp
74.88	0.72	95	3	8	110	per	con	low	mod	low	tg	ms	wh/0035.bmp
75.60	0.72	96	2	5	71	mem	lib	mod	mod	mod	nt	ht	nh/0462_nh.bmp
76.32	0.72	97	1	6	12	mem	con	low	low	low	nt	n/a	nh/0112_nh.bmp
77.04	0.72	98	1	5	90	per	con	low	mod	low	nt	fa	nh/0036_nh.bmp
77.76	0.72	99	1	5	54	per	lib	mod	mod	mod	nt	cr	nh/0904_nh.bmp
78.48	0.72	100	3	6	85	mem	con	mod	mod	mod	nt	ht	nh/0593_nh.bmp
79.20	0.72	101	2	8	20	mem	con	mod	mod	low	nt	ht	nh/0635_nh.bmp
79.92	0.72	102	1	5	106	per	con	mod	mod	mod	tg	ms	wh/0371.bmp
80.64	0.72	103	2	8	94	per	lib	mod	mod	mod	nt	cr	nh/0187_nh.bmp
81.36	0.72	104	2	6	71	mem	lib	mod	mod	low	tg	ht	wh/0577.bmp
82.08	0.72	105	1	6	28	per	lib	low	mod	low	nt	fa	nh/0299_nh.bmp
82.80	0.72	106	2	7	23	mem	lib	mod	mod	low	nt	ms	nh/0075_nh.bmp
83.52	0.72	107	1	5	44	mem	lib	low	low	mod	nt	ms	nh/0598_nh.bmp
84.24	0.72	108	3	5	114	mem	con	mod	mod	low	nt	ht	nh/0451_nh.bmp
84.96	0.72	109	1	8	2	per	lib	low	mod	low	nt	fa	nh/0351_nh.bmp
85.68	0.72	110	2	5	128	mem	con	mod	mod	low	nt	ht	nh/0336_nh.bmp
86.40	0.72	111	1	5	85	per	con	low	mod	low	tg	ms	wh/0443.bmp
87.12	0.72	112	1	7	72	mem	con	mod	mod	mod	nt	ht	nh/0398_nh.bmp
87.84	0.72	113	1	8	50	mem	lib	mod	mod	mod	tg	ht	wh/0396.bmp
88.56	0.72	114	1	7	71	mem	con	mod	mod	mod	tg	n/a	wh/0380.bmp
89.28	0.72	115	2	5	119	mem	con	mod	mod	low	nt	ht	nh/0079_nh.bmp
90.00	0.72	116	1	6	25	per	lib	low	mod	low	tg	ms	wh/0345.bmp
90.72	0.72	117	3	7	20	mem	lib	mod	mod	low	tg	ht	wh/0465.bmp
91.44	0.72	118	2	8	12	per	lib	low	mod	low	tg	ht	wh/0744.bmp
92.16	0.72	119	1	7	8	per	con	mod	low	mod	tg	n/a	wh/0092.bmp
92.88	0.72	120	1	5	78	mem	lib	mod	mod	mod	nt	ht	nh/0973_nh.bmp
93.60	0.72	121	2	6	92	mem	con	mod	mod	mod	nt	ht	nh/0350_nh.bmp
94.32	0.72	122	2	6	87	mem	con	mod	mod	mod	tg	ht	wh/0962.bmp
95.04	0.72	123	2	7	22	mem	lib	mod	mod	low	tg	ht	wh/0238.bmp
95.76	0.72	124	1	7	81	mem	con	low	low	low	tg	ht	wh/0223.bmp
96.48	0.72	125	1	8	114	mem	lib	low	low	mod	tg	ht	wh/0652.bmp
97.20	0.72	126	2	5	78	mem	lib	mod	mod	mod	nt	ht	nh/0973_nh.bmp
97.92	0.72	127	1	5	99	per	con	mod	mod	mod	nt	fa	nh/0540_nh.bmp
98.64	0.72	128	2	5	116	mem	con	mod	mod	low	tg	ht	wh/0153.bmp
99.36	0.72	129	3	5	102	per	con	mod	mod	mod	tg	ht	wh/0803.bmp
100.08	0.72	130	3	6	92	mem	con	mod	mod	mod	nt	ht	nh/0350_nh.bmp
100.80	0.72	131	1	7	85	mem	con	low	low	low	nt	ms	nh/0439_nh.bmp
101.52	0.72	132	2	8	6	per	lib	low	mod	low	nt	cr	nh/0758_nh.bmp
102.24	0.72	133	2	6	25	per	lib	low	mod	low	tg	ms	wh/0345.bmp
102.96	0.72	134	1	8	57	mem	lib	mod	mod	mod	nt	ms	nh/0876_nh.bmp
103.68	0.72	135	3	8	91	per	lib	mod	mod	mod	nt	fa	nh/0319_nh.bmp
104.40	0.72	136	3	5	128	mem	con	mod	mod	low	nt	ht	nh/0336_nh.bmp
105.12	0.72	137	4	8	110	per	con	low	mod	low	tg	ms	wh/0035.bmp
105.84	0.72	138	1	8	101	per	con	low	mod	low	nt	fa	nh/0032_nh.bmp
106.56	0.72	139	2	6	23	per	lib	low	mod	low	nt	cr	nh/0284_nh.bmp
107.28	0.72	140	3	5	51	per	lib	mod	mod	mod	tg	ms	wh/0805.bmp
108.00	0.72	141	1	8	51	mem	lib	mod	mod	mod	tg	ht	wh/0497.bmp
108.72	0.72	142	2	8	16	per	lib	low	mod	low	tg	ht	wh/0730.bmp
109.44	0.72	143	3	8	12	per	lib	low	mod	low	tg	ht	wh/0744.bmp
110.16	0.72	144	1	8	21	mem	con	mod	mod	low	nt	ms	nh/0964_nh.bmp
110.88	0.72	145	2	8	57	mem	lib	mod	mod	mod	nt	ms	nh/0876_nh.bmp
111.60	0.72	146	1	8	22	mem	con	mod	mod	low	tg	ht	wh/1023.bmp
112.32	0.72	147	1	6	51	mem	lib	low	low	low	nt	ms	nh/0815_nh.bmp
113.04	0.72	148	2	5	117	mem	con	mod	mod	low	nt	ht	nh/0150_nh.bmp
113.76	0.72	149	2	7	72	mem	con	mod	mod	mod	nt	ht	nh/0398_nh.bmp
114.48	0.72	150	2	5	58	per	lib	mod	mod	mod	nt	cr	nh/0650_nh.bmp
115.20	0.72	151	3	6	87	mem	con	mod	mod	mod	tg	ht	wh/0962.bmp
115.92	0.72	152	1	8	37	per	con	mod	mod	mod	nt	cr	nh/0543_nh.bmp
116.64	0.72	153	3	8	97	per	con	low	mod	low	nt	fa	nh/0080_nh.bmp
117.36	0.72	154	2	8	62	mem	lib	mod	mod	mod	tg	ht	wh/0588.bmp
118.08	0.72	155	1	6	66	mem	lib	mod	mod	low	nt	ht	nh/0489_nh.bmp
118.80	0.72	156	3	7	22	mem	lib	mod	mod	low	tg	ht	wh/0238.bmp
119.52	0.72	157	1	5	76	mem	lib	mod	mod	mod	nt	ht	nh/0397_nh.bmp
120.24	0.72	158	1	7	106	per	lib	low	low	low	nt	fa	nh/0507_nh.bmp
120.96	0.72	159	2	8	60	mem	lib	mod	mod	mod	nt	ms	nh/0697_nh.bmp
121.68	0.72	160	2	6	70	mem	lib	mod	mod	low	nt	ht	nh/0619_nh.bmp
122.40	0.72	161	1	8	43	per	con	mod	mod	mod	nt	cr	nh/0680_nh.bmp
123.12	0.72	162	1	7	27	mem	lib	mod	mod	low	nt	ht	nh/0967_nh.bmp
123.84	0.72	163	1	5	49	per	lib	mod	mod	mod	tg	ht	wh/0273.bmp
124.56	0.72	164	2	8	89	per	lib	mod	mod	mod	nt	cr	nh/0855_nh.bmp
125.28	0.72	165	2	8	21	mem	con	mod	mod	low	nt	ms	nh/0964_nh.bmp
126.00	0.72	166	2	8	87	per	lib	mod	mod	mod	tg	ms	wh/0941.bmp
126.72	0.72	167	1	5	110	per	con	mod	mod	mod	nt	cr	nh/0772_nh.bmp
127.44	0.72	168	3	8	44	per	con	mod	mod	mod	tg	ht	wh/0714.bmp
128.16	0.72	169	1	8	33	per	con	mod	mod	mod	tg	ht	wh/0099.bmp
128.88	0.72	170	4	8	12	per	lib	low	mod	low	tg	ht	wh/0744.bmp
129.60	0.72	171	1	7	17	mem	lib	mod	mod	low	tg	ms	wh/0383.bmp
130.32	0.72	172	3	6	23	per	lib	low	mod	low	nt	cr	nh/0284_nh.bmp
131.04	0.72	173	2	6	77	mem	lib	mod	mod	low	nt	ht	nh/0029_nh.bmp
131.76	0.72	174	2	5	108	per	con	mod	mod	mod	nt	cr	nh/0716_nh.bmp
132.48	0.72	175	1	8	77	mem	con	low	low	mod	tg	ms	wh/0729.bmp
133.20	0.72	176	2	5	110	per	con	mod	mod	mod	nt	cr	nh/0772_nh.bmp
133.92	0.72	177	1	7	80	mem	con	mod	mod	mod	tg	ht	wh/0795.bmp
134.64	0.72	178	2	7	17	mem	lib	mod	mod	low	tg	ms	wh/0383.bmp
135.36	0.72	179	3	8	62	mem	lib	mod	mod	mod	tg	ht	wh/0588.bmp
136.08	0.72	180	1	5	84	per	con	low	mod	low	tg	ms	wh/0361.bmp
136.80	0.72	181	1	8	106	per	con	low	mod	low	nt	cr	nh/0646_nh.bmp
137.52	0.72	182	3	7	65	mem	con	mod	mod	mod	nt	ht	nh/0328_nh.bmp
138.24	0.72	183	3	8	16	per	lib	low	mod	low	tg	ht	wh/0730.bmp
138.96	0.72	184	2	8	28	mem	con	mod	mod	low	tg	ht	wh/0123.bmp
139.68	0.72	185	3	6	31	per	lib	low	mod	low	nt	cr	nh/0329_nh.bmp
140.40	0.72	186	4	8	91	per	lib	mod	mod	mod	nt	fa	nh/0319_nh.bmp
141.12	0.72	187	3	6	70	mem	lib	mod	mod	low	nt	ht	nh/0619_nh.bmp
141.84	0.72	188	2	7	27	mem	lib	mod	mod	low	nt	ht	nh/0967_nh.bmp
142.56	0.72	189	3	8	53	mem	lib	mod	mod	mod	nt	ms	nh/0095_nh.bmp
143.28	0.72	190	2	8	10	per	lib	low	mod	low	nt	cr	nh/0364_nh.bmp
144.00	0.72	191	1	5	10	per	lib	low	low	low	nt	fa	nh/0513_nh.bmp
144.72	0.72	192	2	5	49	per	lib	mod	mod	mod	tg	ht	wh/0273.bmp
145.44	0.72	193	2	8	33	per	con	mod	mod	mod	tg	ht	wh/0099.bmp
146.16	0.72	194	5	8	91	per	lib	mod	mod	mod	nt	fa	nh/0319_nh.bmp
146.88	0.72	195	2	8	84	per	lib	mod	mod	mod	tg	ht	wh/0199.bmp
147.60	0.72	196	3	5	110	per	con	mod	mod	mod	nt	cr	nh/0772_nh.bmp
148.32	0.72	197	2	7	71	mem	con	mod	mod	mod	tg	n/a	wh/0380.bmp
149.04	0.72	198	2	8	34	per	con	mod	mod	mod	tg	ht	wh/0446.bmp
149.76	0.72	199	4	6	85	mem	con	mod	mod	mod	nt	ht	nh/0593_nh.bmp
150.48	0.72	200	2	7	68	mem	con	mod	mod	mod	nt	ms	nh/0902_nh.bmp
151.20	0.72	201	1	5	9	per	lib	low	low	low	tg	ht	wh/0768.bmp
151.92	0.72	202	2	5	106	per	con	mod	mod	mod	tg	ms	wh/0371.bmp
152.64	0.72	203	1	6	79	mem	lib	mod	mod	low	tg	ms	wh/0568.bmp
153.36	0.72	204	2	5	99	per	con	mod	mod	mod	nt	fa	nh/0540_nh.bmp
154.08	0.72	205	2	5	101	per	con	mod	mod	mod	tg	ht	wh/0909.bmp
154.80	0.72	206	1	8	45	per	con	mod	mod	mod	nt	cr	nh/0594_nh.bmp
155.52	0.72	207	3	8	94	per	lib	mod	mod	mod	nt	cr	nh/0187_nh.bmp
156.24	0.72	208	2	5	90	per	con	low	mod	low	nt	fa	nh/0036_nh.bmp
156.96	0.72	209	2	8	29	mem	con	mod	mod	low	tg	ht	wh/0934.bmp
157.68	0.72	210	1	5	2	per	lib	low	low	low	nt	fa	nh/0706_nh.bmp
158.40	0.72	211	1	8	107	per	con	low	mod	low	nt	cr	nh/0940_nh.bmp
159.12	0.72	212	1	6	44	per	con	low	low	low	tg	ms	wh/0292.bmp
159.84	0.72	213	1	5	62	per	lib	mod	mod	mod	nt	cr	nh/0182_nh.bmp
160.56	0.72	214	2	8	51	mem	lib	mod	mod	mod	tg	ht	wh/0497.bmp
161.28	0.72	215	2	5	92	per	con	low	mod	low	nt	fa	nh/0077_nh.bmp
162.00	0.72	216	2	6	28	per	lib	low	mod	low	nt	fa	nh/0299_nh.bmp
162.72	0.72	217	2	8	27	mem	con	mod	mod	low	nt	ht	nh/0082_nh.bmp
163.44	0.72	218	3	5	99	per	con	mod	mod	mod	nt	fa	nh/0540_nh.bmp
164.16	0.72	219	1	5	96	per	con	low	mod	low	nt	n/a	nh/0232_nh.bmp
164.88	0.72	220	1	5	70	mem	lib	mod	mod	mod	tg	ht	wh/0447.bmp
165.60	0.72	221	3	8	89	per	lib	mod	mod	mod	nt	cr	nh/0855_nh.bmp
166.32	0.72	222	1	8	61	mem	lib	mod	mod	mod	nt	ht	nh/0954_nh.bmp
167.04	0.72	223	2	8	13	per	lib	low	mod	low	nt	fa	nh/0256_nh.bmp
167.76	0.72	224	3	5	92	per	con	low	mod	low	nt	fa	nh/0077_nh.bmp
168.48	0.72	225	3	8	34	per	con	mod	mod	mod	tg	ht	wh/0446.bmp
169.20	0.72	226	4	5	128	mem	con	mod	mod	low	nt	ht	nh/0336_nh.bmp
169.92	0.72	227	4	5	110	per	con	mod	mod	mod	nt	cr	nh/0772_nh.bmp
170.64	0.72	228	4	8	34	per	con	mod	mod	mod	tg	ht	wh/0446.bmp
171.36	0.72	229	2	6	94	mem	con	mod	mod	mod	nt	ht	nh/0339_nh.bmp
172.08	0.72	230	2	8	107	per	con	low	mod	low	nt	cr	nh/0940_nh.bmp
172.80	0.72	231	3	6	28	per	lib	low	mod	low	nt	fa	nh/0299_nh.bmp
173.52	0.72	232	4	8	44	per	con	mod	mod	mod	tg	ht	wh/0714.bmp
174.24	0.72	233	1	7	63	per	con	low	low	low	tg	ms	wh/0437.bmp
174.96	0.72	234	3	6	77	mem	lib	mod	mod	low	nt	ht	nh/0029_nh.bmp
175.68	0.72	235	3	5	101	per	con	mod	mod	mod	tg	ht	wh/0909.bmp
176.40	0.72	236	2	6	66	mem	lib	mod	mod	low	nt	ht	nh/0489_nh.bmp
177.12	0.72	237	1	6	45	per	con	low	low	low	nt	cr	nh/0053_nh.bmp
177.84	0.72	238	3	5	108	per	con	mod	mod	mod	nt	cr	nh/0716_nh.bmp
178.56	0.72	239	3	6	66	mem	lib	mod	mod	low	nt	ht	nh/0489_nh.bmp
179.28	0.72	240	3	5	90	per	con	low	mod	low	nt	fa	nh/0036_nh.bmp
180.00	0.72	241	4	6	66	mem	lib	mod	mod	low	nt	ht	nh/0489_nh.bmp
180.72	0.72	242	3	7	68	mem	con	mod	mod	mod	nt	ms	nh/0902_nh.bmp
181.44	0.72	243	3	8	60	mem	lib	mod	mod	mod	nt	ms	nh/0697_nh.bmp
182.16	0.72	244	2	8	56	mem	lib	mod	mod	mod	tg	ht	wh/0843.bmp
182.88	0.72	245	4	6	77	mem	lib	mod	mod	low	nt	ht	nh/0029_nh.bmp
183.60	0.72	246	2	7	80	mem	con	mod	mod	mod	tg	ht	wh/0795.bmp
184.32	0.72	247	3	8	27	mem	con	mod	mod	low	nt	ht	nh/0082_nh.bmp
185.04	0.72	248	2	5	85	per	con	low	mod	low	tg	ms	wh/0443.bmp
185.76	0.72	249	1	5	107	per	con	mod	mod	mod	tg	ht	wh/0928.bmp
186.48	0.72	250	1	8	31	mem	con	mod	mod	low	tg	ht	wh/0493.bmp
187.20	0.72	251	1	5	73	mem	lib	mod	mod	mod	tg	ht	wh/0548.bmp
187.92	0.72	252	1	5	127	mem	con	mod	mod	low	tg	ht	wh/0417.bmp
188.64	0.72	253	2	5	70	mem	lib	mod	mod	mod	tg	ht	wh/0447.bmp
189.36	0.72	254	2	7	18	mem	lib	mod	mod	low	nt	ht	nh/0190_nh.bmp
190.08	0.72	255	1	5	30	mem	con	low	low	mod	tg	ht	wh/0068.bmp
190.80	0.72	256	2	7	77	mem	con	mod	mod	mod	nt	ms	nh/0591_nh.bmp
191.52	0.72	257	1	5	29	mem	con	low	low	mod	nt	ms	nh/0923_nh.bmp
192.24	0.72	258	3	8	20	mem	con	mod	mod	low	nt	ht	nh/0635_nh.bmp
192.96	0.72	259	4	5	51	per	lib	mod	mod	mod	tg	ms	wh/0805.bmp
193.68	0.72	260	5	8	44	per	con	mod	mod	mod	tg	ht	wh/0714.bmp
194.40	0.72	261	3	8	51	mem	lib	mod	mod	mod	tg	ht	wh/0497.bmp
195.12	0.72	262	2	5	91	per	con	low	mod	low	tg	ht	wh/0690.bmp
195.84	0.72	263	3	6	94	mem	con	mod	mod	mod	nt	ht	nh/0339_nh.bmp
196.56	0.72	264	2	8	101	per	con	low	mod	low	nt	fa	nh/0032_nh.bmp
197.28	0.72	265	2	8	45	per	con	mod	mod	mod	nt	cr	nh/0594_nh.bmp
198.00	0.72	266	3	8	45	per	con	mod	mod	mod	nt	cr	nh/0594_nh.bmp
198.72	0.72	267	1	7	75	mem	con	mod	mod	mod	tg	ms	wh/0684.bmp
199.44	0.72	268	1	6	88	mem	con	mod	mod	mod	nt	ms	nh/0558_nh.bmp
200.16	0.72	269	1	5	22	mem	con	low	low	mod	tg	ht	wh/0048.bmp
200.88	0.72	270	1	5	8	per	lib	low	low	low	nt	cr	nh/0845_nh.bmp
201.60	0.72	271	1	6	20	per	lib	low	mod	low	tg	ht	wh/0510.bmp
202.32	0.72	272	1	5	81	per	con	low	mod	low	nt	cr	nh/0818_nh.bmp
203.04	0.72	273	3	8	57	mem	lib	mod	mod	mod	nt	ms	nh/0876_nh.bmp
203.76	0.72	274	1	6	33	per	con	low	low	low	tg	ms	wh/1009.bmp
204.48	0.72	275	3	5	83	per	con	low	mod	low	tg	ms	wh/0760.bmp
205.20	0.72	276	1	7	48	per	lib	mod	low	mod	nt	cr	nh/0129_nh.bmp
205.92	0.72	277	1	7	79	mem	con	mod	mod	mod	tg	ht	wh/0442.bmp
206.64	0.72	278	2	8	43	per	con	mod	mod	mod	nt	cr	nh/0680_nh.bmp
207.36	0.72	279	3	8	33	per	con	mod	mod	mod	tg	ht	wh/0099.bmp
208.08	0.72	280	2	5	126	mem	con	mod	mod	low	tg	ht	wh/0802.bmp
208.80	0.72	281	3	5	71	mem	lib	mod	mod	mod	nt	ht	nh/0462_nh.bmp
209.52	0.72	282	1	8	71	mem	con	low	low	mod	nt	ms	nh/0426_nh.bmp
210.24	0.72	283	1	5	79	mem	lib	mod	mod	mod	tg	ht	wh/0563.bmp
210.96	0.72	284	1	7	25	mem	lib	mod	mod	low	nt	ht	nh/0074_nh.bmp
211.68	0.72	285	5	8	12	per	lib	low	mod	low	tg	ht	wh/0744.bmp
212.40	0.72	286	1	7	122	mem	lib	low	low	low	tg	ht	wh/0452.bmp
213.12	0.72	287	3	8	21	mem	con	mod	mod	low	nt	ms	nh/0964_nh.bmp
213.84	0.72	288	4	8	62	mem	lib	mod	mod	mod	tg	ht	wh/0588.bmp
214.56	0.72	289	5	5	51	per	lib	mod	mod	mod	tg	ms	wh/0805.bmp
215.28	0.72	290	2	8	26	mem	con	mod	mod	low	nt	ht	nh/0608_nh.bmp
216.00	0.72	291	3	8	28	mem	con	mod	mod	low	tg	ht	wh/0123.bmp
216.72	0.72	292	4	8	27	mem	con	mod	mod	low	nt	ht	nh/0082_nh.bmp
217.44	0.72	293	1	7	98	per	lib	low	low	low	tg	ms	wh/0956.bmp
218.16	0.72	294	2	5	84	per	con	low	mod	low	tg	ms	wh/0361.bmp
218.88	0.72	295	5	8	110	per	con	low	mod	low	tg	ms	wh/0035.bmp
219.60	0.72	296	1	8	103	per	con	low	mod	low	tg	ht	wh/0660.bmp
220.32	0.72	297	4	5	71	mem	lib	mod	mod	mod	nt	ht	nh/0462_nh.bmp
221.04	0.72	298	6	8	91	per	lib	mod	mod	mod	nt	fa	nh/0319_nh.bmp
221.76	0.72	299	3	7	72	mem	con	mod	mod	mod	nt	ht	nh/0398_nh.bmp
222.48	0.72	300	3	5	106	per	con	mod	mod	mod	tg	ms	wh/0371.bmp
223.20	0.72	301	1	5	65	mem	lib	mod	mod	mod	tg	ht	wh/0784.bmp
223.92	0.72	302	3	5	117	mem	con	mod	mod	low	nt	ht	nh/0150_nh.bmp
224.64	0.72	303	2	8	92	per	lib	mod	mod	mod	tg	n/a	wh/0874.bmp
225.36	0.72	304	2	6	76	mem	lib	mod	mod	low	nt	ht	nh/0893_nh.bmp
226.08	0.72	305	2	5	122	mem	con	mod	mod	low	tg	ht	wh/0613.bmp
226.80	0.72	306	2	5	73	mem	lib	mod	mod	mod	tg	ht	wh/0548.bmp
227.52	0.72	307	2	6	79	mem	lib	mod	mod	low	tg	ms	wh/0568.bmp
228.24	0.72	308	3	5	85	per	con	low	mod	low	tg	ms	wh/0443.bmp
228.96	0.72	309	2	5	79	mem	lib	mod	mod	mod	tg	ht	wh/0563.bmp
229.68	0.72	310	2	8	108	per	con	low	mod	low	tg	ht	wh/0194.bmp
230.40	0.72	311	2	5	76	mem	lib	mod	mod	mod	nt	ht	nh/0397_nh.bmp
231.12	0.72	312	3	5	119	mem	con	mod	mod	low	nt	ht	nh/0079_nh.bmp
231.84	0.72	313	2	8	50	mem	lib	mod	mod	mod	tg	ht	wh/0396.bmp
232.56	0.72	314	3	8	29	mem	con	mod	mod	low	tg	ht	wh/0934.bmp
233.28	0.72	315	1	7	43	per	lib	mod	low	mod	tg	ht	wh/0927.bmp
234.00	0.72	316	3	5	76	mem	lib	mod	mod	mod	nt	ht	nh/0397_nh.bmp
234.72	0.72	317	3	8	84	per	lib	mod	mod	mod	tg	ht	wh/0199.bmp
235.44	0.72	318	3	6	79	mem	lib	mod	mod	low	tg	ms	wh/0568.bmp
236.16	0.72	319	3	8	108	per	con	low	mod	low	tg	ht	wh/0194.bmp
236.88	0.72	320	1	5	1	per	lib	low	low	low	tg	ht	wh/0433.bmp
237.60	0.72	321	4	6	92	mem	con	mod	mod	mod	nt	ht	nh/0350_nh.bmp
238.32	0.72	322	4	7	68	mem	con	mod	mod	mod	nt	ms	nh/0902_nh.bmp
239.04	0.72	323	2	8	61	mem	lib	mod	mod	mod	nt	ht	nh/0954_nh.bmp
239.76	0.72	324	1	8	79	mem	con	low	low	mod	tg	ms	wh/0044.bmp
240.48	0.72	325	4	6	28	per	lib	low	mod	low	nt	fa	nh/0299_nh.bmp
241.20	0.72	326	2	5	62	per	lib	mod	mod	mod	nt	cr	nh/0182_nh.bmp
241.92	0.72	327	3	7	27	mem	lib	mod	mod	low	nt	ht	nh/0967_nh.bmp
242.64	0.72	328	4	7	22	mem	lib	mod	mod	low	tg	ht	wh/0238.bmp
243.36	0.72	329	1	7	5	per	con	mod	low	mod	tg	ht	wh/0267.bmp
244.08	0.72	330	1	6	126	per	con	mod	low	mod	tg	ht	wh/0949.bmp
244.80	0.72	331	3	7	17	mem	lib	mod	mod	low	tg	ms	wh/0383.bmp
245.52	0.72	332	1	8	122	mem	lib	low	low	mod	nt	ht	nh/0774_nh.bmp
246.24	0.72	333	1	5	35	mem	lib	low	low	mod	tg	ms	wh/0782.bmp
246.96	0.72	334	1	5	105	per	con	mod	mod	mod	nt	cr	nh/0807_nh.bmp
247.68	0.72	335	5	5	128	mem	con	mod	mod	low	nt	ht	nh/0336_nh.bmp
248.40	0.72	336	3	5	116	mem	con	mod	mod	low	tg	ht	wh/0153.bmp
249.12	0.72	337	1	8	48	per	con	mod	mod	mod	nt	cr	nh/0542_nh.bmp
249.84	0.72	338	1	8	119	mem	lib	low	low	mod	tg	ht	wh/0846.bmp
250.56	0.72	339	3	8	13	per	lib	low	mod	low	nt	fa	nh/0256_nh.bmp
251.28	0.72	340	2	6	84	mem	con	mod	mod	mod	tg	ht	wh/0957.bmp
252.00	0.72	341	2	8	22	mem	con	mod	mod	low	tg	ht	wh/1023.bmp
252.72	0.72	342	2	7	75	mem	con	mod	mod	mod	tg	ms	wh/0684.bmp
253.44	0.72	343	3	8	107	per	con	low	mod	low	nt	cr	nh/0940_nh.bmp
254.16	0.72	344	4	8	108	per	con	low	mod	low	tg	ht	wh/0194.bmp
254.88	0.72	345	3	8	61	mem	lib	mod	mod	mod	nt	ht	nh/0954_nh.bmp
255.60	0.72	346	3	7	18	mem	lib	mod	mod	low	nt	ht	nh/0190_nh.bmp
256.32	0.72	347	1	5	72	mem	lib	mod	mod	mod	nt	ms	nh/0947_nh.bmp
257.04	0.72	348	3	8	43	per	con	mod	mod	mod	nt	cr	nh/0680_nh.bmp
257.76	0.72	349	2	7	19	mem	lib	mod	mod	low	tg	ms	wh/0125.bmp
258.48	0.72	350	3	5	58	per	lib	mod	mod	mod	nt	cr	nh/0650_nh.bmp
259.20	0.72	351	2	5	81	per	con	low	mod	low	nt	cr	nh/0818_nh.bmp
259.92	0.72	352	3	5	78	mem	lib	mod	mod	mod	nt	ht	nh/0973_nh.bmp
260.64	0.72	353	1	6	95	mem	con	mod	mod	mod	tg	ht	wh/0748.bmp
261.36	0.72	354	3	5	79	mem	lib	mod	mod	mod	tg	ht	wh/0563.bmp
262.08	0.72	355	4	6	70	mem	lib	mod	mod	low	nt	ht	nh/0619_nh.bmp
262.80	0.72	356	6	5	128	mem	con	mod	mod	low	nt	ht	nh/0336_nh.bmp
263.52	0.72	357	3	5	70	mem	lib	mod	mod	mod	tg	ht	wh/0447.bmp
264.24	0.72	358	1	7	1	per	con	mod	low	mod	nt	fa	nh/0699_nh.bmp
264.96	0.72	359	4	5	117	mem	con	mod	mod	low	nt	ht	nh/0150_nh.bmp
265.68	0.72	360	1	8	8	per	lib	low	mod	low	tg	ht	wh/0404.bmp
266.40	0.72	361	4	6	79	mem	lib	mod	mod	low	tg	ms	wh/0568.bmp
267.12	0.72	362	4	8	61	mem	lib	mod	mod	mod	nt	ht	nh/0954_nh.bmp
267.84	0.72	363	2	8	5	per	lib	low	mod	low	tg	ms	wh/0355.bmp
268.56	0.72	364	4	7	27	mem	lib	mod	mod	low	nt	ht	nh/0967_nh.bmp
269.28	0.72	365	1	6	26	per	lib	low	mod	low	tg	ht	wh/0134.bmp
270.00	0.72	366	5	8	34	per	con	mod	mod	mod	tg	ht	wh/0446.bmp
270.72	0.72	367	2	6	88	mem	con	mod	mod	mod	nt	ms	nh/0558_nh.bmp
271.44	0.72	368	3	5	59	per	lib	mod	mod	mod	nt	cr	nh/0810_nh.bmp
272.16	0.72	369	4	5	79	mem	lib	mod	mod	mod	tg	ht	wh/0563.bmp
272.88	0.72	370	3	8	5	per	lib	low	mod	low	tg	ms	wh/0355.bmp
273.60	0.72	371	2	5	105	per	con	mod	mod	mod	nt	cr	nh/0807_nh.bmp
274.32	0.72	372	4	8	57	mem	lib	mod	mod	mod	nt	ms	nh/0876_nh.bmp
275.04	0.72	373	4	6	87	mem	con	mod	mod	mod	tg	ht	wh/0962.bmp
275.76	0.72	374	2	8	103	per	con	low	mod	low	tg	ht	wh/0660.bmp
276.48	0.72	375	2	6	20	per	lib	low	mod	low	tg	ht	wh/0510.bmp
277.20	0.72	376	5	8	61	mem	lib	mod	mod	mod	nt	ht	nh/0954_nh.bmp
277.92	0.72	377	2	5	65	mem	lib	mod	mod	mod	tg	ht	wh/0784.bmp
278.64	0.72	378	2	8	88	per	lib	mod	mod	mod	nt	cr	nh/0094_nh.bmp
279.36	0.72	379	3	5	49	per	lib	mod	mod	mod	tg	ht	wh/0273.bmp
280.08	0.72	380	4	5	101	per	con	mod	mod	mod	tg	ht	wh/0909.bmp
280.80	0.72	381	1	7	59	per	con	low	low	low	nt	fa	nh/0460_nh.bmp
281.52	0.72	382	3	6	76	mem	lib	mod	mod	low	nt	ht	nh/0893_nh.bmp
282.24	0.72	383	3	6	71	mem	lib	mod	mod	low	tg	ht	wh/0577.bmp
282.96	0.72	384	2	5	96	per	con	low	mod	low	nt	n/a	nh/0232_nh.bmp
283.68	0.72	385	3	8	88	per	lib	mod	mod	mod	nt	cr	nh/0094_nh.bmp
284.40	0.72	386	4	5	108	per	con	mod	mod	mod	nt	cr	nh/0716_nh.bmp
285.12	0.72	387	1	6	1	mem	con	low	low	low	tg	ms	wh/0215.bmp
285.84	0.72	388	1	5	61	per	lib	mod	mod	mod	tg	ht	wh/0428.bmp
286.56	0.72	389	2	6	26	per	lib	low	mod	low	tg	ht	wh/0134.bmp
287.28	0.72	390	3	7	23	mem	lib	mod	mod	low	nt	ms	nh/0075_nh.bmp
288.00	0.72	391	3	6	26	per	lib	low	mod	low	tg	ht	wh/0134.bmp
288.72	0.72	392	2	8	106	per	con	low	mod	low	nt	cr	nh/0646_nh.bmp
289.44	0.72	393	3	7	71	mem	con	mod	mod	mod	tg	n/a	wh/0380.bmp
290.16	0.72	394	1	5	42	mem	lib	low	low	mod	tg	ms	wh/0708.bmp
290.88	0.72	395	5	6	77	mem	lib	mod	mod	low	nt	ht	nh/0029_nh.bmp
291.60	0.72	396	5	5	108	per	con	mod	mod	mod	nt	cr	nh/0716_nh.bmp
292.32	0.72	397	1	6	90	mem	con	mod	mod	mod	tg	ht	wh/0946.bmp
293.04	0.72	398	1	6	55	mem	lib	low	low	low	tg	ms	wh/0701.bmp
293.76	0.72	399	4	8	20	mem	con	mod	mod	low	nt	ht	nh/0635_nh.bmp
294.48	0.72	400	5	8	27	mem	con	mod	mod	low	nt	ht	nh/0082_nh.bmp
295.20	0.72	401	4	8	33	per	con	mod	mod	mod	tg	ht	wh/0099.bmp
295.92	0.72	402	2	8	2	per	lib	low	mod	low	nt	fa	nh/0351_nh.bmp
296.64	0.72	403	2	5	107	per	con	mod	mod	mod	tg	ht	wh/0928.bmp
297.36	0.72	404	4	8	53	mem	lib	mod	mod	mod	nt	ms	nh/0095_nh.bmp
298.08	0.72	405	1	7	44	per	lib	mod	low	mod	nt	cr	nh/0890_nh.bmp
298.80	0.72	406	1	8	117	mem	lib	low	low	mod	nt	ht	nh/0281_nh.bmp
299.52	0.72	407	1	6	64	mem	lib	low	low	low	nt	ht	nh/0185_nh.bmp
300.24	0.72	408	4	5	49	per	lib	mod	mod	mod	tg	ht	wh/0273.bmp
300.96	0.72	409	4	5	92	per	con	low	mod	low	nt	fa	nh/0077_nh.bmp
301.68	0.72	410	5	8	33	per	con	mod	mod	mod	tg	ht	wh/0099.bmp
302.40	0.72	411	2	6	73	mem	lib	mod	mod	low	tg	ht	wh/0503.bmp
303.12	0.72	412	5	7	68	mem	con	mod	mod	mod	nt	ms	nh/0902_nh.bmp
303.84	0.72	413	5	5	79	mem	lib	mod	mod	mod	tg	ht	wh/0563.bmp
304.56	0.72	414	4	5	106	per	con	mod	mod	mod	tg	ms	wh/0371.bmp
305.28	0.72	415	5	6	92	mem	con	mod	mod	mod	nt	ht	nh/0350_nh.bmp
306.00	0.72	416	3	8	101	per	con	low	mod	low	nt	fa	nh/0032_nh.bmp
306.72	0.72	417	1	8	90	per	lib	mod	mod	mod	tg	ms	wh/0222.bmp
307.44	0.72	418	3	5	96	per	con	low	mod	low	nt	n/a	nh/0232_nh.bmp
308.16	0.72	419	3	5	65	mem	lib	mod	mod	mod	tg	ht	wh/0784.bmp
308.88	0.72	420	1	8	98	per	con	low	mod	low	tg	n/a	wh/0963.bmp
309.60	0.72	421	3	8	50	mem	lib	mod	mod	mod	tg	ht	wh/0396.bmp
310.32	0.72	422	3	6	73	mem	lib	mod	mod	low	tg	ht	wh/0503.bmp
311.04	0.72	423	1	7	55	per	con	low	low	low	tg	ms	wh/0173.bmp
311.76	0.72	424	1	6	128	per	con	mod	low	mod	nt	fa	nh/0838_nh.bmp
312.48	0.72	425	4	8	89	per	lib	mod	mod	mod	nt	cr	nh/0855_nh.bmp
313.20	0.72	426	2	6	22	per	lib	low	mod	low	tg	ht	wh/0338.bmp
313.92	0.72	427	1	8	113	mem	lib	low	low	mod	tg	ht	wh/0038.bmp
314.64	0.72	428	3	5	91	per	con	low	mod	low	tg	ht	wh/0690.bmp
315.36	0.72	429	3	7	80	mem	con	mod	mod	mod	tg	ht	wh/0795.bmp
316.08	0.72	430	4	8	45	per	con	mod	mod	mod	nt	cr	nh/0594_nh.bmp
316.80	0.72	431	4	5	70	mem	lib	mod	mod	mod	tg	ht	wh/0447.bmp
317.52	0.72	432	1	7	41	per	lib	mod	low	mod	tg	ht	wh/0301.bmp
318.24	0.72	433	3	8	22	mem	con	mod	mod	low	tg	ht	wh/1023.bmp
318.96	0.72	434	4	6	76	mem	lib	mod	mod	low	nt	ht	nh/0893_nh.bmp
319.68	0.72	435	3	8	103	per	con	low	mod	low	tg	ht	wh/0660.bmp
320.40	0.72	436	3	5	73	mem	lib	mod	mod	mod	tg	ht	wh/0548.bmp
321.12	0.72	437	1	5	46	mem	lib	low	low	mod	tg	ht	wh/0316.bmp
321.84	0.72	438	4	5	91	per	con	low	mod	low	tg	ht	wh/0690.bmp
322.56	0.72	439	3	8	26	mem	con	mod	mod	low	nt	ht	nh/0608_nh.bmp
323.28	0.72	440	4	7	18	mem	lib	mod	mod	low	nt	ht	nh/0190_nh.bmp
324.00	0.72	441	1	8	126	mem	lib	low	low	mod	tg	ht	wh/0721.bmp
324.72	0.72	442	4	5	90	per	con	low	mod	low	nt	fa	nh/0036_nh.bmp
325.44	0.72	443	3	8	2	per	lib	low	mod	low	nt	fa	nh/0351_nh.bmp
326.16	0.72	444	4	6	26	per	lib	low	mod	low	tg	ht	wh/0134.bmp
326.88	0.72	445	3	8	56	mem	lib	mod	mod	mod	tg	ht	wh/0843.bmp
327.60	0.72	446	5	8	108	per	con	low	mod	low	tg	ht	wh/0194.bmp
328.32	0.72	447	3	5	126	mem	con	mod	mod	low	tg	ht	wh/0802.bmp
329.04	0.72	448	3	5	62	per	lib	mod	mod	mod	nt	cr	nh/0182_nh.bmp
329.76	0.72	449	5	5	90	per	con	low	mod	low	nt	fa	nh/0036_nh.bmp
330.48	0.72	450	4	8	16	per	lib	low	mod	low	tg	ht	wh/0730.bmp
331.20	0.72	451	4	5	65	mem	lib	mod	mod	mod	tg	ht	wh/0784.bmp
331.92	0.72	452	1	5	15	per	lib	low	low	low	tg	ms	wh/0261.bmp
332.64	0.72	453	4	5	73	mem	lib	mod	mod	mod	tg	ht	wh/0548.bmp
333.36	0.72	454	2	8	98	per	con	low	mod	low	tg	n/a	wh/0963.bmp
334.08	0.72	455	4	6	73	mem	lib	mod	mod	low	tg	ht	wh/0503.bmp
334.80	0.72	456	1	6	104	per	lib	mod	low	mod	nt	cr	nh/0584_nh.bmp
335.52	0.72	457	4	5	59	per	lib	mod	mod	mod	nt	cr	nh/0810_nh.bmp
336.24	0.72	458	3	8	92	per	lib	mod	mod	mod	tg	n/a	wh/0874.bmp
336.96	0.72	459	4	8	84	per	lib	mod	mod	mod	tg	ht	wh/0199.bmp
337.68	0.72	460	2	6	90	mem	con	mod	mod	mod	tg	ht	wh/0946.bmp
338.40	0.72	461	4	5	126	mem	con	mod	mod	low	tg	ht	wh/0802.bmp
339.12	0.72	462	1	6	69	mem	lib	mod	mod	low	tg	ht	wh/0508.bmp
339.84	0.72	463	5	8	89	per	lib	mod	mod	mod	nt	cr	nh/0855_nh.bmp
340.56	0.72	464	2	8	37	per	con	mod	mod	mod	nt	cr	nh/0543_nh.bmp
341.28	0.72	465	1	6	13	mem	con	low	low	low	tg	ht	wh/0488.bmp
342.00	0.72	466	4	8	51	mem	lib	mod	mod	mod	tg	ht	wh/0497.bmp
342.72	0.72	467	4	7	23	mem	lib	mod	mod	low	nt	ms	nh/0075_nh.bmp
343.44	0.72	468	4	8	29	mem	con	mod	mod	low	tg	ht	wh/0934.bmp
344.16	0.72	469	3	6	25	per	lib	low	mod	low	tg	ms	wh/0345.bmp
344.88	0.72	470	2	5	53	per	lib	mod	mod	mod	tg	ht	wh/0209.bmp
345.60	0.72	471	4	8	94	per	lib	mod	mod	mod	nt	cr	nh/0187_nh.bmp
346.32	0.72	472	2	5	54	per	lib	mod	mod	mod	nt	cr	nh/0904_nh.bmp
347.04	0.72	473	4	8	56	mem	lib	mod	mod	mod	tg	ht	wh/0843.bmp
347.76	0.72	474	4	5	62	per	lib	mod	mod	mod	nt	cr	nh/0182_nh.bmp
348.48	0.72	475	2	5	72	mem	lib	mod	mod	mod	nt	ms	nh/0947_nh.bmp
349.20	0.72	476	4	7	17	mem	lib	mod	mod	low	tg	ms	wh/0383.bmp
349.92	0.72	477	1	7	83	mem	con	low	low	low	nt	ht	nh/0158_nh.bmp
350.64	0.72	478	2	6	69	mem	lib	mod	mod	low	tg	ht	wh/0508.bmp
351.36	0.72	479	6	8	108	per	con	low	mod	low	tg	ht	wh/0194.bmp
352.08	0.72	480	4	5	85	per	con	low	mod	low	tg	ms	wh/0443.bmp
352.80	0.72	481	4	5	96	per	con	low	mod	low	nt	n/a	nh/0232_nh.bmp
353.52	0.72	482	5	5	59	per	lib	mod	mod	mod	nt	cr	nh/0810_nh.bmp
354.24	0.72	483	5	5	117	mem	con	mod	mod	low	nt	ht	nh/0150_nh.bmp
354.96	0.72	484	5	8	29	mem	con	mod	mod	low	tg	ht	wh/0934.bmp
355.68	0.72	485	4	5	83	per	con	low	mod	low	tg	ms	wh/0760.bmp
356.40	0.72	486	1	5	28	mem	con	low	low	mod	nt	ms	nh/0762_nh.bmp
357.12	0.72	487	4	6	71	mem	lib	mod	mod	low	tg	ht	wh/0577.bmp
357.84	0.72	488	5	8	20	mem	con	mod	mod	low	nt	ht	nh/0635_nh.bmp
358.56	0.72	489	4	8	26	mem	con	mod	mod	low	nt	ht	nh/0608_nh.bmp
359.28	0.72	490	3	5	107	per	con	mod	mod	mod	tg	ht	wh/0928.bmp
360.00	0.72	491	4	6	23	per	lib	low	mod	low	nt	cr	nh/0284_nh.bmp
360.72	0.72	492	5	8	62	mem	lib	mod	mod	mod	tg	ht	wh/0588.bmp
361.44	0.72	493	4	5	102	per	con	mod	mod	mod	tg	ht	wh/0803.bmp
362.16	0.72	494	2	7	79	mem	con	mod	mod	mod	tg	ht	wh/0442.bmp
362.88	0.72	495	3	5	53	per	lib	mod	mod	mod	tg	ht	wh/0209.bmp
363.60	0.72	496	3	5	54	per	lib	mod	mod	mod	nt	cr	nh/0904_nh.bmp
364.32	0.72	497	1	7	90	mem	con	low	low	low	tg	ms	wh/0237.bmp
365.04	0.72	498	2	8	90	per	lib	mod	mod	mod	tg	ms	wh/0222.bmp
365.76	0.72	499	5	5	101	per	con	mod	mod	mod	tg	ht	wh/0909.bmp
366.48	0.72	500	2	7	25	mem	lib	mod	mod	low	nt	ht	nh/0074_nh.bmp
367.20	0.72	501	4	8	21	mem	con	mod	mod	low	nt	ms	nh/0964_nh.bmp
367.92	0.72	502	1	7	10	per	con	mod	low	mod	nt	cr	nh/0220_nh.bmp
368.64	0.72	503	4	6	25	per	lib	low	mod	low	tg	ms	wh/0345.bmp
369.36	0.72	504	5	6	79	mem	lib	mod	mod	low	tg	ms	wh/0568.bmp
370.08	0.72	505	4	8	101	per	con	low	mod	low	nt	fa	nh/0032_nh.bmp
370.80	0.72	506	2	6	95	mem	con	mod	mod	mod	tg	ht	wh/0748.bmp
371.52	0.72	507	1	6	109	per	lib	mod	low	mod	nt	fa	nh/0581_nh.bmp
372.24	0.72	508	3	8	87	per	lib	mod	mod	mod	tg	ms	wh/0941.bmp
372.96	0.72	509	2	5	61	per	lib	mod	mod	mod	tg	ht	wh/0428.bmp
373.68	0.72	510	5	5	92	per	con	low	mod	low	nt	fa	nh/0077_nh.bmp
374.40	0.72	511	4	8	92	per	lib	mod	mod	mod	tg	n/a	wh/0874.bmp
375.12	0.72	512	4	7	80	mem	con	mod	mod	mod	tg	ht	wh/0795.bmp
375.84	0.72	513	1	6	62	mem	lib	low	low	low	nt	ht	nh/0579_nh.bmp
376.56	0.72	514	5	5	96	per	con	low	mod	low	nt	n/a	nh/0232_nh.bmp
377.28	0.72	515	5	5	110	per	con	mod	mod	mod	nt	cr	nh/0772_nh.bmp
378.00	0.72	516	5	8	16	per	lib	low	mod	low	tg	ht	wh/0730.bmp
378.72	0.72	517	1	7	14	per	con	mod	low	mod	nt	cr	nh/0025_nh.bmp
379.44	0.72	518	5	7	23	mem	lib	mod	mod	low	nt	ms	nh/0075_nh.bmp
380.16	0.72	519	4	5	58	per	lib	mod	mod	mod	nt	cr	nh/0650_nh.bmp
380.88	0.72	520	4	8	88	per	lib	mod	mod	mod	nt	cr	nh/0094_nh.bmp
381.60	0.72	521	6	5	59	per	lib	mod	mod	mod	nt	cr	nh/0810_nh.bmp
382.32	0.72	522	1	7	60	per	con	low	low	low	tg	ms	wh/0731.bmp
383.04	0.72	523	6	6	79	mem	lib	mod	mod	low	tg	ms	wh/0568.bmp
383.76	0.72	524	5	8	57	mem	lib	mod	mod	mod	nt	ms	nh/0876_nh.bmp
384.48	0.72	525	5	5	70	mem	lib	mod	mod	mod	tg	ht	wh/0447.bmp
385.20	0.72	526	1	6	37	per	con	low	low	low	nt	cr	nh/0090_nh.bmp
385.92	0.72	527	5	6	73	mem	lib	mod	mod	low	tg	ht	wh/0503.bmp
386.64	0.72	528	5	5	126	mem	con	mod	mod	low	tg	ht	wh/0802.bmp
387.36	0.72	529	1	7	108	per	lib	low	low	low	tg	ht	wh/0384.bmp
388.08	0.72	530	1	5	17	mem	con	low	low	mod	nt	ms	nh/0419_nh.bmp
388.80	0.72	531	1	6	100	per	lib	mod	low	mod	nt	cr	nh/0860_nh.bmp
389.52	0.72	532	3	8	10	per	lib	low	mod	low	nt	cr	nh/0364_nh.bmp
390.24	0.72	533	2	8	48	per	con	mod	mod	mod	nt	cr	nh/0542_nh.bmp
390.96	0.72	534	3	5	61	per	lib	mod	mod	mod	tg	ht	wh/0428.bmp
391.68	0.72	535	5	7	17	mem	lib	mod	mod	low	tg	ms	wh/0383.bmp
392.40	0.72	536	3	6	90	mem	con	mod	mod	mod	tg	ht	wh/0946.bmp
393.12	0.72	537	1	5	45	mem	lib	low	low	mod	tg	ht	wh/0340.bmp
393.84	0.72	538	4	8	13	per	lib	low	mod	low	nt	fa	nh/0256_nh.bmp
394.56	0.72	539	3	8	48	per	con	mod	mod	mod	nt	cr	nh/0542_nh.bmp
395.28	0.72	540	2	5	127	mem	con	mod	mod	low	tg	ht	wh/0417.bmp
396.00	0.72	541	3	6	88	mem	con	mod	mod	mod	nt	ms	nh/0558_nh.bmp
396.72	0.72	542	4	7	20	mem	lib	mod	mod	low	tg	ht	wh/0465.bmp
397.44	0.72	543	5	5	71	mem	lib	mod	mod	mod	nt	ht	nh/0462_nh.bmp
398.16	0.72	544	4	5	119	mem	con	mod	mod	low	nt	ht	nh/0079_nh.bmp
398.88	0.72	545	5	6	25	per	lib	low	mod	low	tg	ms	wh/0345.bmp
399.60	0.72	546	5	6	26	per	lib	low	mod	low	tg	ht	wh/0134.bmp
400.32	0.72	547	6	5	101	per	con	mod	mod	mod	tg	ht	wh/0909.bmp
401.04	0.72	548	3	8	6	per	lib	low	mod	low	nt	cr	nh/0758_nh.bmp
401.76	0.72	549	3	6	69	mem	lib	mod	mod	low	tg	ht	wh/0508.bmp
402.48	0.72	550	6	8	62	mem	lib	mod	mod	mod	tg	ht	wh/0588.bmp
403.20	0.72	551	6	5	117	mem	con	mod	mod	low	nt	ht	nh/0150_nh.bmp
403.92	0.72	552	1	7	118	mem	lib	low	low	low	nt	ms	nh/0710_nh.bmp
404.64	0.72	553	3	7	25	mem	lib	mod	mod	low	nt	ht	nh/0074_nh.bmp
405.36	0.72	554	4	5	99	per	con	mod	mod	mod	nt	fa	nh/0540_nh.bmp
406.08	0.72	555	3	8	98	per	con	low	mod	low	tg	n/a	wh/0963.bmp
406.80	0.72	556	5	8	21	mem	con	mod	mod	low	nt	ms	nh/0964_nh.bmp
407.52	0.72	557	5	5	119	mem	con	mod	mod	low	nt	ht	nh/0079_nh.bmp
408.24	0.72	558	3	7	75	mem	con	mod	mod	mod	tg	ms	wh/0684.bmp
408.96	0.72	559	3	6	95	mem	con	mod	mod	mod	tg	ht	wh/0748.bmp
409.68	0.72	560	4	6	90	mem	con	mod	mod	mod	tg	ht	wh/0946.bmp
410.40	0.72	561	1	7	36	per	lib	mod	low	mod	tg	ht	wh/0278.bmp
411.12	0.72	562	1	5	39	mem	lib	low	low	mod	nt	ht	nh/0669_nh.bmp
411.84	0.72	563	5	8	92	per	lib	mod	mod	mod	tg	n/a	wh/0874.bmp
412.56	0.72	564	4	5	116	mem	con	mod	mod	low	tg	ht	wh/0153.bmp
413.28	0.72	565	6	8	92	per	lib	mod	mod	mod	tg	n/a	wh/0874.bmp
414.00	0.72	566	3	5	72	mem	lib	mod	mod	mod	nt	ms	nh/0947_nh.bmp
414.72	0.72	567	3	8	106	per	con	low	mod	low	nt	cr	nh/0646_nh.bmp
415.44	0.72	568	6	7	68	mem	con	mod	mod	mod	nt	ms	nh/0902_nh.bmp
416.16	0.72	569	5	6	76	mem	lib	mod	mod	low	nt	ht	nh/0893_nh.bmp
416.88	0.72	570	6	5	110	per	con	mod	mod	mod	nt	cr	nh/0772_nh.bmp
417.60	0.72	571	3	5	122	mem	con	mod	mod	low	tg	ht	wh/0613.bmp
418.32	0.72	572	5	7	80	mem	con	mod	mod	mod	tg	ht	wh/0795.bmp
419.04	0.72	573	6	8	34	per	con	mod	mod	mod	tg	ht	wh/0446.bmp
419.76	0.72	574	5	6	71	mem	lib	mod	mod	low	tg	ht	wh/0577.bmp
420.48	0.72	575	3	7	77	mem	con	mod	mod	mod	nt	ms	nh/0591_nh.bmp
421.20	0.72	576	3	5	84	per	con	low	mod	low	tg	ms	wh/0361.bmp
421.92	0.72	577	5	5	102	per	con	mod	mod	mod	tg	ht	wh/0803.bmp
422.64	0.72	578	5	8	53	mem	lib	mod	mod	mod	nt	ms	nh/0095_nh.bmp
423.36	0.72	579	4	8	43	per	con	mod	mod	mod	nt	cr	nh/0680_nh.bmp
424.08	0.72	580	1	8	78	mem	con	low	low	mod	nt	ht	nh/0569_nh.bmp
424.80	0.72	581	4	5	53	per	lib	mod	mod	mod	tg	ht	wh/0209.bmp
425.52	0.72	582	4	6	88	mem	con	mod	mod	mod	nt	ms	nh/0558_nh.bmp
426.24	0.72	583	5	8	84	per	lib	mod	mod	mod	tg	ht	wh/0199.bmp
426.96	0.72	584	1	6	49	mem	lib	low	low	low	nt	ht	nh/0789_nh.bmp
427.68	0.72	585	6	7	80	mem	con	mod	mod	mod	tg	ht	wh/0795.bmp
428.40	0.72	586	3	7	19	mem	lib	mod	mod	low	tg	ms	wh/0125.bmp
429.12	0.72	587	5	6	90	mem	con	mod	mod	mod	tg	ht	wh/0946.bmp
429.84	0.72	588	1	6	125	per	con	mod	low	mod	nt	cr	nh/1018_nh.bmp
430.56	0.72	589	1	6	34	per	con	low	low	low	tg	ms	wh/0088.bmp
431.28	0.72	590	6	7	17	mem	lib	mod	mod	low	tg	ms	wh/0383.bmp
432.00	0.72	591	6	8	57	mem	lib	mod	mod	mod	nt	ms	nh/0876_nh.bmp
432.72	0.72	592	5	6	88	mem	con	mod	mod	mod	nt	ms	nh/0558_nh.bmp
433.44	0.72	593	4	5	61	per	lib	mod	mod	mod	tg	ht	wh/0428.bmp
434.16	0.72	594	4	6	31	per	lib	low	mod	low	nt	cr	nh/0329_nh.bmp
434.88	0.72	595	5	7	20	mem	lib	mod	mod	low	tg	ht	wh/0465.bmp
435.60	0.72	596	3	5	81	per	con	low	mod	low	nt	cr	nh/0818_nh.bmp
436.32	0.72	597	6	8	21	mem	con	mod	mod	low	nt	ms	nh/0964_nh.bmp
437.04	0.72	598	5	5	85	per	con	low	mod	low	tg	ms	wh/0443.bmp
437.76	0.72	599	5	8	51	mem	lib	mod	mod	mod	tg	ht	wh/0497.bmp
438.48	0.72	600	1	7	11	per	con	mod	low	mod	tg	ms	wh/0572.bmp
439.20	0.72	601	5	7	18	mem	lib	mod	mod	low	nt	ht	nh/0190_nh.bmp
439.92	0.72	602	3	7	79	mem	con	mod	mod	mod	tg	ht	wh/0442.bmp
440.64	0.72	603	5	8	13	per	lib	low	mod	low	nt	fa	nh/0256_nh.bmp
441.36	0.72	604	4	8	48	per	con	mod	mod	mod	nt	cr	nh/0542_nh.bmp
442.08	0.72	605	5	8	101	per	con	low	mod	low	nt	fa	nh/0032_nh.bmp
442.80	0.72	606	5	7	22	mem	lib	mod	mod	low	tg	ht	wh/0238.bmp
443.52	0.72	607	5	6	31	per	lib	low	mod	low	nt	cr	nh/0329_nh.bmp
444.24	0.72	608	6	5	51	per	lib	mod	mod	mod	tg	ms	wh/0805.bmp
444.96	0.72	609	1	7	37	per	lib	mod	low	mod	nt	fa	nh/0525_nh.bmp
445.68	0.72	610	1	7	103	per	lib	low	low	low	nt	fa	nh/0823_nh.bmp
446.40	0.72	611	2	8	31	mem	con	mod	mod	low	tg	ht	wh/0493.bmp
447.12	0.72	612	3	8	90	per	lib	mod	mod	mod	tg	ms	wh/0222.bmp
447.84	0.72	613	4	8	90	per	lib	mod	mod	mod	tg	ms	wh/0222.bmp
448.56	0.72	614	2	6	30	per	lib	low	mod	low	nt	cr	nh/0382_nh.bmp
449.28	0.72	615	1	5	41	mem	lib	low	low	mod	nt	ht	nh/0059_nh.bmp
450.00	0.72	616	4	5	81	per	con	low	mod	low	nt	cr	nh/0818_nh.bmp
450.72	0.72	617	6	8	51	mem	lib	mod	mod	mod	tg	ht	wh/0497.bmp
451.44	0.72	618	5	5	58	per	lib	mod	mod	mod	nt	cr	nh/0650_nh.bmp
452.16	0.72	619	6	5	108	per	con	mod	mod	mod	nt	cr	nh/0716_nh.bmp
452.88	0.72	620	1	5	43	mem	lib	low	low	mod	nt	n/a	nh/0290_nh.bmp
453.60	0.72	621	4	8	103	per	con	low	mod	low	tg	ht	wh/0660.bmp
454.32	0.72	622	5	8	48	per	con	mod	mod	mod	nt	cr	nh/0542_nh.bmp
455.04	0.72	623	6	8	12	per	lib	low	mod	low	tg	ht	wh/0744.bmp
455.76	0.72	624	1	7	120	mem	lib	low	low	low	nt	ht	nh/0571_nh.bmp
456.48	0.72	625	6	5	96	per	con	low	mod	low	nt	n/a	nh/0232_nh.bmp
457.20	0.72	626	4	7	25	mem	lib	mod	mod	low	nt	ht	nh/0074_nh.bmp
457.92	0.72	627	5	5	116	mem	con	mod	mod	low	tg	ht	wh/0153.bmp
458.64	0.72	628	4	7	65	mem	con	mod	mod	mod	nt	ht	nh/0328_nh.bmp
459.36	0.72	629	4	8	107	per	con	low	mod	low	nt	cr	nh/0940_nh.bmp
460.08	0.72	630	4	5	122	mem	con	mod	mod	low	tg	ht	wh/0613.bmp
460.80	0.72	631	5	8	26	mem	con	mod	mod	low	nt	ht	nh/0608_nh.bmp
461.52	0.72	632	5	6	28	per	lib	low	mod	low	nt	fa	nh/0299_nh.bmp
462.24	0.72	633	5	8	103	per	con	low	mod	low	tg	ht	wh/0660.bmp
462.96	0.72	634	5	5	81	per	con	low	mod	low	nt	cr	nh/0818_nh.bmp
463.68	0.72	635	4	8	98	per	con	low	mod	low	tg	n/a	wh/0963.bmp
464.40	0.72	636	4	7	71	mem	con	mod	mod	mod	tg	n/a	wh/0380.bmp
465.12	0.72	637	6	7	23	mem	lib	mod	mod	low	nt	ms	nh/0075_nh.bmp
465.84	0.72	638	3	5	105	per	con	mod	mod	mod	nt	cr	nh/0807_nh.bmp
466.56	0.72	639	5	5	122	mem	con	mod	mod	low	tg	ht	wh/0613.bmp
467.28	0.72	640	1	6	112	per	lib	mod	low	mod	tg	ht	wh/0966.bmp
468.00	0.72	641	1	7	49	per	con	low	low	low	nt	cr	nh/0881_nh.bmp
468.72	0.72	642	4	8	97	per	con	low	mod	low	nt	fa	nh/0080_nh.bmp
469.44	0.72	643	4	7	19	mem	lib	mod	mod	low	tg	ms	wh/0125.bmp
470.16	0.72	644	5	8	94	per	lib	mod	mod	mod	nt	cr	nh/0187_nh.bmp
470.88	0.72	645	6	8	29	mem	con	mod	mod	low	tg	ht	wh/0934.bmp
471.60	0.72	646	4	6	94	mem	con	mod	mod	mod	nt	ht	nh/0339_nh.bmp
472.32	0.72	647	1	6	54	mem	lib	low	low	low	tg	ht	wh/0370.bmp
473.04	0.72	648	3	6	84	mem	con	mod	mod	mod	tg	ht	wh/0957.bmp
473.76	0.72	649	3	8	31	mem	con	mod	mod	low	tg	ht	wh/0493.bmp
474.48	0.72	650	4	7	79	mem	con	mod	mod	mod	tg	ht	wh/0442.bmp
475.20	0.72	651	1	6	97	per	lib	mod	low	mod	tg	ht	wh/0936.bmp
475.92	0.72	652	4	5	114	mem	con	mod	mod	low	nt	ht	nh/0451_nh.bmp
476.64	0.72	653	6	5	119	mem	con	mod	mod	low	nt	ht	nh/0079_nh.bmp
477.36	0.72	654	4	8	5	per	lib	low	mod	low	tg	ms	wh/0355.bmp
478.08	0.72	655	5	8	45	per	con	mod	mod	mod	nt	cr	nh/0594_nh.bmp
478.80	0.72	656	6	8	13	per	lib	low	mod	low	nt	fa	nh/0256_nh.bmp
479.52	0.72	657	4	8	31	mem	con	mod	mod	low	tg	ht	wh/0493.bmp
480.24	0.72	658	1	6	107	per	lib	mod	low	mod	nt	cr	nh/0530_nh.bmp
480.96	0.72	659	4	5	107	per	con	mod	mod	mod	tg	ht	wh/0928.bmp
481.68	0.72	660	3	8	37	per	con	mod	mod	mod	nt	cr	nh/0543_nh.bmp
482.40	0.72	661	5	5	73	mem	lib	mod	mod	mod	tg	ht	wh/0548.bmp
483.12	0.72	662	5	5	61	per	lib	mod	mod	mod	tg	ht	wh/0428.bmp
483.84	0.72	663	3	6	30	per	lib	low	mod	low	nt	cr	nh/0382_nh.bmp
484.56	0.72	664	5	8	56	mem	lib	mod	mod	mod	tg	ht	wh/0843.bmp
485.28	0.72	665	5	8	98	per	con	low	mod	low	tg	n/a	wh/0963.bmp
486.00	0.72	666	5	6	87	mem	con	mod	mod	mod	tg	ht	wh/0962.bmp
486.72	0.72	667	4	8	60	mem	lib	mod	mod	mod	nt	ms	nh/0697_nh.bmp
487.44	0.72	668	6	7	22	mem	lib	mod	mod	low	tg	ht	wh/0238.bmp
488.16	0.72	669	5	5	83	per	con	low	mod	low	tg	ms	wh/0760.bmp
488.88	0.72	670	5	8	88	per	lib	mod	mod	mod	nt	cr	nh/0094_nh.bmp
489.60	0.72	671	6	8	26	mem	con	mod	mod	low	nt	ht	nh/0608_nh.bmp
490.32	0.72	672	6	8	103	per	con	low	mod	low	tg	ht	wh/0660.bmp
491.04	0.72	673	5	8	43	per	con	mod	mod	mod	nt	cr	nh/0680_nh.bmp
491.76	0.72	674	6	7	18	mem	lib	mod	mod	low	nt	ht	nh/0190_nh.bmp
492.48	0.72	675	4	6	95	mem	con	mod	mod	mod	tg	ht	wh/0748.bmp
493.20	0.72	676	6	8	48	per	con	mod	mod	mod	nt	cr	nh/0542_nh.bmp
493.92	0.72	677	2	8	8	per	lib	low	mod	low	tg	ht	wh/0404.bmp
494.64	0.72	678	4	6	30	per	lib	low	mod	low	nt	cr	nh/0382_nh.bmp
495.36	0.72	679	3	6	22	per	lib	low	mod	low	tg	ht	wh/0338.bmp
496.08	0.72	680	6	8	53	mem	lib	mod	mod	mod	nt	ms	nh/0095_nh.bmp
496.80	0.72	681	6	7	20	mem	lib	mod	mod	low	tg	ht	wh/0465.bmp
497.52	0.72	682	5	5	53	per	lib	mod	mod	mod	tg	ht	wh/0209.bmp
498.24	0.72	683	6	5	61	per	lib	mod	mod	mod	tg	ht	wh/0428.bmp
498.96	0.72	684	6	8	84	per	lib	mod	mod	mod	tg	ht	wh/0199.bmp
499.68	0.72	685	5	5	106	per	con	mod	mod	mod	tg	ms	wh/0371.bmp
500.40	0.72	686	3	5	127	mem	con	mod	mod	low	tg	ht	wh/0417.bmp
501.12	0.72	687	5	8	97	per	con	low	mod	low	nt	fa	nh/0080_nh.bmp
501.84	0.72	688	5	8	107	per	con	low	mod	low	nt	cr	nh/0940_nh.bmp
502.56	0.72	689	3	6	20	per	lib	low	mod	low	tg	ht	wh/0510.bmp
503.28	0.72	690	2	8	40	per	con	mod	mod	mod	tg	ht	wh/0196.bmp
504.00	0.72	691	1	6	14	mem	con	low	low	low	nt	ht	nh/1007_nh.bmp
504.72	0.72	692	4	8	50	mem	lib	mod	mod	mod	tg	ht	wh/0396.bmp
505.44	0.72	693	1	6	117	per	con	mod	low	mod	tg	ht	wh/0461.bmp
506.16	0.72	694	4	5	105	per	con	mod	mod	mod	nt	cr	nh/0807_nh.bmp
506.88	0.72	695	4	8	106	per	con	low	mod	low	nt	cr	nh/0646_nh.bmp
507.60	0.72	696	4	8	2	per	lib	low	mod	low	nt	fa	nh/0351_nh.bmp
508.32	0.72	697	4	5	54	per	lib	mod	mod	mod	nt	cr	nh/0904_nh.bmp
509.04	0.72	698	4	8	87	per	lib	mod	mod	mod	tg	ms	wh/0941.bmp
509.76	0.72	699	3	8	8	per	lib	low	mod	low	tg	ht	wh/0404.bmp
510.48	0.72	700	5	6	94	mem	con	mod	mod	mod	nt	ht	nh/0339_nh.bmp
511.20	0.72	701	5	8	90	per	lib	mod	mod	mod	tg	ms	wh/0222.bmp
511.92	0.72	702	4	7	75	mem	con	mod	mod	mod	tg	ms	wh/0684.bmp
512.64	0.72	703	1	6	15	mem	con	low	low	low	tg	ms	wh/0528.bmp
513.36	0.72	704	1	6	120	per	con	mod	low	mod	tg	ht	wh/1024.bmp
514.08	0.72	705	4	7	72	mem	con	mod	mod	mod	nt	ht	nh/0398_nh.bmp
514.80	0.72	706	6	8	44	per	con	mod	mod	mod	tg	ht	wh/0714.bmp
515.52	0.72	707	6	5	81	per	con	low	mod	low	nt	cr	nh/0818_nh.bmp
516.24	0.72	708	3	8	40	per	con	mod	mod	mod	tg	ht	wh/0196.bmp
516.96	0.72	709	5	8	87	per	lib	mod	mod	mod	tg	ms	wh/0941.bmp
517.68	0.72	710	5	7	19	mem	lib	mod	mod	low	tg	ms	wh/0125.bmp
518.40	0.72	711	6	8	43	per	con	mod	mod	mod	nt	cr	nh/0680_nh.bmp
519.12	0.72	712	6	8	45	per	con	mod	mod	mod	nt	cr	nh/0594_nh.bmp
519.84	0.72	713	5	8	2	per	lib	low	mod	low	nt	fa	nh/0351_nh.bmp
520.56	0.72	714	4	8	8	per	lib	low	mod	low	tg	ht	wh/0404.bmp
521.28	0.72	715	4	5	78	mem	lib	mod	mod	mod	nt	ht	nh/0973_nh.bmp
522.00	0.72	716	6	8	110	per	con	low	mod	low	tg	ms	wh/0035.bmp
522.72	0.72	717	6	5	79	mem	lib	mod	mod	mod	tg	ht	wh/0563.bmp
523.44	0.72	718	5	5	99	per	con	mod	mod	mod	nt	fa	nh/0540_nh.bmp
524.16	0.72	719	1	6	122	per	con	mod	low	mod	tg	ht	wh/0849.bmp
524.88	0.72	720	6	6	94	mem	con	mod	mod	mod	nt	ht	nh/0339_nh.bmp
525.60	0.72	721	4	8	37	per	con	mod	mod	mod	nt	cr	nh/0543_nh.bmp
526.32	0.72	722	5	7	27	mem	lib	mod	mod	low	nt	ht	nh/0967_nh.bmp
527.04	0.72	723	5	8	31	mem	con	mod	mod	low	tg	ht	wh/0493.bmp
527.76	0.72	724	6	6	90	mem	con	mod	mod	mod	tg	ht	wh/0946.bmp
528.48	0.72	725	5	7	71	mem	con	mod	mod	mod	tg	n/a	wh/0380.bmp
529.20	0.72	726	4	6	22	per	lib	low	mod	low	tg	ht	wh/0338.bmp
529.92	0.72	727	1	7	107	per	lib	low	low	low	nt	cr	nh/0633_nh.bmp
530.64	0.72	728	6	6	71	mem	lib	mod	mod	low	tg	ht	wh/0577.bmp
531.36	0.72	729	6	6	31	per	lib	low	mod	low	nt	cr	nh/0329_nh.bmp
532.08	0.72	730	5	6	30	per	lib	low	mod	low	nt	cr	nh/0382_nh.bmp
532.80	0.72	731	5	6	66	mem	lib	mod	mod	low	nt	ht	nh/0489_nh.bmp
533.52	0.72	732	4	8	40	per	con	mod	mod	mod	tg	ht	wh/0196.bmp
534.24	0.72	733	5	8	40	per	con	mod	mod	mod	tg	ht	wh/0196.bmp
534.96	0.72	734	1	5	16	per	lib	low	low	low	tg	ms	wh/0055.bmp
535.68	0.72	735	4	8	6	per	lib	low	mod	low	nt	cr	nh/0758_nh.bmp
536.40	0.72	736	6	8	107	per	con	low	mod	low	nt	cr	nh/0940_nh.bmp
537.12	0.72	737	4	6	84	mem	con	mod	mod	mod	tg	ht	wh/0957.bmp
537.84	0.72	738	5	7	79	mem	con	mod	mod	mod	tg	ht	wh/0442.bmp
538.56	0.72	739	6	5	99	per	con	mod	mod	mod	nt	fa	nh/0540_nh.bmp
539.28	0.72	740	4	6	69	mem	lib	mod	mod	low	tg	ht	wh/0508.bmp
540.00	0.72	741	1	6	114	per	con	mod	low	mod	nt	cr	nh/0781_nh.bmp
540.72	0.72	742	5	5	65	mem	lib	mod	mod	mod	tg	ht	wh/0784.bmp
541.44	0.72	743	4	5	127	mem	con	mod	mod	low	tg	ht	wh/0417.bmp
542.16	0.72	744	6	5	102	per	con	mod	mod	mod	tg	ht	wh/0803.bmp
542.88	0.72	745	6	6	66	mem	lib	mod	mod	low	nt	ht	nh/0489_nh.bmp
543.60	0.72	746	6	8	27	mem	con	mod	mod	low	nt	ht	nh/0082_nh.bmp
544.32	0.72	747	6	8	98	per	con	low	mod	low	tg	n/a	wh/0963.bmp
545.04	0.72	748	5	6	23	per	lib	low	mod	low	nt	cr	nh/0284_nh.bmp
545.76	0.72	749	1	6	57	mem	lib	low	low	low	tg	ht	wh/0930.bmp
546.48	0.72	750	4	7	77	mem	con	mod	mod	mod	nt	ms	nh/0591_nh.bmp
547.20	0.72	751	6	6	28	per	lib	low	mod	low	nt	fa	nh/0299_nh.bmp
547.92	0.72	752	1	7	126	mem	lib	low	low	low	tg	ms	wh/0206.bmp
548.64	0.72	753	6	5	106	per	con	mod	mod	mod	tg	ms	wh/0371.bmp
549.36	0.72	754	6	8	90	per	lib	mod	mod	mod	tg	ms	wh/0222.bmp
550.08	0.72	755	6	5	85	per	con	low	mod	low	tg	ms	wh/0443.bmp
550.80	0.72	756	5	8	37	per	con	mod	mod	mod	nt	cr	nh/0543_nh.bmp
551.52	0.72	757	4	8	10	per	lib	low	mod	low	nt	cr	nh/0364_nh.bmp
552.24	0.72	758	5	8	106	per	con	low	mod	low	nt	cr	nh/0646_nh.bmp
552.96	0.72	759	6	5	53	per	lib	mod	mod	mod	tg	ht	wh/0209.bmp
553.68	0.72	760	5	6	22	per	lib	low	mod	low	tg	ht	wh/0338.bmp
554.40	0.72	761	4	8	28	mem	con	mod	mod	low	tg	ht	wh/0123.bmp
555.12	0.72	762	1	7	57	per	con	low	low	low	nt	cr	nh/0434_nh.bmp
555.84	0.72	763	5	5	127	mem	con	mod	mod	low	tg	ht	wh/0417.bmp
556.56	0.72	764	5	5	78	mem	lib	mod	mod	mod	nt	ht	nh/0973_nh.bmp
557.28	0.72	765	4	6	20	per	lib	low	mod	low	tg	ht	wh/0510.bmp
558.00	0.72	766	6	7	19	mem	lib	mod	mod	low	tg	ms	wh/0125.bmp
558.72	0.72	767	6	8	89	per	lib	mod	mod	mod	nt	cr	nh/0855_nh.bmp
559.44	0.72	768	6	8	37	per	con	mod	mod	mod	nt	cr	nh/0543_nh.bmp
560.16	0.72	769	5	7	65	mem	con	mod	mod	mod	nt	ht	nh/0328_nh.bmp
560.88	0.72	770	5	8	60	mem	lib	mod	mod	mod	nt	ms	nh/0697_nh.bmp
561.60	0.72	771	6	8	60	mem	lib	mod	mod	mod	nt	ms	nh/0697_nh.bmp
562.32	0.72	772	6	5	73	mem	lib	mod	mod	mod	tg	ht	wh/0548.bmp
563.04	0.72	773	4	5	72	mem	lib	mod	mod	mod	nt	ms	nh/0947_nh.bmp
563.76	0.72	774	5	5	72	mem	lib	mod	mod	mod	nt	ms	nh/0947_nh.bmp
564.48	0.72	775	5	6	85	mem	con	mod	mod	mod	nt	ht	nh/0593_nh.bmp
565.20	0.72	776	1	7	119	mem	lib	low	low	low	nt	ht	nh/0113_nh.bmp
565.92	0.72	777	1	8	67	mem	con	low	low	mod	tg	ms	wh/0693.bmp
566.64	0.72	778	5	7	25	mem	lib	mod	mod	low	nt	ht	nh/0074_nh.bmp
567.36	0.72	779	1	7	16	per	con	mod	low	mod	tg	ht	wh/0277.bmp
568.08	0.72	780	5	7	75	mem	con	mod	mod	mod	tg	ms	wh/0684.bmp
568.80	0.72	781	6	5	90	per	con	low	mod	low	nt	fa	nh/0036_nh.bmp
569.52	0.72	782	4	5	84	per	con	low	mod	low	tg	ms	wh/0361.bmp
570.24	0.72	783	1	7	94	mem	con	low	low	low	tg	ht	wh/0536.bmp
570.96	0.72	784	1	6	111	per	lib	mod	low	mod	tg	ht	wh/0787.bmp
571.68	0.72	785	6	7	71	mem	con	mod	mod	mod	tg	n/a	wh/0380.bmp
572.40	0.72	786	5	5	62	per	lib	mod	mod	mod	nt	cr	nh/0182_nh.bmp
573.12	0.72	787	6	6	76	mem	lib	mod	mod	low	nt	ht	nh/0893_nh.bmp
573.84	0.72	788	4	5	76	mem	lib	mod	mod	mod	nt	ht	nh/0397_nh.bmp
574.56	0.72	789	1	7	47	per	lib	mod	low	mod	nt	cr	nh/0718_nh.bmp
575.28	0.72	790	1	8	115	mem	lib	low	low	mod	nt	ms	nh/0933_nh.bmp
576.00	0.72	791	1	7	102	per	lib	low	low	low	tg	ht	wh/0812.bmp
576.72	0.72	792	5	8	8	per	lib	low	mod	low	tg	ht	wh/0404.bmp
577.44	0.72	793	6	5	126	mem	con	mod	mod	low	tg	ht	wh/0802.bmp
578.16	0.72	794	5	6	95	mem	con	mod	mod	mod	tg	ht	wh/0748.bmp
578.88	0.72	795	1	6	116	per	con	mod	low	mod	nt	cr	nh/0736_nh.bmp
579.60	0.72	796	5	5	54	per	lib	mod	mod	mod	nt	cr	nh/0904_nh.bmp
580.32	0.72	797	5	5	105	per	con	mod	mod	mod	nt	cr	nh/0807_nh.bmp
581.04	0.72	798	1	7	2	per	con	mod	low	mod	nt	cr	nh/0870_nh.bmp
581.76	0.72	799	6	6	87	mem	con	mod	mod	mod	tg	ht	wh/0962.bmp
582.48	0.72	800	5	5	91	per	con	low	mod	low	tg	ht	wh/0690.bmp
583.20	0.72	801	1	7	124	mem	lib	low	low	low	tg	ht	wh/0483.bmp
583.92	0.72	802	6	8	33	per	con	mod	mod	mod	tg	ht	wh/0099.bmp
584.64	0.72	803	1	6	38	per	con	low	low	low	tg	ms	wh/0831.bmp
585.36	0.72	804	6	5	127	mem	con	mod	mod	low	tg	ht	wh/0417.bmp
586.08	0.72	805	4	8	22	mem	con	mod	mod	low	tg	ht	wh/1023.bmp
586.80	0.72	806	5	5	84	per	con	low	mod	low	tg	ms	wh/0361.bmp
587.52	0.72	807	1	8	116	mem	lib	low	low	mod	nt	ht	nh/0900_nh.bmp
588.24	0.72	808	6	5	72	mem	lib	mod	mod	mod	nt	ms	nh/0947_nh.bmp
588.96	0.72	809	6	6	25	per	lib	low	mod	low	tg	ms	wh/0345.bmp
589.68	0.72	810	1	7	61	per	con	low	low	low	nt	cr	nh/0013_nh.bmp
590.40	0.72	811	5	8	50	mem	lib	mod	mod	mod	tg	ht	wh/0396.bmp
591.12	0.72	812	6	8	94	per	lib	mod	mod	mod	nt	cr	nh/0187_nh.bmp
591.84	0.72	813	1	7	39	per	lib	mod	low	mod	tg	ht	wh/0520.bmp
592.56	0.72	814	6	5	84	per	con	low	mod	low	tg	ms	wh/0361.bmp
593.28	0.72	815	5	6	84	mem	con	mod	mod	mod	tg	ht	wh/0957.bmp
594.00	0.72	816	6	5	105	per	con	mod	mod	mod	nt	cr	nh/0807_nh.bmp
594.72	0.72	817	5	8	5	per	lib	low	mod	low	tg	ms	wh/0355.bmp
595.44	0.72	818	6	6	88	mem	con	mod	mod	mod	nt	ms	nh/0558_nh.bmp
596.16	0.72	819	6	5	62	per	lib	mod	mod	mod	nt	cr	nh/0182_nh.bmp
596.88	0.72	820	5	7	72	mem	con	mod	mod	mod	nt	ht	nh/0398_nh.bmp
597.60	0.72	821	6	5	122	mem	con	mod	mod	low	tg	ht	wh/0613.bmp
598.32	0.72	822	5	5	107	per	con	mod	mod	mod	tg	ht	wh/0928.bmp
599.04	0.72	823	5	8	6	per	lib	low	mod	low	nt	cr	nh/0758_nh.bmp
599.76	0.72	824	6	8	2	per	lib	low	mod	low	nt	fa	nh/0351_nh.bmp
600.48	0.72	825	5	8	22	mem	con	mod	mod	low	tg	ht	wh/1023.bmp
601.20	0.72	826	6	8	22	mem	con	mod	mod	low	tg	ht	wh/1023.bmp
601.92	0.72	827	6	6	26	per	lib	low	mod	low	tg	ht	wh/0134.bmp
602.64	0.72	828	5	5	114	mem	con	mod	mod	low	nt	ht	nh/0451_nh.bmp
603.36	0.72	829	6	8	56	mem	lib	mod	mod	mod	tg	ht	wh/0843.bmp
604.08	0.72	830	5	7	77	mem	con	mod	mod	mod	nt	ms	nh/0591_nh.bmp
604.80	0.72	831	6	5	65	mem	lib	mod	mod	mod	tg	ht	wh/0784.bmp
605.52	0.72	832	6	6	30	per	lib	low	mod	low	nt	cr	nh/0382_nh.bmp
606.24	0.72	833	6	5	70	mem	lib	mod	mod	mod	tg	ht	wh/0447.bmp
606.96	0.72	834	6	5	54	per	lib	mod	mod	mod	nt	cr	nh/0904_nh.bmp
607.68	0.72	835	6	8	50	mem	lib	mod	mod	mod	tg	ht	wh/0396.bmp
608.40	0.72	836	1	5	23	mem	con	low	low	mod	tg	ht	wh/0216.bmp
609.12	0.72	837	6	7	75	mem	con	mod	mod	mod	tg	ms	wh/0684.bmp
609.84	0.72	838	1	7	104	per	lib	low	low	low	nt	fa	nh/0998_nh.bmp
610.56	0.72	839	6	7	77	mem	con	mod	mod	mod	nt	ms	nh/0591_nh.bmp
611.28	0.72	840	1	7	125	mem	lib	low	low	low	nt	ms	nh/0695_nh.bmp
612.00	0.72	841	6	7	79	mem	con	mod	mod	mod	tg	ht	wh/0442.bmp
612.72	0.72	842	5	6	69	mem	lib	mod	mod	low	tg	ht	wh/0508.bmp
613.44	0.72	843	6	8	87	per	lib	mod	mod	mod	tg	ms	wh/0941.bmp
614.16	0.72	844	6	7	27	mem	lib	mod	mod	low	nt	ht	nh/0967_nh.bmp
614.88	0.72	845	6	6	73	mem	lib	mod	mod	low	tg	ht	wh/0503.bmp
615.60	0.72	846	6	6	92	mem	con	mod	mod	mod	nt	ht	nh/0350_nh.bmp
616.32	0.72	847	6	5	78	mem	lib	mod	mod	mod	nt	ht	nh/0973_nh.bmp
617.04	0.72	848	6	8	40	per	con	mod	mod	mod	tg	ht	wh/0196.bmp
617.76	0.72	849	5	5	76	mem	lib	mod	mod	mod	nt	ht	nh/0397_nh.bmp
618.48	0.72	850	6	5	107	per	con	mod	mod	mod	tg	ht	wh/0928.bmp
619.20	0.72	851	1	5	7	per	lib	low	low	low	nt	cr	nh/0458_nh.bmp
619.92	0.72	852	6	8	106	per	con	low	mod	low	nt	cr	nh/0646_nh.bmp
620.64	0.72	853	6	8	6	per	lib	low	mod	low	nt	cr	nh/0758_nh.bmp
621.36	0.72	854	6	8	20	mem	con	mod	mod	low	nt	ht	nh/0635_nh.bmp
622.08	0.72	855	6	6	95	mem	con	mod	mod	mod	tg	ht	wh/0748.bmp
622.80	0.72	856	5	6	20	per	lib	low	mod	low	tg	ht	wh/0510.bmp
623.52	0.72	857	5	5	49	per	lib	mod	mod	mod	tg	ht	wh/0273.bmp
624.24	0.72	858	6	8	31	mem	con	mod	mod	low	tg	ht	wh/0493.bmp
624.96	0.72	859	6	5	58	per	lib	mod	mod	mod	nt	cr	nh/0650_nh.bmp
625.68	0.72	860	5	8	10	per	lib	low	mod	low	nt	cr	nh/0364_nh.bmp
626.40	0.72	861	6	7	72	mem	con	mod	mod	mod	nt	ht	nh/0398_nh.bmp
627.12	0.72	862	6	5	71	mem	lib	mod	mod	mod	nt	ht	nh/0462_nh.bmp
627.84	0.72	863	6	5	114	mem	con	mod	mod	low	nt	ht	nh/0451_nh.bmp
628.56	0.72	864	5	6	70	mem	lib	mod	mod	low	nt	ht	nh/0619_nh.bmp
629.28	0.72	865	6	8	101	per	con	low	mod	low	nt	fa	nh/0032_nh.bmp
630.00	0.72	866	6	7	65	mem	con	mod	mod	mod	nt	ht	nh/0328_nh.bmp
630.72	0.72	867	6	6	23	per	lib	low	mod	low	nt	cr	nh/0284_nh.bmp
631.44	0.72	868	6	8	10	per	lib	low	mod	low	nt	cr	nh/0364_nh.bmp
632.16	0.72	869	6	8	88	per	lib	mod	mod	mod	nt	cr	nh/0094_nh.bmp
632.88	0.72	870	1	6	50	mem	lib	low	low	low	tg	ht	wh/0864.bmp
633.60	0.72	871	6	6	85	mem	con	mod	mod	mod	nt	ht	nh/0593_nh.bmp
634.32	0.72	872	6	5	116	mem	con	mod	mod	low	tg	ht	wh/0153.bmp
635.04	0.72	873	1	8	72	mem	con	low	low	mod	nt	ht	nh/0096_nh.bmp
635.76	0.72	874	6	5	76	mem	lib	mod	mod	mod	nt	ht	nh/0397_nh.bmp
636.48	0.72	875	6	6	20	per	lib	low	mod	low	tg	ht	wh/0510.bmp
637.20	0.72	876	1	7	96	mem	con	low	low	low	nt	ht	nh/0266_nh.bmp
637.92	0.72	877	1	6	110	per	lib	mod	low	mod	tg	ht	wh/0531.bmp
638.64	0.72	878	6	6	84	mem	con	mod	mod	mod	tg	ht	wh/0957.bmp
639.36	0.72	879	1	6	41	per	con	low	low	low	nt	cr	nh/0711_nh.bmp
640.08	0.72	880	6	5	91	per	con	low	mod	low	tg	ht	wh/0690.bmp
640.80	0.72	881	6	8	5	per	lib	low	mod	low	tg	ms	wh/0355.bmp
641.52	0.72	882	6	8	61	mem	lib	mod	mod	mod	nt	ht	nh/0954_nh.bmp
642.24	0.72	883	6	6	22	per	lib	low	mod	low	tg	ht	wh/0338.bmp
642.96	0.72	884	6	6	69	mem	lib	mod	mod	low	tg	ht	wh/0508.bmp
643.68	0.72	885	6	7	25	mem	lib	mod	mod	low	nt	ht	nh/0074_nh.bmp
644.40	0.72	886	6	5	92	per	con	low	mod	low	nt	fa	nh/0077_nh.bmp
645.12	0.72	887	5	8	28	mem	con	mod	mod	low	tg	ht	wh/0123.bmp
645.84	0.72	888	6	8	8	per	lib	low	mod	low	tg	ht	wh/0404.bmp
646.56	0.72	889	6	5	49	per	lib	mod	mod	mod	tg	ht	wh/0273.bmp
647.28	0.72	890	6	8	97	per	con	low	mod	low	nt	fa	nh/0080_nh.bmp
648.00	0.72	891	6	8	28	mem	con	mod	mod	low	tg	ht	wh/0123.bmp
648.72	0.72	892	1	7	116	mem	lib	low	low	low	tg	ht	wh/0146.bmp
649.44	0.72	893	6	5	83	per	con	low	mod	low	tg	ms	wh/0760.bmp
650.16	0.72	894	6	8	16	per	lib	low	mod	low	tg	ht	wh/0730.bmp
650.88	0.72	895	6	6	70	mem	lib	mod	mod	low	nt	ht	nh/0619_nh.bmp
651.60	0.72	896	6	6	77	mem	lib	mod	mod	low	nt	ht	nh/0029_nh.bmp
