onset	duration	trial	pres	ts_blk	ts_trl	task	crit	disc	mem_disc	per_disc	per_type	accuracy	stim_file
7.20	0.72	1	1	7	18	per	lib	mod	mod	mod	tg	ht	wh/0795.bmp
7.92	0.72	2	1	7	26	per	lib	mod	mod	mod	nt	fa	nh/0398_nh.bmp
8.64	0.72	3	1	5	85	per	con	low	mod	low	nt	cr	nh/0489_nh.bmp
9.36	0.72	4	1	5	99	per	lib	mod	mod	mod	nt	cr	nh/0339_nh.bmp
10.08	0.72	5	2	5	99	per	lib	mod	mod	mod	nt	cr	nh/0339_nh.bmp
10.80	0.72	6	1	7	102	mem	con	mod	mod	low	tg	ms	wh/0404.bmp
11.52	0.72	7	1	7	125	per	lib	low	mod	low	tg	ht	wh/0123.bmp
12.24	0.72	8	1	5	22	mem	con	mod	mod	low	tg	n/a	wh/0510.bmp
12.96	0.72	9	1	8	124	per	con	low	mod	low	tg	ht	wh/0238.bmp
13.68	0.72	10	1	7	105	mem	con	mod	mod	low	nt	ms	nh/0351_nh.bmp
14.40	0.72	11	1	5	23	mem	con	mod	mod	low	nt	ht	nh/0382_nh.bmp
15.12	0.72	12	1	7	25	per	lib	mod	mod	mod	tg	ht	wh/0684.bmp
15.84	0.72	13	1	6	103	mem	lib	mod	mod	low	nt	ht	nh/0077_nh.bmp
16.56	0.72	14	1	7	49	mem	lib	mod	mod	low	nt	ht	nh/0940_nh.bmp
17.28	0.72	15	2	7	105	mem	con	mod	mod	low	nt	ms	nh/0351_nh.bmp
18.00	0.72	16	1	6	1	mem	lib	low	low	low	tg	ht	wh/1009.bmp
18.72	0.72	17	1	7	59	mem	lib	mod	mod	low	nt	ht	nh/0646_nh.bmp
19.44	0.72	18	1	8	128	per	con	low	mod	low	tg	ms	wh/0125.bmp
20.16	0.72	19	1	5	71	per	lib	low	mod	low	tg	ht	wh/0417.bmp
20.88	0.72	20	1	7	120	per	lib	low	mod	low	nt	fa	nh/0082_nh.bmp
21.60	0.72	21	1	5	110	per	lib	mod	mod	mod	nt	cr	nh/0593_nh.bmp
22.32	0.72	22	1	7	72	per	con	low	low	low	tg	ms	wh/0483.bmp
23.04	0.72	23	1	7	115	per	lib	low	mod	low	nt	fa	nh/0635_nh.bmp
23.76	0.72	24	1	6	19	per	con	mod	low	mod	tg	ht	wh/0316.bmp
24.48	0.72	25	1	8	24	mem	con	mod	mod	mod	tg	ms	wh/0222.bmp
25.20	0.72	26	1	7	63	mem	lib	mod	mod	low	nt	n/a	nh/0032_nh.bmp
25.92	0.72	27	1	5	104	per	lib	mod	mod	mod	nt	cr	nh/0558_nh.bmp
26.64	0.72	28	1	7	103	mem	con	mod	mod	low	nt	ms	nh/0256_nh.bmp
27.36	0.72	29	1	8	66	mem	con	low	low	low	nt	ms	nh/0998_nh.bmp
28.08	0.72	30	2	8	24	mem	con	mod	mod	mod	tg	ms	wh/0222.bmp
28.80	0.72	31	1	8	31	mem	con	mod	mod	mod	tg	ms	wh/0199.bmp
29.52	0.72	32	1	5	96	per	con	low	mod	low	nt	cr	nh/0029_nh.bmp
30.24	0.72	33	1	5	13	mem	lib	mod	mod	mod	nt	ht	nh/0716_nh.bmp
30.96	0.72	34	1	7	2	per	con	mod	mod	mod	tg	ms	wh/0588.bmp
31.68	0.72	35	1	6	127	per	lib	mod	low	mod	nt	cr	nh/0469_nh.bmp
32.40	0.72	36	1	8	19	mem	con	mod	mod	mod	nt	ms	nh/0094_nh.bmp
33.12	0.72	37	1	6	27	per	con	mod	low	mod	nt	cr	nh/0059_nh.bmp
33.84	0.72	38	1	8	73	mem	con	low	low	low	nt	ms	nh/0823_nh.bmp
34.56	0.72	39	1	7	12	per	con	mod	mod	mod	tg	ms	wh/0497.bmp
35.28	0.72	40	1	5	5	mem	lib	mod	mod	mod	nt	ht	nh/0540_nh.bmp
36.00	0.72	41	2	5	23	mem	con	mod	mod	low	nt	ht	nh/0382_nh.bmp
36.72	0.72	42	1	8	83	mem	lib	mod	mod	mod	tg	ht	wh/0714.bmp
37.44	0.72	43	1	8	117	per	con	low	mod	low	nt	cr	nh/0074_nh.bmp
38.16	0.72	44	1	6	97	mem	lib	mod	mod	low	nt	n/a	nh/0818_nh.bmp
38.88	0.72	45	1	7	56	mem	lib	mod	mod	low	tg	n/a	wh/0963.bmp
39.60	0.72	46	1	5	21	mem	con	mod	mod	low	nt	n/a	nh/0299_nh.bmp
40.32	0.72	47	1	6	119	per	lib	mod	low	mod	nt	fa	nh/0923_nh.bmp
41.04	0.72	48	1	7	116	per	lib	low	mod	low	tg	ht	wh/0934.bmp
41.76	0.72	49	1	5	125	mem	con	low	low	low	tg	n/a	wh/0768.bmp
42.48	0.72	50	1	6	98	mem	lib	mod	mod	low	tg	ht	wh/0443.bmp
43.20	0.72	51	2	7	63	mem	lib	mod	mod	low	nt	n/a	nh/0032_nh.bmp
43.92	0.72	52	1	6	32	per	con	mod	low	mod	nt	cr	nh/0598_nh.bmp
44.64	0.72	53	1	6	12	mem	lib	low	low	low	nt	ht	nh/0711_nh.bmp
45.36	0.72	54	1	6	90	mem	con	mod	mod	mod	nt	ms	nh/0904_nh.bmp
46.08	0.72	55	1	7	127	per	lib	low	mod	low	tg	ht	wh/0493.bmp
46.80	0.72	56	1	5	87	per	con	low	mod	low	tg	ht	wh/0577.bmp
47.52	0.72	57	1	5	44	per	con	mod	mod	mod	tg	ms	wh/0784.bmp
48.24	0.72	58	1	5	38	per	con	mod	mod	mod	tg	ms	wh/0563.bmp
48.96	0.72	59	2	5	104	per	lib	mod	mod	mod	nt	cr	nh/0558_nh.bmp
49.68	0.72	60	2	7	56	mem	lib	mod	mod	low	tg	n/a	wh/0963.bmp
50.40	0.72	61	1	6	83	mem	con	mod	mod	mod	nt	ms	nh/0810_nh.bmp
51.12	0.72	62	2	5	85	per	con	low	mod	low	nt	cr	nh/0489_nh.bmp
51.84	0.72	63	2	5	5	mem	lib	mod	mod	mod	nt	ht	nh/0540_nh.bmp
52.56	0.72	64	1	7	60	mem	lib	mod	mod	low	tg	ht	wh/0660.bmp
53.28	0.72	65	1	7	4	per	con	mod	mod	mod	nt	cr	nh/0954_nh.bmp
54.00	0.72	66	1	6	68	per	lib	low	low	low	nt	cr	nh/1007_nh.bmp
54.72	0.72	67	1	6	6	mem	lib	low	low	low	nt	ht	nh/0090_nh.bmp
55.44	0.72	68	2	6	103	mem	lib	mod	mod	low	nt	ht	nh/0077_nh.bmp
56.16	0.72	69	1	7	13	per	con	mod	mod	mod	nt	cr	nh/0697_nh.bmp
56.88	0.72	70	1	7	23	per	lib	mod	mod	mod	nt	cr	nh/0902_nh.bmp
57.60	0.72	71	2	7	125	per	lib	low	mod	low	tg	ht	wh/0123.bmp
58.32	0.72	72	1	6	93	mem	con	mod	mod	mod	tg	ht	wh/0209.bmp
59.04	0.72	73	1	8	82	mem	lib	mod	mod	mod	tg	ht	wh/0446.bmp
59.76	0.72	74	1	5	31	mem	con	mod	mod	low	nt	ms	nh/0284_nh.bmp
60.48	0.72	75	1	5	41	per	con	mod	mod	mod	tg	ht	wh/0548.bmp
61.20	0.72	76	1	7	17	per	lib	mod	mod	mod	tg	ms	wh/0380.bmp
61.92	0.72	77	1	7	89	mem	con	low	low	mod	tg	ms	wh/0927.bmp
62.64	0.72	78	2	7	4	per	con	mod	mod	mod	nt	cr	nh/0954_nh.bmp
63.36	0.72	79	1	5	78	per	lib	low	mod	low	nt	cr	nh/0336_nh.bmp
64.08	0.72	80	1	5	105	per	lib	mod	mod	mod	tg	ht	wh/0748.bmp
64.80	0.72	81	1	5	36	per	con	mod	mod	mod	nt	cr	nh/0973_nh.bmp
65.52	0.72	82	1	8	27	mem	con	mod	mod	mod	nt	ms	nh/0319_nh.bmp
66.24	0.72	83	1	6	85	mem	con	mod	mod	mod	tg	ms	wh/0273.bmp
66.96	0.72	84	1	7	14	per	con	mod	mod	mod	nt	cr	nh/0095_nh.bmp
67.68	0.72	85	1	7	107	mem	con	mod	mod	low	tg	ms	wh/0744.bmp
68.40	0.72	86	1	5	54	mem	lib	low	low	mod	tg	ht	wh/0461.bmp
69.12	0.72	87	1	8	88	mem	lib	mod	mod	mod	nt	ms	nh/0542_nh.bmp
69.84	0.72	88	1	8	32	mem	con	mod	mod	mod	nt	ms	nh/0855_nh.bmp
70.56	0.72	89	1	8	18	mem	con	mod	mod	mod	tg	ms	wh/0874.bmp
71.28	0.72	90	1	5	62	mem	lib	low	low	mod	tg	ht	wh/1024.bmp
72.00	0.72	91	1	7	19	per	lib	mod	mod	mod	nt	n/a	nh/0328_nh.bmp
72.72	0.72	92	1	8	70	mem	con	low	low	low	tg	n/a	wh/0812.bmp
73.44	0.72	93	1	5	1	mem	lib	mod	mod	mod	tg	ht	wh/0928.bmp
74.16	0.72	94	1	7	101	mem	con	mod	mod	low	nt	ms	nh/0758_nh.bmp
74.88	0.72	95	1	7	110	mem	con	mod	mod	low	tg	ms	wh/0355.bmp
75.60	0.72	96	2	8	27	mem	con	mod	mod	mod	nt	ms	nh/0319_nh.bmp
76.32	0.72	97	1	7	79	per	con	low	low	low	tg	ms	wh/0146.bmp
77.04	0.72	98	3	8	24	mem	con	mod	mod	mod	tg	ms	wh/0222.bmp
77.76	0.72	99	1	5	126	mem	con	low	low	low	nt	ms	nh/0706_nh.bmp
78.48	0.72	100	3	6	103	mem	lib	mod	mod	low	nt	ht	nh/0077_nh.bmp
79.20	0.72	101	3	8	27	mem	con	mod	mod	mod	nt	ms	nh/0319_nh.bmp
79.92	0.72	102	1	7	122	per	lib	low	mod	low	tg	ht	wh/1023.bmp
80.64	0.72	103	2	6	85	mem	con	mod	mod	mod	tg	ms	wh/0273.bmp
81.36	0.72	104	1	5	107	per	lib	mod	mod	mod	tg	ht	wh/0957.bmp
82.08	0.72	105	1	5	121	mem	con	low	low	low	tg	ht	wh/0055.bmp
82.80	0.72	106	1	5	82	per	con	low	mod	low	nt	cr	nh/0893_nh.bmp
83.52	0.72	107	2	7	23	per	lib	mod	mod	mod	nt	cr	nh/0902_nh.bmp
84.24	0.72	108	1	5	8	mem	lib	mod	mod	mod	tg	ht	wh/0909.bmp
84.96	0.72	109	1	5	52	mem	lib	low	low	mod	nt	ht	nh/0838_nh.bmp
85.68	0.72	110	1	6	51	mem	con	low	low	mod	tg	ms	wh/0787.bmp
86.40	0.72	111	2	7	19	per	lib	mod	mod	mod	nt	n/a	nh/0328_nh.bmp
87.12	0.72	112	1	8	75	mem	con	low	low	low	nt	n/a	nh/0633_nh.bmp
87.84	0.72	113	1	6	71	per	lib	low	low	low	nt	cr	nh/0431_nh.bmp
88.56	0.72	114	2	7	18	per	lib	mod	mod	mod	tg	ht	wh/0795.bmp
89.28	0.72	115	1	5	34	per	con	mod	mod	mod	nt	cr	nh/0397_nh.bmp
90.00	0.72	116	1	8	35	per	lib	low	low	low	nt	cr	nh/0439_nh.bmp
90.72	0.72	117	3	7	23	per	lib	mod	mod	mod	nt	cr	nh/0902_nh.bmp
91.44	0.72	118	3	7	18	per	lib	mod	mod	mod	tg	ht	wh/0795.bmp
92.16	0.72	119	2	5	110	per	lib	mod	mod	mod	nt	cr	nh/0593_nh.bmp
92.88	0.72	120	2	5	105	per	lib	mod	mod	mod	tg	ht	wh/0748.bmp
93.60	0.72	121	3	7	56	mem	lib	mod	mod	low	tg	n/a	wh/0963.bmp
94.32	0.72	122	1	7	8	per	con	mod	mod	mod	tg	ms	wh/0843.bmp
95.04	0.72	123	1	8	114	per	con	low	mod	low	tg	ms	wh/0465.bmp
95.76	0.72	124	1	8	85	mem	lib	mod	mod	mod	nt	ht	nh/0594_nh.bmp
96.48	0.72	125	1	5	30	mem	con	mod	mod	low	tg	ms	wh/0134.bmp
97.20	0.72	126	1	8	125	per	con	low	mod	low	tg	ms	wh/0383.bmp
97.92	0.72	127	1	5	74	per	lib	low	mod	low	nt	fa	nh/0150_nh.bmp
98.64	0.72	128	3	5	105	per	lib	mod	mod	mod	tg	ht	wh/0748.bmp
99.36	0.72	129	1	7	52	mem	lib	mod	mod	low	nt	n/a	nh/0080_nh.bmp
100.08	0.72	130	1	8	67	mem	con	low	low	low	nt	ms	nh/0507_nh.bmp
100.80	0.72	131	4	7	56	mem	lib	mod	mod	low	tg	n/a	wh/0963.bmp
101.52	0.72	132	1	8	93	mem	lib	mod	mod	mod	nt	n/a	nh/0680_nh.bmp
102.24	0.72	133	1	5	92	per	con	low	mod	low	tg	ms	wh/0568.bmp
102.96	0.72	134	1	5	4	mem	lib	mod	mod	mod	tg	ht	wh/0803.bmp
103.68	0.72	135	2	5	22	mem	con	mod	mod	low	tg	n/a	wh/0510.bmp
104.40	0.72	136	1	8	106	per	lib	mod	low	mod	nt	cr	nh/0626_nh.bmp
105.12	0.72	137	2	7	107	mem	con	mod	mod	low	tg	ms	wh/0744.bmp
105.84	0.72	138	2	6	93	mem	con	mod	mod	mod	tg	ht	wh/0209.bmp
106.56	0.72	139	1	6	82	mem	con	mod	mod	mod	nt	ht	nh/0650_nh.bmp
107.28	0.72	140	1	8	25	mem	con	mod	mod	mod	nt	ms	nh/0187_nh.bmp
108.00	0.72	141	4	8	27	mem	con	mod	mod	mod	nt	ms	nh/0319_nh.bmp
108.72	0.72	142	2	8	128	per	con	low	mod	low	tg	ms	wh/0125.bmp
109.44	0.72	143	1	6	84	mem	con	mod	mod	mod	tg	ms	wh/0805.bmp
110.16	0.72	144	2	6	82	mem	con	mod	mod	mod	nt	ht	nh/0650_nh.bmp
110.88	0.72	145	2	8	125	per	con	low	mod	low	tg	ms	wh/0383.bmp
111.60	0.72	146	2	5	71	per	lib	low	mod	low	tg	ht	wh/0417.bmp
112.32	0.72	147	2	5	44	per	con	mod	mod	mod	tg	ms	wh/0784.bmp
113.04	0.72	148	2	5	31	mem	con	mod	mod	low	nt	ms	nh/0284_nh.bmp
113.76	0.72	149	2	8	83	mem	lib	mod	mod	mod	tg	ht	wh/0714.bmp
114.48	0.72	150	2	6	98	mem	lib	mod	mod	low	tg	ht	wh/0443.bmp
115.20	0.72	151	1	7	9	per	con	mod	mod	mod	tg	ms	wh/0396.bmp
115.92	0.72	152	1	5	32	mem	con	mod	mod	low	tg	ms	wh/0338.bmp
116.64	0.72	153	1	5	75	per	lib	low	mod	low	nt	n/a	nh/0079_nh.bmp
117.36	0.72	154	3	8	125	per	con	low	mod	low	tg	ms	wh/0383.bmp
118.08	0.72	155	2	5	21	mem	con	mod	mod	low	nt	n/a	nh/0299_nh.bmp
118.80	0.72	156	3	7	4	per	con	mod	mod	mod	nt	cr	nh/0954_nh.bmp
119.52	0.72	157	2	7	127	per	lib	low	mod	low	tg	ht	wh/0493.bmp
120.24	0.72	158	4	6	103	mem	lib	mod	mod	low	nt	ht	nh/0077_nh.bmp
120.96	0.72	159	1	5	86	per	con	low	mod	low	tg	ms	wh/0503.bmp
121.68	0.72	160	1	5	77	per	lib	low	mod	low	tg	ht	wh/0802.bmp
122.40	0.72	161	1	8	12	mem	lib	low	low	low	tg	ht	wh/0225.bmp
123.12	0.72	162	2	5	107	per	lib	mod	mod	mod	tg	ht	wh/0957.bmp
123.84	0.72	163	2	7	110	mem	con	mod	mod	low	tg	ms	wh/0355.bmp
124.56	0.72	164	2	8	117	per	con	low	mod	low	nt	cr	nh/0074_nh.bmp
125.28	0.72	165	1	8	98	per	lib	mod	low	mod	tg	ht	wh/0693.bmp
126.00	0.72	166	2	6	84	mem	con	mod	mod	mod	tg	ms	wh/0805.bmp
126.72	0.72	167	1	5	76	per	lib	low	mod	low	nt	n/a	nh/0451_nh.bmp
127.44	0.72	168	1	7	28	per	lib	mod	mod	mod	tg	ht	wh/0442.bmp
128.16	0.72	169	3	7	63	mem	lib	mod	mod	low	nt	n/a	nh/0032_nh.bmp
128.88	0.72	170	1	8	90	mem	lib	mod	mod	mod	tg	ht	wh/0099.bmp
129.60	0.72	171	3	6	85	mem	con	mod	mod	mod	tg	ms	wh/0273.bmp
130.32	0.72	172	2	7	8	per	con	mod	mod	mod	tg	ms	wh/0843.bmp
131.04	0.72	173	1	8	126	per	con	low	mod	low	nt	cr	nh/0967_nh.bmp
131.76	0.72	174	3	8	117	per	con	low	mod	low	nt	cr	nh/0074_nh.bmp
132.48	0.72	175	2	5	13	mem	lib	mod	mod	mod	nt	ht	nh/0716_nh.bmp
133.20	0.72	176	1	5	35	per	con	mod	mod	mod	tg	ms	wh/0447.bmp
133.92	0.72	177	2	5	32	mem	con	mod	mod	low	tg	ms	wh/0338.bmp
134.64	0.72	178	2	7	17	per	lib	mod	mod	mod	tg	ms	wh/0380.bmp
135.36	0.72	179	1	7	1	per	con	mod	mod	mod	nt	cr	nh/0876_nh.bmp
136.08	0.72	180	2	7	2	per	con	mod	mod	mod	tg	ms	wh/0588.bmp
136.80	0.72	181	1	5	111	per	lib	mod	mod	mod	tg	ht	wh/0946.bmp
137.52	0.72	182	1	5	72	per	lib	low	mod	low	tg	ht	wh/0613.bmp
138.24	0.72	183	3	8	83	mem	lib	mod	mod	mod	tg	ht	wh/0714.bmp
138.96	0.72	184	1	8	22	mem	con	mod	mod	mod	tg	ms	wh/0941.bmp
139.68	0.72	185	2	7	60	mem	lib	mod	mod	low	tg	ht	wh/0660.bmp
140.40	0.72	186	2	7	120	per	lib	low	mod	low	nt	fa	nh/0082_nh.bmp
141.12	0.72	187	1	5	46	per	con	mod	mod	mod	nt	cr	nh/0947_nh.bmp
141.84	0.72	188	2	8	31	mem	con	mod	mod	mod	tg	ms	wh/0199.bmp
142.56	0.72	189	2	8	85	mem	lib	mod	mod	mod	nt	ht	nh/0594_nh.bmp
143.28	0.72	190	2	7	26	per	lib	mod	mod	mod	nt	fa	nh/0398_nh.bmp
144.00	0.72	191	3	8	31	mem	con	mod	mod	mod	tg	ms	wh/0199.bmp
144.72	0.72	192	2	7	101	mem	con	mod	mod	low	nt	ms	nh/0758_nh.bmp
145.44	0.72	193	3	8	85	mem	lib	mod	mod	mod	nt	ht	nh/0594_nh.bmp
146.16	0.72	194	1	6	49	mem	con	low	low	mod	tg	ms	wh/0936.bmp
146.88	0.72	195	2	6	90	mem	con	mod	mod	mod	nt	ms	nh/0904_nh.bmp
147.60	0.72	196	1	7	121	per	lib	low	mod	low	nt	cr	nh/0608_nh.bmp
148.32	0.72	197	2	7	52	mem	lib	mod	mod	low	nt	n/a	nh/0080_nh.bmp
149.04	0.72	198	2	7	121	per	lib	low	mod	low	nt	cr	nh/0608_nh.bmp
149.76	0.72	199	2	5	82	per	con	low	mod	low	nt	cr	nh/0893_nh.bmp
150.48	0.72	200	3	7	52	mem	lib	mod	mod	low	nt	n/a	nh/0080_nh.bmp
151.20	0.72	201	2	5	36	per	con	mod	mod	mod	nt	cr	nh/0973_nh.bmp
151.92	0.72	202	3	5	13	mem	lib	mod	mod	mod	nt	ht	nh/0716_nh.bmp
152.64	0.72	203	3	7	110	mem	con	mod	mod	low	tg	ms	wh/0355.bmp
153.36	0.72	204	2	8	25	mem	con	mod	mod	mod	nt	ms	nh/0187_nh.bmp
154.08	0.72	205	2	5	96	per	con	low	mod	low	nt	cr	nh/0029_nh.bmp
154.80	0.72	206	3	5	104	per	lib	mod	mod	mod	nt	cr	nh/0558_nh.bmp
155.52	0.72	207	1	7	66	per	con	low	low	low	nt	cr	nh/0710_nh.bmp
156.24	0.72	208	2	8	19	mem	con	mod	mod	mod	nt	ms	nh/0094_nh.bmp
156.96	0.72	209	1	7	78	per	con	low	low	low	nt	cr	nh/0695_nh.bmp
157.68	0.72	210	1	5	24	mem	con	mod	mod	low	nt	ms	nh/0329_nh.bmp
158.40	0.72	211	1	8	57	per	con	mod	low	mod	nt	n/a	nh/0900_nh.bmp
159.12	0.72	212	1	6	102	mem	lib	mod	mod	low	nt	ht	nh/0036_nh.bmp
159.84	0.72	213	3	7	107	mem	con	mod	mod	low	tg	ms	wh/0744.bmp
160.56	0.72	214	4	7	18	per	lib	mod	mod	mod	tg	ht	wh/0795.bmp
161.28	0.72	215	1	5	58	mem	lib	low	low	mod	nt	ht	nh/0781_nh.bmp
162.00	0.72	216	1	7	43	mem	lib	low	low	mod	nt	ht	nh/0870_nh.bmp
162.72	0.72	217	1	5	91	per	con	low	mod	low	nt	cr	nh/0619_nh.bmp
163.44	0.72	218	3	5	21	mem	con	mod	mod	low	nt	n/a	nh/0299_nh.bmp
164.16	0.72	219	1	5	66	per	lib	low	mod	low	tg	ht	wh/0153.bmp
164.88	0.72	220	3	7	26	per	lib	mod	mod	mod	nt	fa	nh/0398_nh.bmp
165.60	0.72	221	2	6	102	mem	lib	mod	mod	low	nt	ht	nh/0036_nh.bmp
166.32	0.72	222	2	5	24	mem	con	mod	mod	low	nt	ms	nh/0329_nh.bmp
167.04	0.72	223	4	5	13	mem	lib	mod	mod	mod	nt	ht	nh/0716_nh.bmp
167.76	0.72	224	1	6	17	per	con	mod	low	mod	tg	ms	wh/0708.bmp
168.48	0.72	225	1	5	56	mem	lib	low	low	mod	tg	ms	wh/0849.bmp
169.20	0.72	226	1	8	4	mem	lib	low	low	low	nt	ht	nh/0881_nh.bmp
169.92	0.72	227	1	5	48	per	con	mod	mod	mod	nt	cr	nh/0462_nh.bmp
170.64	0.72	228	2	5	92	per	con	low	mod	low	tg	ms	wh/0568.bmp
171.36	0.72	229	3	6	98	mem	lib	mod	mod	low	tg	ht	wh/0443.bmp
172.08	0.72	230	3	5	44	per	con	mod	mod	mod	tg	ms	wh/0784.bmp
172.80	0.72	231	1	6	123	per	lib	mod	low	mod	nt	cr	nh/0419_nh.bmp
173.52	0.72	232	3	6	93	mem	con	mod	mod	mod	tg	ht	wh/0209.bmp
174.24	0.72	233	3	5	5	mem	lib	mod	mod	mod	nt	ht	nh/0540_nh.bmp
174.96	0.72	234	3	7	17	per	lib	mod	mod	mod	tg	ms	wh/0380.bmp
175.68	0.72	235	1	7	118	per	lib	low	mod	low	nt	fa	nh/0964_nh.bmp
176.40	0.72	236	1	6	101	mem	lib	mod	mod	low	tg	ht	wh/0361.bmp
177.12	0.72	237	3	5	24	mem	con	mod	mod	low	nt	ms	nh/0329_nh.bmp
177.84	0.72	238	2	5	111	per	lib	mod	mod	mod	tg	ht	wh/0946.bmp
178.56	0.72	239	1	8	89	mem	lib	mod	mod	mod	nt	n/a	nh/0543_nh.bmp
179.28	0.72	240	1	6	55	mem	con	low	low	mod	nt	ms	nh/0581_nh.bmp
180.00	0.72	241	3	7	8	per	con	mod	mod	mod	tg	ms	wh/0843.bmp
180.72	0.72	242	2	5	30	mem	con	mod	mod	low	tg	ms	wh/0134.bmp
181.44	0.72	243	2	5	78	per	lib	low	mod	low	nt	cr	nh/0336_nh.bmp
182.16	0.72	244	2	7	116	per	lib	low	mod	low	tg	ht	wh/0934.bmp
182.88	0.72	245	4	7	26	per	lib	mod	mod	mod	nt	fa	nh/0398_nh.bmp
183.60	0.72	246	1	5	2	mem	lib	mod	mod	mod	tg	ht	wh/0371.bmp
184.32	0.72	247	1	8	52	per	con	mod	low	mod	nt	cr	nh/0933_nh.bmp
185.04	0.72	248	1	5	119	mem	con	low	low	low	tg	ms	wh/0433.bmp
185.76	0.72	249	2	6	83	mem	con	mod	mod	mod	nt	ms	nh/0810_nh.bmp
186.48	0.72	250	1	5	7	mem	lib	mod	mod	mod	nt	ht	nh/0807_nh.bmp
187.20	0.72	251	1	7	45	mem	lib	low	low	mod	nt	n/a	nh/0220_nh.bmp
187.92	0.72	252	2	5	86	per	con	low	mod	low	tg	ms	wh/0503.bmp
188.64	0.72	253	2	7	13	per	con	mod	mod	mod	nt	cr	nh/0697_nh.bmp
189.36	0.72	254	4	7	4	per	con	mod	mod	mod	nt	cr	nh/0954_nh.bmp
190.08	0.72	255	2	8	22	mem	con	mod	mod	mod	tg	ms	wh/0941.bmp
190.80	0.72	256	3	6	90	mem	con	mod	mod	mod	nt	ms	nh/0904_nh.bmp
191.52	0.72	257	1	7	109	mem	con	mod	mod	low	tg	n/a	wh/0730.bmp
192.24	0.72	258	2	7	14	per	con	mod	mod	mod	nt	cr	nh/0095_nh.bmp
192.96	0.72	259	1	7	33	mem	lib	low	low	mod	tg	ms	wh/0277.bmp
193.68	0.72	260	1	7	57	mem	lib	mod	mod	low	tg	ht	wh/0035.bmp
194.40	0.72	261	2	5	1	mem	lib	mod	mod	mod	tg	ht	wh/0928.bmp
195.12	0.72	262	2	7	57	mem	lib	mod	mod	low	tg	ht	wh/0035.bmp
195.84	0.72	263	2	5	77	per	lib	low	mod	low	tg	ht	wh/0802.bmp
196.56	0.72	264	1	6	87	mem	con	mod	mod	mod	nt	ms	nh/0182_nh.bmp
197.28	0.72	265	1	7	21	per	lib	mod	mod	mod	nt	cr	nh/0591_nh.bmp
198.00	0.72	266	2	7	28	per	lib	mod	mod	mod	tg	ht	wh/0442.bmp
198.72	0.72	267	1	6	45	per	con	low	low	low	tg	ms	wh/0701.bmp
199.44	0.72	268	3	5	92	per	con	low	mod	low	tg	ms	wh/0568.bmp
200.16	0.72	269	2	5	38	per	con	mod	mod	mod	tg	ms	wh/0563.bmp
200.88	0.72	270	3	5	77	per	lib	low	mod	low	tg	ht	wh/0802.bmp
201.60	0.72	271	1	8	69	mem	con	low	low	low	tg	ms	wh/0956.bmp
202.32	0.72	272	4	7	52	mem	lib	mod	mod	low	nt	n/a	nh/0080_nh.bmp
203.04	0.72	273	1	7	53	mem	lib	mod	mod	low	tg	n/a	wh/0194.bmp
203.76	0.72	274	4	6	93	mem	con	mod	mod	mod	tg	ht	wh/0209.bmp
204.48	0.72	275	2	7	1	per	con	mod	mod	mod	nt	cr	nh/0876_nh.bmp
205.20	0.72	276	3	5	107	per	lib	mod	mod	mod	tg	ht	wh/0957.bmp
205.92	0.72	277	2	7	21	per	lib	mod	mod	mod	nt	cr	nh/0591_nh.bmp
206.64	0.72	278	1	5	109	per	lib	mod	mod	mod	nt	fa	nh/0350_nh.bmp
207.36	0.72	279	2	7	49	mem	lib	mod	mod	low	nt	ht	nh/0940_nh.bmp
208.08	0.72	280	2	8	89	mem	lib	mod	mod	mod	nt	n/a	nh/0543_nh.bmp
208.80	0.72	281	2	5	87	per	con	low	mod	low	tg	ht	wh/0577.bmp
209.52	0.72	282	3	7	105	mem	con	mod	mod	low	nt	ms	nh/0351_nh.bmp
210.24	0.72	283	4	5	24	mem	con	mod	mod	low	nt	ms	nh/0329_nh.bmp
210.96	0.72	284	1	8	122	per	con	low	mod	low	nt	cr	nh/0075_nh.bmp
211.68	0.72	285	2	8	124	per	con	low	mod	low	tg	ht	wh/0238.bmp
212.40	0.72	286	1	6	52	mem	con	low	low	mod	tg	ms	wh/0531.bmp
213.12	0.72	287	1	7	112	mem	con	mod	mod	low	nt	ht	nh/0364_nh.bmp
213.84	0.72	288	2	5	7	mem	lib	mod	mod	mod	nt	ht	nh/0807_nh.bmp
214.56	0.72	289	1	5	16	mem	lib	mod	mod	mod	nt	ht	nh/0772_nh.bmp
215.28	0.72	290	2	7	59	mem	lib	mod	mod	low	nt	ht	nh/0646_nh.bmp
216.00	0.72	291	1	8	2	mem	lib	low	low	low	tg	ht	wh/0731.bmp
216.72	0.72	292	1	8	55	per	con	mod	low	mod	tg	ms	wh/0038.bmp
217.44	0.72	293	2	7	109	mem	con	mod	mod	low	tg	n/a	wh/0730.bmp
218.16	0.72	294	2	8	18	mem	con	mod	mod	mod	tg	ms	wh/0874.bmp
218.88	0.72	295	5	6	103	mem	lib	mod	mod	low	nt	ht	nh/0077_nh.bmp
219.60	0.72	296	2	8	122	per	con	low	mod	low	nt	cr	nh/0075_nh.bmp
220.32	0.72	297	1	6	80	per	lib	low	low	low	tg	ms	wh/0528.bmp
221.04	0.72	298	1	6	65	per	lib	low	low	low	tg	ht	wh/0215.bmp
221.76	0.72	299	1	8	80	mem	con	low	low	low	tg	n/a	wh/0384.bmp
222.48	0.72	300	2	7	112	mem	con	mod	mod	low	nt	ht	nh/0364_nh.bmp
223.20	0.72	301	5	7	26	per	lib	mod	mod	mod	nt	fa	nh/0398_nh.bmp
223.92	0.72	302	3	7	116	per	lib	low	mod	low	tg	ht	wh/0934.bmp
224.64	0.72	303	2	5	4	mem	lib	mod	mod	mod	tg	ht	wh/0803.bmp
225.36	0.72	304	2	7	103	mem	con	mod	mod	low	nt	ms	nh/0256_nh.bmp
226.08	0.72	305	3	5	7	mem	lib	mod	mod	mod	nt	ht	nh/0807_nh.bmp
226.80	0.72	306	5	5	24	mem	con	mod	mod	low	nt	ms	nh/0329_nh.bmp
227.52	0.72	307	3	7	2	per	con	mod	mod	mod	tg	ms	wh/0588.bmp
228.24	0.72	308	2	7	115	per	lib	low	mod	low	nt	fa	nh/0635_nh.bmp
228.96	0.72	309	2	5	16	mem	lib	mod	mod	mod	nt	ht	nh/0772_nh.bmp
229.68	0.72	310	1	8	40	per	lib	low	low	low	tg	ht	wh/0691.bmp
230.40	0.72	311	5	6	93	mem	con	mod	mod	mod	tg	ht	wh/0209.bmp
231.12	0.72	312	2	5	8	mem	lib	mod	mod	mod	tg	ht	wh/0909.bmp
231.84	0.72	313	3	5	85	per	con	low	mod	low	nt	cr	nh/0489_nh.bmp
232.56	0.72	314	3	8	18	mem	con	mod	mod	mod	tg	ms	wh/0874.bmp
233.28	0.72	315	3	5	1	mem	lib	mod	mod	mod	tg	ht	wh/0928.bmp
234.00	0.72	316	2	5	91	per	con	low	mod	low	nt	cr	nh/0619_nh.bmp
234.72	0.72	317	2	7	25	per	lib	mod	mod	mod	tg	ht	wh/0684.bmp
235.44	0.72	318	2	8	32	mem	con	mod	mod	mod	nt	ms	nh/0855_nh.bmp
236.16	0.72	319	3	7	103	mem	con	mod	mod	low	nt	ms	nh/0256_nh.bmp
236.88	0.72	320	2	5	66	per	lib	low	mod	low	tg	ht	wh/0153.bmp
237.60	0.72	321	4	6	85	mem	con	mod	mod	mod	tg	ms	wh/0273.bmp
238.32	0.72	322	2	5	2	mem	lib	mod	mod	mod	tg	ht	wh/0371.bmp
239.04	0.72	323	2	6	101	mem	lib	mod	mod	low	tg	ht	wh/0361.bmp
239.76	0.72	324	3	5	22	mem	con	mod	mod	low	tg	n/a	wh/0510.bmp
240.48	0.72	325	2	7	53	mem	lib	mod	mod	low	tg	n/a	wh/0194.bmp
241.20	0.72	326	1	8	44	per	lib	low	low	low	nt	fa	nh/0266_nh.bmp
241.92	0.72	327	2	5	48	per	con	mod	mod	mod	nt	cr	nh/0462_nh.bmp
242.64	0.72	328	3	5	82	per	con	low	mod	low	nt	cr	nh/0893_nh.bmp
243.36	0.72	329	1	7	69	per	con	low	low	low	tg	ms	wh/0206.bmp
244.08	0.72	330	1	8	7	mem	lib	low	low	low	nt	ht	nh/0013_nh.bmp
244.80	0.72	331	3	8	19	mem	con	mod	mod	mod	nt	ms	nh/0094_nh.bmp
245.52	0.72	332	2	5	75	per	lib	low	mod	low	nt	n/a	nh/0079_nh.bmp
246.24	0.72	333	3	7	127	per	lib	low	mod	low	tg	ht	wh/0493.bmp
246.96	0.72	334	1	6	107	mem	lib	mod	mod	low	tg	ht	wh/0690.bmp
247.68	0.72	335	4	7	23	per	lib	mod	mod	mod	nt	cr	nh/0902_nh.bmp
248.40	0.72	336	3	7	25	per	lib	mod	mod	mod	tg	ht	wh/0684.bmp
249.12	0.72	337	1	7	70	per	con	low	low	low	nt	cr	nh/0571_nh.bmp
249.84	0.72	338	4	8	24	mem	con	mod	mod	mod	tg	ms	wh/0222.bmp
250.56	0.72	339	4	5	77	per	lib	low	mod	low	tg	ht	wh/0802.bmp
251.28	0.72	340	3	6	84	mem	con	mod	mod	mod	tg	ms	wh/0805.bmp
252.00	0.72	341	4	7	25	per	lib	mod	mod	mod	tg	ht	wh/0684.bmp
252.72	0.72	342	3	5	111	per	lib	mod	mod	mod	tg	ht	wh/0946.bmp
253.44	0.72	343	5	8	27	mem	con	mod	mod	mod	nt	ms	nh/0319_nh.bmp
254.16	0.72	344	1	8	101	per	lib	mod	low	mod	nt	cr	nh/0569_nh.bmp
254.88	0.72	345	1	8	11	mem	lib	low	low	low	tg	ht	wh/0173.bmp
255.60	0.72	346	1	6	105	mem	lib	mod	mod	low	nt	ht	nh/0232_nh.bmp
256.32	0.72	347	3	6	82	mem	con	mod	mod	mod	nt	ht	nh/0650_nh.bmp
257.04	0.72	348	4	5	85	per	con	low	mod	low	nt	cr	nh/0489_nh.bmp
257.76	0.72	349	4	7	8	per	con	mod	mod	mod	tg	ms	wh/0843.bmp
258.48	0.72	350	3	5	110	per	lib	mod	mod	mod	nt	cr	nh/0593_nh.bmp
259.20	0.72	351	3	7	125	per	lib	low	mod	low	tg	ht	wh/0123.bmp
259.92	0.72	352	4	8	125	per	con	low	mod	low	tg	ms	wh/0383.bmp
260.64	0.72	353	3	5	38	per	con	mod	mod	mod	tg	ms	wh/0563.bmp
261.36	0.72	354	2	7	118	per	lib	low	mod	low	nt	fa	nh/0964_nh.bmp
262.08	0.72	355	4	5	22	mem	con	mod	mod	low	tg	n/a	wh/0510.bmp
262.80	0.72	356	2	5	72	per	lib	low	mod	low	tg	ht	wh/0613.bmp
263.52	0.72	357	2	5	41	per	con	mod	mod	mod	tg	ht	wh/0548.bmp
264.24	0.72	358	2	5	109	per	lib	mod	mod	mod	nt	fa	nh/0350_nh.bmp
264.96	0.72	359	3	7	101	mem	con	mod	mod	low	nt	ms	nh/0758_nh.bmp
265.68	0.72	360	3	5	4	mem	lib	mod	mod	mod	tg	ht	wh/0803.bmp
266.40	0.72	361	3	5	36	per	con	mod	mod	mod	nt	cr	nh/0973_nh.bmp
267.12	0.72	362	3	5	72	per	lib	low	mod	low	tg	ht	wh/0613.bmp
267.84	0.72	363	1	6	11	mem	lib	low	low	low	tg	ms	wh/0292.bmp
268.56	0.72	364	3	7	19	per	lib	mod	mod	mod	nt	n/a	nh/0328_nh.bmp
269.28	0.72	365	2	7	12	per	con	mod	mod	mod	tg	ms	wh/0497.bmp
270.00	0.72	366	4	7	125	per	lib	low	mod	low	tg	ht	wh/0123.bmp
270.72	0.72	367	1	8	45	per	lib	low	low	low	tg	ht	wh/0223.bmp
271.44	0.72	368	3	7	13	per	con	mod	mod	mod	nt	cr	nh/0697_nh.bmp
272.16	0.72	369	3	7	60	mem	lib	mod	mod	low	tg	ht	wh/0660.bmp
272.88	0.72	370	1	6	35	per	con	low	low	low	nt	cr	nh/0579_nh.bmp
273.60	0.72	371	3	8	122	per	con	low	mod	low	nt	cr	nh/0075_nh.bmp
274.32	0.72	372	4	5	111	per	lib	mod	mod	mod	tg	ht	wh/0946.bmp
275.04	0.72	373	2	8	93	mem	lib	mod	mod	mod	nt	n/a	nh/0680_nh.bmp
275.76	0.72	374	2	7	122	per	lib	low	mod	low	tg	ht	wh/1023.bmp
276.48	0.72	375	2	8	114	per	con	low	mod	low	tg	ms	wh/0465.bmp
277.20	0.72	376	4	8	19	mem	con	mod	mod	mod	nt	ms	nh/0094_nh.bmp
277.92	0.72	377	4	5	1	mem	lib	mod	mod	mod	tg	ht	wh/0928.bmp
278.64	0.72	378	5	5	1	mem	lib	mod	mod	mod	tg	ht	wh/0928.bmp
279.36	0.72	379	4	7	116	per	lib	low	mod	low	tg	ht	wh/0934.bmp
280.08	0.72	380	1	5	81	per	con	low	mod	low	tg	ms	wh/0508.bmp
280.80	0.72	381	3	8	124	per	con	low	mod	low	tg	ht	wh/0238.bmp
281.52	0.72	382	5	5	22	mem	con	mod	mod	low	tg	n/a	wh/0510.bmp
282.24	0.72	383	3	5	48	per	con	mod	mod	mod	nt	cr	nh/0462_nh.bmp
282.96	0.72	384	1	8	95	mem	lib	mod	mod	mod	tg	ms	wh/0196.bmp
283.68	0.72	385	3	8	22	mem	con	mod	mod	mod	tg	ms	wh/0941.bmp
284.40	0.72	386	1	8	100	per	lib	mod	low	mod	nt	n/a	nh/0426_nh.bmp
285.12	0.72	387	6	6	103	mem	lib	mod	mod	low	nt	ht	nh/0077_nh.bmp
285.84	0.72	388	4	8	117	per	con	low	mod	low	nt	cr	nh/0074_nh.bmp
286.56	0.72	389	2	6	87	mem	con	mod	mod	mod	nt	ms	nh/0182_nh.bmp
287.28	0.72	390	3	8	89	mem	lib	mod	mod	mod	nt	n/a	nh/0543_nh.bmp
288.00	0.72	391	4	6	82	mem	con	mod	mod	mod	nt	ht	nh/0650_nh.bmp
288.72	0.72	392	3	6	101	mem	lib	mod	mod	low	tg	ht	wh/0361.bmp
289.44	0.72	393	4	7	101	mem	con	mod	mod	low	nt	ms	nh/0758_nh.bmp
290.16	0.72	394	2	6	107	mem	lib	mod	mod	low	tg	ht	wh/0690.bmp
290.88	0.72	395	5	7	4	per	con	mod	mod	mod	nt	cr	nh/0954_nh.bmp
291.60	0.72	396	5	8	24	mem	con	mod	mod	mod	tg	ms	wh/0222.bmp
292.32	0.72	397	3	6	102	mem	lib	mod	mod	low	nt	ht	nh/0036_nh.bmp
293.04	0.72	398	4	8	89	mem	lib	mod	mod	mod	nt	n/a	nh/0543_nh.bmp
293.76	0.72	399	4	6	98	mem	lib	mod	mod	low	tg	ht	wh/0443.bmp
294.48	0.72	400	5	7	18	per	lib	mod	mod	mod	tg	ht	wh/0795.bmp
295.20	0.72	401	3	5	23	mem	con	mod	mod	low	nt	ht	nh/0382_nh.bmp
295.92	0.72	402	1	6	46	per	con	low	low	low	nt	cr	nh/0185_nh.bmp
296.64	0.72	403	3	5	75	per	lib	low	mod	low	nt	n/a	nh/0079_nh.bmp
297.36	0.72	404	1	6	61	mem	con	low	low	mod	nt	n/a	nh/0860_nh.bmp
298.08	0.72	405	1	8	63	per	con	mod	low	mod	tg	ht	wh/0846.bmp
298.80	0.72	406	2	5	76	per	lib	low	mod	low	nt	n/a	nh/0451_nh.bmp
299.52	0.72	407	2	6	97	mem	lib	mod	mod	low	nt	n/a	nh/0818_nh.bmp
300.24	0.72	408	3	5	99	per	lib	mod	mod	mod	nt	cr	nh/0339_nh.bmp
300.96	0.72	409	3	8	128	per	con	low	mod	low	tg	ms	wh/0125.bmp
301.68	0.72	410	2	8	90	mem	lib	mod	mod	mod	tg	ht	wh/0099.bmp
302.40	0.72	411	5	7	116	per	lib	low	mod	low	tg	ht	wh/0934.bmp
303.12	0.72	412	2	6	105	mem	lib	mod	mod	low	nt	ht	nh/0232_nh.bmp
303.84	0.72	413	3	7	53	mem	lib	mod	mod	low	tg	n/a	wh/0194.bmp
304.56	0.72	414	3	5	41	per	con	mod	mod	mod	tg	ht	wh/0548.bmp
305.28	0.72	415	4	7	53	mem	lib	mod	mod	low	tg	n/a	wh/0194.bmp
306.00	0.72	416	1	7	83	mem	con	low	low	mod	tg	ms	wh/0278.bmp
306.72	0.72	417	1	6	33	per	con	low	low	low	tg	ms	wh/0864.bmp
307.44	0.72	418	5	5	13	mem	lib	mod	mod	mod	nt	ht	nh/0716_nh.bmp
308.16	0.72	419	5	8	89	mem	lib	mod	mod	mod	nt	n/a	nh/0543_nh.bmp
308.88	0.72	420	4	5	104	per	lib	mod	mod	mod	nt	cr	nh/0558_nh.bmp
309.60	0.72	421	5	7	56	mem	lib	mod	mod	low	tg	n/a	wh/0963.bmp
310.32	0.72	422	1	7	36	mem	lib	low	low	mod	tg	ht	wh/0572.bmp
311.04	0.72	423	4	8	128	per	con	low	mod	low	tg	ms	wh/0125.bmp
311.76	0.72	424	3	5	78	per	lib	low	mod	low	nt	cr	nh/0336_nh.bmp
312.48	0.72	425	1	8	76	mem	con	low	low	low	tg	ht	wh/0804.bmp
313.20	0.72	426	3	6	87	mem	con	mod	mod	mod	nt	ms	nh/0182_nh.bmp
313.92	0.72	427	2	7	102	mem	con	mod	mod	low	tg	ms	wh/0404.bmp
314.64	0.72	428	3	6	107	mem	lib	mod	mod	low	tg	ht	wh/0690.bmp
315.36	0.72	429	1	6	95	mem	con	mod	mod	mod	tg	ms	wh/0428.bmp
316.08	0.72	430	3	7	121	per	lib	low	mod	low	nt	cr	nh/0608_nh.bmp
316.80	0.72	431	1	6	41	per	con	low	low	low	nt	cr	nh/0815_nh.bmp
317.52	0.72	432	3	5	30	mem	con	mod	mod	low	tg	ms	wh/0134.bmp
318.24	0.72	433	4	7	110	mem	con	mod	mod	low	tg	ms	wh/0355.bmp
318.96	0.72	434	4	5	23	mem	con	mod	mod	low	nt	ht	nh/0382_nh.bmp
319.68	0.72	435	3	5	16	mem	lib	mod	mod	mod	nt	ht	nh/0772_nh.bmp
320.40	0.72	436	1	6	106	mem	lib	mod	mod	low	tg	ms	wh/0760.bmp
321.12	0.72	437	3	7	14	per	con	mod	mod	mod	nt	cr	nh/0095_nh.bmp
321.84	0.72	438	1	5	26	mem	con	mod	mod	low	tg	ms	wh/0345.bmp
322.56	0.72	439	3	6	97	mem	lib	mod	mod	low	nt	n/a	nh/0818_nh.bmp
323.28	0.72	440	6	8	24	mem	con	mod	mod	mod	tg	ms	wh/0222.bmp
324.00	0.72	441	2	8	126	per	con	low	mod	low	nt	cr	nh/0967_nh.bmp
324.72	0.72	442	4	5	36	per	con	mod	mod	mod	nt	cr	nh/0973_nh.bmp
325.44	0.72	443	1	5	100	per	lib	mod	mod	mod	tg	ht	wh/0962.bmp
326.16	0.72	444	4	5	107	per	lib	mod	mod	mod	tg	ht	wh/0957.bmp
326.88	0.72	445	4	7	13	per	con	mod	mod	mod	nt	cr	nh/0697_nh.bmp
327.60	0.72	446	1	8	5	mem	lib	low	low	low	nt	ht	nh/0434_nh.bmp
328.32	0.72	447	4	8	124	per	con	low	mod	low	tg	ht	wh/0238.bmp
329.04	0.72	448	3	5	2	mem	lib	mod	mod	mod	tg	ht	wh/0371.bmp
329.76	0.72	449	3	5	32	mem	con	mod	mod	low	tg	ms	wh/0338.bmp
330.48	0.72	450	3	7	122	per	lib	low	mod	low	tg	ht	wh/1023.bmp
331.20	0.72	451	2	5	100	per	lib	mod	mod	mod	tg	ht	wh/0962.bmp
331.92	0.72	452	5	8	124	per	con	low	mod	low	tg	ht	wh/0238.bmp
332.64	0.72	453	2	7	9	per	con	mod	mod	mod	tg	ms	wh/0396.bmp
333.36	0.72	454	1	8	50	per	con	mod	low	mod	nt	cr	nh/0774_nh.bmp
334.08	0.72	455	3	5	91	per	con	low	mod	low	nt	cr	nh/0619_nh.bmp
334.80	0.72	456	5	7	52	mem	lib	mod	mod	low	nt	n/a	nh/0080_nh.bmp
335.52	0.72	457	3	7	21	per	lib	mod	mod	mod	nt	cr	nh/0591_nh.bmp
336.24	0.72	458	3	7	9	per	con	mod	mod	mod	tg	ms	wh/0396.bmp
336.96	0.72	459	5	8	19	mem	con	mod	mod	mod	nt	ms	nh/0094_nh.bmp
337.68	0.72	460	4	5	99	per	lib	mod	mod	mod	nt	cr	nh/0339_nh.bmp
338.40	0.72	461	3	7	109	mem	con	mod	mod	low	tg	n/a	wh/0730.bmp
339.12	0.72	462	5	7	8	per	con	mod	mod	mod	tg	ms	wh/0843.bmp
339.84	0.72	463	3	8	114	per	con	low	mod	low	tg	ms	wh/0465.bmp
340.56	0.72	464	3	7	59	mem	lib	mod	mod	low	nt	ht	nh/0646_nh.bmp
341.28	0.72	465	4	6	97	mem	lib	mod	mod	low	nt	n/a	nh/0818_nh.bmp
342.00	0.72	466	4	7	121	per	lib	low	mod	low	nt	cr	nh/0608_nh.bmp
342.72	0.72	467	3	7	1	per	con	mod	mod	mod	nt	cr	nh/0876_nh.bmp
343.44	0.72	468	3	7	112	mem	con	mod	mod	low	nt	ht	nh/0364_nh.bmp
344.16	0.72	469	5	8	128	per	con	low	mod	low	tg	ms	wh/0125.bmp
344.88	0.72	470	4	8	18	mem	con	mod	mod	mod	tg	ms	wh/0874.bmp
345.60	0.72	471	4	5	78	per	lib	low	mod	low	nt	cr	nh/0336_nh.bmp
346.32	0.72	472	4	5	44	per	con	mod	mod	mod	tg	ms	wh/0784.bmp
347.04	0.72	473	4	5	2	mem	lib	mod	mod	mod	tg	ht	wh/0371.bmp
347.76	0.72	474	6	7	18	per	lib	mod	mod	mod	tg	ht	wh/0795.bmp
348.48	0.72	475	5	7	101	mem	con	mod	mod	low	nt	ms	nh/0758_nh.bmp
349.20	0.72	476	1	7	85	mem	con	low	low	mod	tg	ms	wh/0301.bmp
349.92	0.72	477	2	5	74	per	lib	low	mod	low	nt	fa	nh/0150_nh.bmp
350.64	0.72	478	3	7	28	per	lib	mod	mod	mod	tg	ht	wh/0442.bmp
351.36	0.72	479	3	6	105	mem	lib	mod	mod	low	nt	ht	nh/0232_nh.bmp
352.08	0.72	480	4	5	21	mem	con	mod	mod	low	nt	n/a	nh/0299_nh.bmp
352.80	0.72	481	1	6	121	per	lib	mod	low	mod	nt	fa	nh/0762_nh.bmp
353.52	0.72	482	3	5	66	per	lib	low	mod	low	tg	ht	wh/0153.bmp
354.24	0.72	483	4	7	109	mem	con	mod	mod	low	tg	n/a	wh/0730.bmp
354.96	0.72	484	3	5	31	mem	con	mod	mod	low	nt	ms	nh/0284_nh.bmp
355.68	0.72	485	4	6	107	mem	lib	mod	mod	low	tg	ht	wh/0690.bmp
356.40	0.72	486	1	6	25	per	con	mod	low	mod	tg	ht	wh/0782.bmp
357.12	0.72	487	4	7	112	mem	con	mod	mod	low	nt	ht	nh/0364_nh.bmp
357.84	0.72	488	2	5	34	per	con	mod	mod	mod	nt	cr	nh/0397_nh.bmp
358.56	0.72	489	3	8	126	per	con	low	mod	low	nt	cr	nh/0967_nh.bmp
359.28	0.72	490	6	7	56	mem	lib	mod	mod	low	tg	n/a	wh/0963.bmp
360.00	0.72	491	2	5	26	mem	con	mod	mod	low	tg	ms	wh/0345.bmp
360.72	0.72	492	2	6	106	mem	lib	mod	mod	low	tg	ms	wh/0760.bmp
361.44	0.72	493	4	7	105	mem	con	mod	mod	low	nt	ms	nh/0351_nh.bmp
362.16	0.72	494	3	5	34	per	con	mod	mod	mod	nt	cr	nh/0397_nh.bmp
362.88	0.72	495	5	7	23	per	lib	mod	mod	mod	nt	cr	nh/0902_nh.bmp
363.60	0.72	496	2	5	81	per	con	low	mod	low	tg	ms	wh/0508.bmp
364.32	0.72	497	2	5	35	per	con	mod	mod	mod	tg	ms	wh/0447.bmp
365.04	0.72	498	5	7	121	per	lib	low	mod	low	nt	cr	nh/0608_nh.bmp
365.76	0.72	499	2	8	82	mem	lib	mod	mod	mod	tg	ht	wh/0446.bmp
366.48	0.72	500	3	5	109	per	lib	mod	mod	mod	nt	fa	nh/0350_nh.bmp
367.20	0.72	501	3	5	87	per	con	low	mod	low	tg	ht	wh/0577.bmp
367.92	0.72	502	3	7	102	mem	con	mod	mod	low	tg	ms	wh/0404.bmp
368.64	0.72	503	6	7	26	per	lib	mod	mod	mod	nt	fa	nh/0398_nh.bmp
369.36	0.72	504	3	8	82	mem	lib	mod	mod	mod	tg	ht	wh/0446.bmp
370.08	0.72	505	5	5	23	mem	con	mod	mod	low	nt	ht	nh/0382_nh.bmp
370.80	0.72	506	4	7	19	per	lib	mod	mod	mod	nt	n/a	nh/0328_nh.bmp
371.52	0.72	507	4	7	60	mem	lib	mod	mod	low	tg	ht	wh/0660.bmp
372.24	0.72	508	4	6	105	mem	lib	mod	mod	low	nt	ht	nh/0232_nh.bmp
372.96	0.72	509	3	6	106	mem	lib	mod	mod	low	tg	ms	wh/0760.bmp
373.68	0.72	510	5	5	36	per	con	mod	mod	mod	nt	cr	nh/0973_nh.bmp
374.40	0.72	511	4	5	4	mem	lib	mod	mod	mod	tg	ht	wh/0803.bmp
375.12	0.72	512	5	7	13	per	con	mod	mod	mod	nt	cr	nh/0697_nh.bmp
375.84	0.72	513	1	8	37	per	lib	low	low	low	tg	ms	wh/0536.bmp
376.56	0.72	514	4	5	72	per	lib	low	mod	low	tg	ht	wh/0613.bmp
377.28	0.72	515	5	5	85	per	con	low	mod	low	nt	cr	nh/0489_nh.bmp
378.00	0.72	516	1	7	35	mem	lib	low	low	mod	nt	ht	nh/0699_nh.bmp
378.72	0.72	517	4	6	90	mem	con	mod	mod	mod	nt	ms	nh/0904_nh.bmp
379.44	0.72	518	4	5	41	per	con	mod	mod	mod	tg	ht	wh/0548.bmp
380.16	0.72	519	4	7	17	per	lib	mod	mod	mod	tg	ms	wh/0380.bmp
380.88	0.72	520	5	7	105	mem	con	mod	mod	low	nt	ms	nh/0351_nh.bmp
381.60	0.72	521	3	5	71	per	lib	low	mod	low	tg	ht	wh/0417.bmp
382.32	0.72	522	6	5	23	mem	con	mod	mod	low	nt	ht	nh/0382_nh.bmp
383.04	0.72	523	4	7	122	per	lib	low	mod	low	tg	ht	wh/1023.bmp
383.76	0.72	524	4	7	107	mem	con	mod	mod	low	tg	ms	wh/0744.bmp
384.48	0.72	525	4	5	105	per	lib	mod	mod	mod	tg	ht	wh/0748.bmp
385.20	0.72	526	5	7	19	per	lib	mod	mod	mod	nt	n/a	nh/0328_nh.bmp
385.92	0.72	527	1	6	36	per	con	low	low	low	nt	cr	nh/0789_nh.bmp
386.64	0.72	528	4	7	127	per	lib	low	mod	low	tg	ht	wh/0493.bmp
387.36	0.72	529	4	5	75	per	lib	low	mod	low	nt	n/a	nh/0079_nh.bmp
388.08	0.72	530	5	5	21	mem	con	mod	mod	low	nt	n/a	nh/0299_nh.bmp
388.80	0.72	531	3	5	96	per	con	low	mod	low	nt	cr	nh/0029_nh.bmp
389.52	0.72	532	1	6	118	per	lib	mod	low	mod	tg	ht	wh/0216.bmp
390.24	0.72	533	1	5	115	mem	con	low	low	low	tg	ms	wh/0261.bmp
390.96	0.72	534	4	7	2	per	con	mod	mod	mod	tg	ms	wh/0588.bmp
391.68	0.72	535	4	5	5	mem	lib	mod	mod	mod	nt	ht	nh/0540_nh.bmp
392.40	0.72	536	3	7	57	mem	lib	mod	mod	low	tg	ht	wh/0035.bmp
393.12	0.72	537	5	7	53	mem	lib	mod	mod	low	tg	n/a	wh/0194.bmp
393.84	0.72	538	4	5	7	mem	lib	mod	mod	mod	nt	ht	nh/0807_nh.bmp
394.56	0.72	539	4	7	1	per	con	mod	mod	mod	nt	cr	nh/0876_nh.bmp
395.28	0.72	540	4	6	84	mem	con	mod	mod	mod	tg	ms	wh/0805.bmp
396.00	0.72	541	4	8	82	mem	lib	mod	mod	mod	tg	ht	wh/0446.bmp
396.72	0.72	542	1	6	53	mem	con	low	low	mod	nt	ms	nh/0530_nh.bmp
397.44	0.72	543	4	5	91	per	con	low	mod	low	nt	cr	nh/0619_nh.bmp
398.16	0.72	544	2	8	88	mem	lib	mod	mod	mod	nt	ms	nh/0542_nh.bmp
398.88	0.72	545	4	5	96	per	con	low	mod	low	nt	cr	nh/0029_nh.bmp
399.60	0.72	546	5	5	72	per	lib	low	mod	low	tg	ht	wh/0613.bmp
400.32	0.72	547	4	5	110	per	lib	mod	mod	mod	nt	cr	nh/0593_nh.bmp
401.04	0.72	548	2	5	46	per	con	mod	mod	mod	nt	cr	nh/0947_nh.bmp
401.76	0.72	549	2	8	95	mem	lib	mod	mod	mod	tg	ms	wh/0196.bmp
402.48	0.72	550	3	7	120	per	lib	low	mod	low	nt	fa	nh/0082_nh.bmp
403.20	0.72	551	4	7	103	mem	con	mod	mod	low	nt	ms	nh/0256_nh.bmp
403.92	0.72	552	1	8	99	per	lib	mod	low	mod	tg	ht	wh/0729.bmp
404.64	0.72	553	1	5	61	mem	lib	low	low	mod	tg	ms	wh/0949.bmp
405.36	0.72	554	5	5	2	mem	lib	mod	mod	mod	tg	ht	wh/0371.bmp
406.08	0.72	555	6	6	93	mem	con	mod	mod	mod	tg	ht	wh/0209.bmp
406.80	0.72	556	4	5	92	per	con	low	mod	low	tg	ms	wh/0568.bmp
407.52	0.72	557	3	5	35	per	con	mod	mod	mod	tg	ms	wh/0447.bmp
408.24	0.72	558	5	5	92	per	con	low	mod	low	tg	ms	wh/0568.bmp
408.96	0.72	559	5	7	122	per	lib	low	mod	low	tg	ht	wh/1023.bmp
409.68	0.72	560	1	8	47	per	lib	low	low	low	nt	fa	nh/0158_nh.bmp
410.40	0.72	561	5	5	5	mem	lib	mod	mod	mod	nt	ht	nh/0540_nh.bmp
411.12	0.72	562	5	7	125	per	lib	low	mod	low	tg	ht	wh/0123.bmp
411.84	0.72	563	5	8	82	mem	lib	mod	mod	mod	tg	ht	wh/0446.bmp
412.56	0.72	564	4	6	106	mem	lib	mod	mod	low	tg	ms	wh/0760.bmp
413.28	0.72	565	5	5	99	per	lib	mod	mod	mod	nt	cr	nh/0339_nh.bmp
414.00	0.72	566	4	5	109	per	lib	mod	mod	mod	nt	fa	nh/0350_nh.bmp
414.72	0.72	567	4	5	32	mem	con	mod	mod	low	tg	ms	wh/0338.bmp
415.44	0.72	568	4	8	22	mem	con	mod	mod	mod	tg	ms	wh/0941.bmp
416.16	0.72	569	5	8	125	per	con	low	mod	low	tg	ms	wh/0383.bmp
416.88	0.72	570	6	7	122	per	lib	low	mod	low	tg	ht	wh/1023.bmp
417.60	0.72	571	5	6	84	mem	con	mod	mod	mod	tg	ms	wh/0805.bmp
418.32	0.72	572	6	7	8	per	con	mod	mod	mod	tg	ms	wh/0843.bmp
419.04	0.72	573	1	7	44	mem	lib	low	low	mod	tg	ht	wh/0092.bmp
419.76	0.72	574	5	5	4	mem	lib	mod	mod	mod	tg	ht	wh/0803.bmp
420.48	0.72	575	4	7	28	per	lib	mod	mod	mod	tg	ht	wh/0442.bmp
421.20	0.72	576	4	5	34	per	con	mod	mod	mod	nt	cr	nh/0397_nh.bmp
421.92	0.72	577	3	7	118	per	lib	low	mod	low	nt	fa	nh/0964_nh.bmp
422.64	0.72	578	4	7	118	per	lib	low	mod	low	nt	fa	nh/0964_nh.bmp
423.36	0.72	579	1	6	113	per	lib	mod	low	mod	tg	ht	wh/0068.bmp
424.08	0.72	580	3	5	26	mem	con	mod	mod	low	tg	ms	wh/0345.bmp
424.80	0.72	581	3	5	81	per	con	low	mod	low	tg	ms	wh/0508.bmp
425.52	0.72	582	5	8	22	mem	con	mod	mod	mod	tg	ms	wh/0941.bmp
426.24	0.72	583	4	6	102	mem	lib	mod	mod	low	nt	ht	nh/0036_nh.bmp
426.96	0.72	584	5	7	17	per	lib	mod	mod	mod	tg	ms	wh/0380.bmp
427.68	0.72	585	4	8	83	mem	lib	mod	mod	mod	tg	ht	wh/0714.bmp
428.40	0.72	586	3	5	100	per	lib	mod	mod	mod	tg	ht	wh/0962.bmp
429.12	0.72	587	5	7	112	mem	con	mod	mod	low	nt	ht	nh/0364_nh.bmp
429.84	0.72	588	4	5	66	per	lib	low	mod	low	tg	ht	wh/0153.bmp
430.56	0.72	589	6	7	4	per	con	mod	mod	mod	nt	cr	nh/0954_nh.bmp
431.28	0.72	590	4	6	101	mem	lib	mod	mod	low	tg	ht	wh/0361.bmp
432.00	0.72	591	5	5	96	per	con	low	mod	low	nt	cr	nh/0029_nh.bmp
432.72	0.72	592	4	7	63	mem	lib	mod	mod	low	nt	n/a	nh/0032_nh.bmp
433.44	0.72	593	5	5	109	per	lib	mod	mod	mod	nt	fa	nh/0350_nh.bmp
434.16	0.72	594	4	5	48	per	con	mod	mod	mod	nt	cr	nh/0462_nh.bmp
434.88	0.72	595	3	5	86	per	con	low	mod	low	tg	ms	wh/0503.bmp
435.60	0.72	596	3	5	74	per	lib	low	mod	low	nt	fa	nh/0150_nh.bmp
436.32	0.72	597	3	8	93	mem	lib	mod	mod	mod	nt	n/a	nh/0680_nh.bmp
437.04	0.72	598	4	5	31	mem	con	mod	mod	low	nt	ms	nh/0284_nh.bmp
437.76	0.72	599	6	5	85	per	con	low	mod	low	nt	cr	nh/0489_nh.bmp
438.48	0.72	600	2	6	95	mem	con	mod	mod	mod	tg	ms	wh/0428.bmp
439.20	0.72	601	4	5	30	mem	con	mod	mod	low	tg	ms	wh/0134.bmp
439.92	0.72	602	5	6	82	mem	con	mod	mod	mod	nt	ht	nh/0650_nh.bmp
440.64	0.72	603	4	5	87	per	con	low	mod	low	tg	ht	wh/0577.bmp
441.36	0.72	604	6	8	22	mem	con	mod	mod	mod	tg	ms	wh/0941.bmp
442.08	0.72	605	5	5	30	mem	con	mod	mod	low	tg	ms	wh/0134.bmp
442.80	0.72	606	6	5	13	mem	lib	mod	mod	mod	nt	ht	nh/0716_nh.bmp
443.52	0.72	607	4	5	38	per	con	mod	mod	mod	tg	ms	wh/0563.bmp
444.24	0.72	608	5	6	85	mem	con	mod	mod	mod	tg	ms	wh/0273.bmp
444.96	0.72	609	5	7	2	per	con	mod	mod	mod	tg	ms	wh/0588.bmp
445.68	0.72	610	5	5	38	per	con	mod	mod	mod	tg	ms	wh/0563.bmp
446.40	0.72	611	5	6	98	mem	lib	mod	mod	low	tg	ht	wh/0443.bmp
447.12	0.72	612	5	5	104	per	lib	mod	mod	mod	nt	cr	nh/0558_nh.bmp
447.84	0.72	613	4	8	126	per	con	low	mod	low	nt	cr	nh/0967_nh.bmp
448.56	0.72	614	4	7	14	per	con	mod	mod	mod	nt	cr	nh/0095_nh.bmp
449.28	0.72	615	4	8	93	mem	lib	mod	mod	mod	nt	n/a	nh/0680_nh.bmp
450.00	0.72	616	1	6	76	per	lib	low	low	low	tg	ht	wh/0488.bmp
450.72	0.72	617	3	8	25	mem	con	mod	mod	mod	nt	ms	nh/0187_nh.bmp
451.44	0.72	618	4	5	86	per	con	low	mod	low	tg	ms	wh/0503.bmp
452.16	0.72	619	6	5	21	mem	con	mod	mod	low	nt	n/a	nh/0299_nh.bmp
452.88	0.72	620	4	8	122	per	con	low	mod	low	nt	cr	nh/0075_nh.bmp
453.60	0.72	621	3	5	46	per	con	mod	mod	mod	nt	cr	nh/0947_nh.bmp
454.32	0.72	622	3	8	90	mem	lib	mod	mod	mod	tg	ht	wh/0099.bmp
455.04	0.72	623	5	5	86	per	con	low	mod	low	tg	ms	wh/0503.bmp
455.76	0.72	624	3	5	8	mem	lib	mod	mod	mod	tg	ht	wh/0909.bmp
456.48	0.72	625	3	7	115	per	lib	low	mod	low	nt	fa	nh/0635_nh.bmp
457.20	0.72	626	1	5	49	mem	lib	low	low	mod	nt	ht	nh/0736_nh.bmp
457.92	0.72	627	5	8	126	per	con	low	mod	low	nt	cr	nh/0967_nh.bmp
458.64	0.72	628	6	6	82	mem	con	mod	mod	mod	nt	ht	nh/0650_nh.bmp
459.36	0.72	629	4	7	115	per	lib	low	mod	low	nt	fa	nh/0635_nh.bmp
460.08	0.72	630	5	5	91	per	con	low	mod	low	nt	cr	nh/0619_nh.bmp
460.80	0.72	631	4	5	74	per	lib	low	mod	low	nt	fa	nh/0150_nh.bmp
461.52	0.72	632	5	5	78	per	lib	low	mod	low	nt	cr	nh/0336_nh.bmp
462.24	0.72	633	6	5	4	mem	lib	mod	mod	mod	tg	ht	wh/0803.bmp
462.96	0.72	634	5	7	110	mem	con	mod	mod	low	tg	ms	wh/0355.bmp
463.68	0.72	635	6	5	78	per	lib	low	mod	low	nt	cr	nh/0336_nh.bmp
464.40	0.72	636	5	7	118	per	lib	low	mod	low	nt	fa	nh/0964_nh.bmp
465.12	0.72	637	5	7	109	mem	con	mod	mod	low	tg	n/a	wh/0730.bmp
465.84	0.72	638	4	8	114	per	con	low	mod	low	tg	ms	wh/0465.bmp
466.56	0.72	639	5	5	44	per	con	mod	mod	mod	tg	ms	wh/0784.bmp
467.28	0.72	640	1	8	123	per	con	low	mod	low	nt	cr	nh/0190_nh.bmp
468.00	0.72	641	5	7	63	mem	lib	mod	mod	low	nt	n/a	nh/0032_nh.bmp
468.72	0.72	642	3	5	76	per	lib	low	mod	low	nt	n/a	nh/0451_nh.bmp
469.44	0.72	643	3	8	95	mem	lib	mod	mod	mod	tg	ms	wh/0196.bmp
470.16	0.72	644	3	7	49	mem	lib	mod	mod	low	nt	ht	nh/0940_nh.bmp
470.88	0.72	645	5	5	7	mem	lib	mod	mod	mod	nt	ht	nh/0807_nh.bmp
471.60	0.72	646	4	7	57	mem	lib	mod	mod	low	tg	ht	wh/0035.bmp
472.32	0.72	647	4	5	8	mem	lib	mod	mod	mod	tg	ht	wh/0909.bmp
473.04	0.72	648	5	5	74	per	lib	low	mod	low	nt	fa	nh/0150_nh.bmp
473.76	0.72	649	6	5	36	per	con	mod	mod	mod	nt	cr	nh/0973_nh.bmp
474.48	0.72	650	6	7	101	mem	con	mod	mod	low	nt	ms	nh/0758_nh.bmp
475.20	0.72	651	5	5	110	per	lib	mod	mod	mod	nt	cr	nh/0593_nh.bmp
475.92	0.72	652	1	7	77	per	con	low	low	low	nt	cr	nh/0113_nh.bmp
476.64	0.72	653	1	7	42	mem	lib	low	low	mod	nt	ht	nh/0025_nh.bmp
477.36	0.72	654	1	5	122	mem	con	low	low	low	nt	ms	nh/0845_nh.bmp
478.08	0.72	655	6	5	5	mem	lib	mod	mod	mod	nt	ht	nh/0540_nh.bmp
478.80	0.72	656	5	5	32	mem	con	mod	mod	low	tg	ms	wh/0338.bmp
479.52	0.72	657	6	5	96	per	con	low	mod	low	nt	cr	nh/0029_nh.bmp
480.24	0.72	658	6	6	98	mem	lib	mod	mod	low	tg	ht	wh/0443.bmp
480.96	0.72	659	6	8	19	mem	con	mod	mod	mod	nt	ms	nh/0094_nh.bmp
481.68	0.72	660	4	5	46	per	con	mod	mod	mod	nt	cr	nh/0947_nh.bmp
482.40	0.72	661	2	8	123	per	con	low	mod	low	nt	cr	nh/0190_nh.bmp
483.12	0.72	662	4	7	49	mem	lib	mod	mod	low	nt	ht	nh/0940_nh.bmp
483.84	0.72	663	5	5	87	per	con	low	mod	low	tg	ht	wh/0577.bmp
484.56	0.72	664	1	8	58	per	con	mod	low	mod	tg	ms	wh/0652.bmp
485.28	0.72	665	4	5	26	mem	con	mod	mod	low	tg	ms	wh/0345.bmp
486.00	0.72	666	4	8	85	mem	lib	mod	mod	mod	nt	ht	nh/0594_nh.bmp
486.72	0.72	667	3	8	88	mem	lib	mod	mod	mod	nt	ms	nh/0542_nh.bmp
487.44	0.72	668	1	6	77	per	lib	low	low	low	tg	ht	wh/0148.bmp
488.16	0.72	669	6	6	85	mem	con	mod	mod	mod	tg	ms	wh/0273.bmp
488.88	0.72	670	4	5	76	per	lib	low	mod	low	nt	n/a	nh/0451_nh.bmp
489.60	0.72	671	5	7	14	per	con	mod	mod	mod	nt	cr	nh/0095_nh.bmp
490.32	0.72	672	3	6	95	mem	con	mod	mod	mod	tg	ms	wh/0428.bmp
491.04	0.72	673	5	8	93	mem	lib	mod	mod	mod	nt	n/a	nh/0680_nh.bmp
491.76	0.72	674	5	7	115	per	lib	low	mod	low	nt	fa	nh/0635_nh.bmp
492.48	0.72	675	1	8	62	per	con	mod	low	mod	nt	cr	nh/0281_nh.bmp
493.20	0.72	676	6	7	109	mem	con	mod	mod	low	tg	n/a	wh/0730.bmp
493.92	0.72	677	6	5	7	mem	lib	mod	mod	mod	nt	ht	nh/0807_nh.bmp
494.64	0.72	678	5	6	105	mem	lib	mod	mod	low	nt	ht	nh/0232_nh.bmp
495.36	0.72	679	1	6	2	mem	lib	low	low	low	nt	ht	nh/0053_nh.bmp
496.08	0.72	680	5	6	102	mem	lib	mod	mod	low	nt	ht	nh/0036_nh.bmp
496.80	0.72	681	5	8	117	per	con	low	mod	low	nt	cr	nh/0074_nh.bmp
497.52	0.72	682	5	5	105	per	lib	mod	mod	mod	tg	ht	wh/0748.bmp
498.24	0.72	683	5	5	48	per	con	mod	mod	mod	nt	cr	nh/0462_nh.bmp
498.96	0.72	684	6	5	74	per	lib	low	mod	low	nt	fa	nh/0150_nh.bmp
499.68	0.72	685	6	8	89	mem	lib	mod	mod	mod	nt	n/a	nh/0543_nh.bmp
500.40	0.72	686	4	7	102	mem	con	mod	mod	low	tg	ms	wh/0404.bmp
501.12	0.72	687	3	8	123	per	con	low	mod	low	nt	cr	nh/0190_nh.bmp
501.84	0.72	688	6	7	52	mem	lib	mod	mod	low	nt	n/a	nh/0080_nh.bmp
502.56	0.72	689	3	7	12	per	con	mod	mod	mod	tg	ms	wh/0497.bmp
503.28	0.72	690	1	8	9	mem	lib	low	low	low	nt	ht	nh/0460_nh.bmp
504.00	0.72	691	5	5	41	per	con	mod	mod	mod	tg	ht	wh/0548.bmp
504.72	0.72	692	4	5	82	per	con	low	mod	low	nt	cr	nh/0893_nh.bmp
505.44	0.72	693	6	5	44	per	con	mod	mod	mod	tg	ms	wh/0784.bmp
506.16	0.72	694	5	7	103	mem	con	mod	mod	low	nt	ms	nh/0256_nh.bmp
506.88	0.72	695	4	5	71	per	lib	low	mod	low	tg	ht	wh/0417.bmp
507.60	0.72	696	5	6	106	mem	lib	mod	mod	low	tg	ms	wh/0760.bmp
508.32	0.72	697	5	7	60	mem	lib	mod	mod	low	tg	ht	wh/0660.bmp
509.04	0.72	698	6	7	116	per	lib	low	mod	low	tg	ht	wh/0934.bmp
509.76	0.72	699	5	5	71	per	lib	low	mod	low	tg	ht	wh/0417.bmp
510.48	0.72	700	6	7	121	per	lib	low	mod	low	nt	cr	nh/0608_nh.bmp
511.20	0.72	701	5	5	26	mem	con	mod	mod	low	tg	ms	wh/0345.bmp
511.92	0.72	702	5	7	1	per	con	mod	mod	mod	nt	cr	nh/0876_nh.bmp
512.64	0.72	703	4	8	25	mem	con	mod	mod	mod	nt	ms	nh/0187_nh.bmp
513.36	0.72	704	1	6	60	mem	con	low	low	mod	tg	ms	wh/0966.bmp
514.08	0.72	705	5	8	18	mem	con	mod	mod	mod	tg	ms	wh/0874.bmp
514.80	0.72	706	6	6	106	mem	lib	mod	mod	low	tg	ms	wh/0760.bmp
515.52	0.72	707	6	5	99	per	lib	mod	mod	mod	nt	cr	nh/0339_nh.bmp
516.24	0.72	708	1	5	117	mem	con	low	low	low	nt	ms	nh/0513_nh.bmp
516.96	0.72	709	6	8	117	per	con	low	mod	low	nt	cr	nh/0074_nh.bmp
517.68	0.72	710	1	5	127	mem	con	low	low	low	nt	ms	nh/0458_nh.bmp
518.40	0.72	711	5	6	90	mem	con	mod	mod	mod	nt	ms	nh/0904_nh.bmp
519.12	0.72	712	5	7	107	mem	con	mod	mod	low	tg	ms	wh/0744.bmp
519.84	0.72	713	4	5	81	per	con	low	mod	low	tg	ms	wh/0508.bmp
520.56	0.72	714	6	7	110	mem	con	mod	mod	low	tg	ms	wh/0355.bmp
521.28	0.72	715	4	8	88	mem	lib	mod	mod	mod	nt	ms	nh/0542_nh.bmp
522.00	0.72	716	1	7	90	mem	con	low	low	mod	nt	ms	nh/0890_nh.bmp
522.72	0.72	717	4	6	95	mem	con	mod	mod	mod	tg	ms	wh/0428.bmp
523.44	0.72	718	5	8	88	mem	lib	mod	mod	mod	nt	ms	nh/0542_nh.bmp
524.16	0.72	719	5	5	82	per	con	low	mod	low	nt	cr	nh/0893_nh.bmp
524.88	0.72	720	5	8	83	mem	lib	mod	mod	mod	tg	ht	wh/0714.bmp
525.60	0.72	721	4	7	9	per	con	mod	mod	mod	tg	ms	wh/0396.bmp
526.32	0.72	722	1	6	7	mem	lib	low	low	low	tg	ht	wh/0831.bmp
527.04	0.72	723	4	6	87	mem	con	mod	mod	mod	nt	ms	nh/0182_nh.bmp
527.76	0.72	724	5	7	9	per	con	mod	mod	mod	tg	ms	wh/0396.bmp
528.48	0.72	725	6	5	92	per	con	low	mod	low	tg	ms	wh/0568.bmp
529.20	0.72	726	5	7	49	mem	lib	mod	mod	low	nt	ht	nh/0940_nh.bmp
529.92	0.72	727	4	7	12	per	con	mod	mod	mod	tg	ms	wh/0497.bmp
530.64	0.72	728	5	5	77	per	lib	low	mod	low	tg	ht	wh/0802.bmp
531.36	0.72	729	4	5	100	per	lib	mod	mod	mod	tg	ht	wh/0962.bmp
532.08	0.72	730	5	6	95	mem	con	mod	mod	mod	tg	ms	wh/0428.bmp
532.80	0.72	731	1	7	75	per	con	low	low	low	tg	ht	wh/0452.bmp
533.52	0.72	732	5	5	34	per	con	mod	mod	mod	nt	cr	nh/0397_nh.bmp
534.24	0.72	733	6	7	63	mem	lib	mod	mod	low	nt	n/a	nh/0032_nh.bmp
534.96	0.72	734	1	6	120	per	lib	mod	low	mod	tg	ht	wh/0048.bmp
535.68	0.72	735	6	5	105	per	lib	mod	mod	mod	tg	ht	wh/0748.bmp
536.40	0.72	736	4	8	95	mem	lib	mod	mod	mod	tg	ms	wh/0196.bmp
537.12	0.72	737	1	6	31	per	con	mod	low	mod	tg	ht	wh/0340.bmp
537.84	0.72	738	6	6	95	mem	con	mod	mod	mod	tg	ms	wh/0428.bmp
538.56	0.72	739	1	7	86	mem	con	low	low	mod	nt	ms	nh/0718_nh.bmp
539.28	0.72	740	5	7	12	per	con	mod	mod	mod	tg	ms	wh/0497.bmp
540.00	0.72	741	3	6	83	mem	con	mod	mod	mod	nt	ms	nh/0810_nh.bmp
540.72	0.72	742	6	5	34	per	con	mod	mod	mod	nt	cr	nh/0397_nh.bmp
541.44	0.72	743	5	7	57	mem	lib	mod	mod	low	tg	ht	wh/0035.bmp
542.16	0.72	744	5	6	87	mem	con	mod	mod	mod	nt	ms	nh/0182_nh.bmp
542.88	0.72	745	6	6	84	mem	con	mod	mod	mod	tg	ms	wh/0805.bmp
543.60	0.72	746	6	8	93	mem	lib	mod	mod	mod	nt	n/a	nh/0680_nh.bmp
544.32	0.72	747	1	6	18	per	con	mod	low	mod	nt	n/a	nh/0669_nh.bmp
545.04	0.72	748	6	7	13	per	con	mod	mod	mod	nt	cr	nh/0697_nh.bmp
545.76	0.72	749	6	5	26	mem	con	mod	mod	low	tg	ms	wh/0345.bmp
546.48	0.72	750	1	6	10	mem	lib	low	low	low	nt	ht	nh/0197_nh.bmp
547.20	0.72	751	5	8	122	per	con	low	mod	low	nt	cr	nh/0075_nh.bmp
547.92	0.72	752	4	8	31	mem	con	mod	mod	mod	tg	ms	wh/0199.bmp
548.64	0.72	753	4	7	59	mem	lib	mod	mod	low	nt	ht	nh/0646_nh.bmp
549.36	0.72	754	6	7	2	per	con	mod	mod	mod	tg	ms	wh/0588.bmp
550.08	0.72	755	4	5	35	per	con	mod	mod	mod	tg	ms	wh/0447.bmp
550.80	0.72	756	4	5	16	mem	lib	mod	mod	mod	nt	ht	nh/0772_nh.bmp
551.52	0.72	757	5	7	28	per	lib	mod	mod	mod	tg	ht	wh/0442.bmp
552.24	0.72	758	1	7	82	mem	con	low	low	mod	nt	ms	nh/0129_nh.bmp
552.96	0.72	759	6	7	49	mem	lib	mod	mod	low	nt	ht	nh/0940_nh.bmp
553.68	0.72	760	3	8	32	mem	con	mod	mod	mod	nt	ms	nh/0855_nh.bmp
554.40	0.72	761	4	7	21	per	lib	mod	mod	mod	nt	cr	nh/0591_nh.bmp
555.12	0.72	762	5	8	31	mem	con	mod	mod	mod	tg	ms	wh/0199.bmp
555.84	0.72	763	5	8	114	per	con	low	mod	low	tg	ms	wh/0465.bmp
556.56	0.72	764	6	6	90	mem	con	mod	mod	mod	nt	ms	nh/0904_nh.bmp
557.28	0.72	765	5	7	21	per	lib	mod	mod	mod	nt	cr	nh/0591_nh.bmp
558.00	0.72	766	5	6	107	mem	lib	mod	mod	low	tg	ht	wh/0690.bmp
558.72	0.72	767	4	7	120	per	lib	low	mod	low	nt	fa	nh/0082_nh.bmp
559.44	0.72	768	5	5	8	mem	lib	mod	mod	mod	tg	ht	wh/0909.bmp
560.16	0.72	769	6	7	60	mem	lib	mod	mod	low	tg	ht	wh/0660.bmp
560.88	0.72	770	6	8	128	per	con	low	mod	low	tg	ms	wh/0125.bmp
561.60	0.72	771	6	7	125	per	lib	low	mod	low	tg	ht	wh/0123.bmp
562.32	0.72	772	6	7	103	mem	con	mod	mod	low	nt	ms	nh/0256_nh.bmp
563.04	0.72	773	6	5	32	mem	con	mod	mod	low	tg	ms	wh/0338.bmp
563.76	0.72	774	6	8	27	mem	con	mod	mod	mod	nt	ms	nh/0319_nh.bmp
564.48	0.72	775	1	7	46	mem	lib	low	low	mod	tg	n/a	wh/0267.bmp
565.20	0.72	776	1	8	105	per	lib	mod	low	mod	nt	cr	nh/0096_nh.bmp
565.92	0.72	777	6	5	30	mem	con	mod	mod	low	tg	ms	wh/0134.bmp
566.64	0.72	778	5	5	35	per	con	mod	mod	mod	tg	ms	wh/0447.bmp
567.36	0.72	779	5	5	81	per	con	low	mod	low	tg	ms	wh/0508.bmp
568.08	0.72	780	4	8	90	mem	lib	mod	mod	mod	tg	ht	wh/0099.bmp
568.80	0.72	781	6	8	125	per	con	low	mod	low	tg	ms	wh/0383.bmp
569.52	0.72	782	6	5	81	per	con	low	mod	low	tg	ms	wh/0508.bmp
570.24	0.72	783	6	6	87	mem	con	mod	mod	mod	nt	ms	nh/0182_nh.bmp
570.96	0.72	784	5	7	102	mem	con	mod	mod	low	tg	ms	wh/0404.bmp
571.68	0.72	785	6	7	28	per	lib	mod	mod	mod	tg	ht	wh/0442.bmp
572.40	0.72	786	6	7	19	per	lib	mod	mod	mod	nt	n/a	nh/0328_nh.bmp
573.12	0.72	787	6	5	35	per	con	mod	mod	mod	tg	ms	wh/0447.bmp
573.84	0.72	788	1	6	40	per	con	low	low	low	tg	ms	wh/0370.bmp
574.56	0.72	789	5	7	127	per	lib	low	mod	low	tg	ht	wh/0493.bmp
575.28	0.72	790	1	6	79	per	lib	low	low	low	nt	cr	nh/0999_nh.bmp
576.00	0.72	791	6	7	112	mem	con	mod	mod	low	nt	ht	nh/0364_nh.bmp
576.72	0.72	792	6	5	24	mem	con	mod	mod	low	nt	ms	nh/0329_nh.bmp
577.44	0.72	793	5	8	95	mem	lib	mod	mod	mod	tg	ms	wh/0196.bmp
578.16	0.72	794	1	7	94	mem	con	low	low	mod	nt	ms	nh/0525_nh.bmp
578.88	0.72	795	6	7	1	per	con	mod	mod	mod	nt	cr	nh/0876_nh.bmp
579.60	0.72	796	5	5	75	per	lib	low	mod	low	nt	n/a	nh/0079_nh.bmp
580.32	0.72	797	5	8	25	mem	con	mod	mod	mod	nt	ms	nh/0187_nh.bmp
581.04	0.72	798	5	6	101	mem	lib	mod	mod	low	tg	ht	wh/0361.bmp
581.76	0.72	799	6	5	109	per	lib	mod	mod	mod	nt	fa	nh/0350_nh.bmp
582.48	0.72	800	1	6	9	mem	lib	low	low	low	tg	ht	wh/0088.bmp
583.20	0.72	801	6	5	22	mem	con	mod	mod	low	tg	n/a	wh/0510.bmp
583.92	0.72	802	5	8	85	mem	lib	mod	mod	mod	nt	ht	nh/0594_nh.bmp
584.64	0.72	803	1	8	36	per	lib	low	low	low	nt	cr	nh/0655_nh.bmp
585.36	0.72	804	4	8	32	mem	con	mod	mod	mod	nt	ms	nh/0855_nh.bmp
586.08	0.72	805	6	5	86	per	con	low	mod	low	tg	ms	wh/0503.bmp
586.80	0.72	806	6	8	25	mem	con	mod	mod	mod	nt	ms	nh/0187_nh.bmp
587.52	0.72	807	1	6	115	per	lib	mod	low	mod	tg	ht	wh/0992.bmp
588.24	0.72	808	6	8	31	mem	con	mod	mod	mod	tg	ms	wh/0199.bmp
588.96	0.72	809	4	8	123	per	con	low	mod	low	nt	cr	nh/0190_nh.bmp
589.68	0.72	810	6	8	126	per	con	low	mod	low	nt	cr	nh/0967_nh.bmp
590.40	0.72	811	6	5	2	mem	lib	mod	mod	mod	tg	ht	wh/0371.bmp
591.12	0.72	812	5	5	100	per	lib	mod	mod	mod	tg	ht	wh/0962.bmp
591.84	0.72	813	5	7	120	per	lib	low	mod	low	nt	fa	nh/0082_nh.bmp
592.56	0.72	814	5	5	111	per	lib	mod	mod	mod	tg	ht	wh/0946.bmp
593.28	0.72	815	6	7	102	mem	con	mod	mod	low	tg	ms	wh/0404.bmp
594.00	0.72	816	5	5	31	mem	con	mod	mod	low	nt	ms	nh/0284_nh.bmp
594.72	0.72	817	5	8	32	mem	con	mod	mod	mod	nt	ms	nh/0855_nh.bmp
595.44	0.72	818	5	6	97	mem	lib	mod	mod	low	nt	n/a	nh/0818_nh.bmp
596.16	0.72	819	6	7	23	per	lib	mod	mod	mod	nt	cr	nh/0902_nh.bmp
596.88	0.72	820	6	5	72	per	lib	low	mod	low	tg	ht	wh/0613.bmp
597.60	0.72	821	5	5	46	per	con	mod	mod	mod	nt	cr	nh/0947_nh.bmp
598.32	0.72	822	6	7	120	per	lib	low	mod	low	nt	fa	nh/0082_nh.bmp
599.04	0.72	823	1	8	64	per	con	mod	low	mod	tg	ms	wh/0721.bmp
599.76	0.72	824	5	5	76	per	lib	low	mod	low	nt	n/a	nh/0451_nh.bmp
600.48	0.72	825	1	7	95	mem	con	low	low	mod	tg	ms	wh/0520.bmp
601.20	0.72	826	6	5	76	per	lib	low	mod	low	nt	n/a	nh/0451_nh.bmp
601.92	0.72	827	6	8	114	per	con	low	mod	low	tg	ms	wh/0465.bmp
602.64	0.72	828	1	8	109	per	lib	mod	low	mod	tg	ht	wh/0044.bmp
603.36	0.72	829	1	6	28	per	con	mod	low	mod	nt	cr	nh/0290_nh.bmp
604.08	0.72	830	6	5	71	per	lib	low	mod	low	tg	ht	wh/0417.bmp
604.80	0.72	831	5	8	90	mem	lib	mod	mod	mod	tg	ht	wh/0099.bmp
605.52	0.72	832	6	7	115	per	lib	low	mod	low	nt	fa	nh/0635_nh.bmp
606.24	0.72	833	6	8	18	mem	con	mod	mod	mod	tg	ms	wh/0874.bmp
606.96	0.72	834	5	7	25	per	lib	mod	mod	mod	tg	ht	wh/0684.bmp
607.68	0.72	835	6	8	83	mem	lib	mod	mod	mod	tg	ht	wh/0714.bmp
608.40	0.72	836	6	7	107	mem	con	mod	mod	low	tg	ms	wh/0744.bmp
609.12	0.72	837	6	7	21	per	lib	mod	mod	mod	nt	cr	nh/0591_nh.bmp
609.84	0.72	838	5	5	66	per	lib	low	mod	low	tg	ht	wh/0153.bmp
610.56	0.72	839	6	5	48	per	con	mod	mod	mod	nt	cr	nh/0462_nh.bmp
611.28	0.72	840	6	6	107	mem	lib	mod	mod	low	tg	ht	wh/0690.bmp
612.00	0.72	841	6	7	127	per	lib	low	mod	low	tg	ht	wh/0493.bmp
612.72	0.72	842	6	6	97	mem	lib	mod	mod	low	nt	n/a	nh/0818_nh.bmp
613.44	0.72	843	1	8	97	per	lib	mod	low	mod	tg	ht	wh/0306.bmp
614.16	0.72	844	6	5	82	per	con	low	mod	low	nt	cr	nh/0893_nh.bmp
614.88	0.72	845	6	5	1	mem	lib	mod	mod	mod	tg	ht	wh/0928.bmp
615.60	0.72	846	6	8	90	mem	lib	mod	mod	mod	tg	ht	wh/0099.bmp
616.32	0.72	847	6	5	91	per	con	low	mod	low	nt	cr	nh/0619_nh.bmp
617.04	0.72	848	4	6	83	mem	con	mod	mod	mod	nt	ms	nh/0810_nh.bmp
617.76	0.72	849	5	5	16	mem	lib	mod	mod	mod	nt	ht	nh/0772_nh.bmp
618.48	0.72	850	1	6	38	per	con	low	low	low	tg	ms	wh/0930.bmp
619.20	0.72	851	1	8	48	per	lib	low	low	low	tg	ht	wh/0237.bmp
619.92	0.72	852	5	8	123	per	con	low	mod	low	nt	cr	nh/0190_nh.bmp
620.64	0.72	853	6	7	12	per	con	mod	mod	mod	tg	ms	wh/0497.bmp
621.36	0.72	854	5	7	59	mem	lib	mod	mod	low	nt	ht	nh/0646_nh.bmp
622.08	0.72	855	6	5	16	mem	lib	mod	mod	mod	nt	ht	nh/0772_nh.bmp
622.80	0.72	856	6	5	100	per	lib	mod	mod	mod	tg	ht	wh/0962.bmp
623.52	0.72	857	6	5	110	per	lib	mod	mod	mod	nt	cr	nh/0593_nh.bmp
624.24	0.72	858	6	6	101	mem	lib	mod	mod	low	tg	ht	wh/0361.bmp
624.96	0.72	859	5	5	107	per	lib	mod	mod	mod	tg	ht	wh/0957.bmp
625.68	0.72	860	5	6	83	mem	con	mod	mod	mod	nt	ms	nh/0810_nh.bmp
626.40	0.72	861	1	8	8	mem	lib	low	low	low	tg	ht	wh/0437.bmp
627.12	0.72	862	6	5	46	per	con	mod	mod	mod	nt	cr	nh/0947_nh.bmp
627.84	0.72	863	6	5	87	per	con	low	mod	low	tg	ht	wh/0577.bmp
628.56	0.72	864	1	6	58	mem	con	low	low	mod	nt	ms	nh/0584_nh.bmp
629.28	0.72	865	6	7	57	mem	lib	mod	mod	low	tg	ht	wh/0035.bmp
630.00	0.72	866	6	7	53	mem	lib	mod	mod	low	tg	n/a	wh/0194.bmp
630.72	0.72	867	6	7	118	per	lib	low	mod	low	nt	fa	nh/0964_nh.bmp
631.44	0.72	868	6	8	123	per	con	low	mod	low	nt	cr	nh/0190_nh.bmp
632.16	0.72	869	6	6	83	mem	con	mod	mod	mod	nt	ms	nh/0810_nh.bmp
632.88	0.72	870	6	7	14	per	con	mod	mod	mod	nt	cr	nh/0095_nh.bmp
633.60	0.72	871	6	7	105	mem	con	mod	mod	low	nt	ms	nh/0351_nh.bmp
634.32	0.72	872	6	5	104	per	lib	mod	mod	mod	nt	cr	nh/0558_nh.bmp
635.04	0.72	873	6	8	88	mem	lib	mod	mod	mod	nt	ms	nh/0542_nh.bmp
635.76	0.72	874	6	5	107	per	lib	mod	mod	mod	tg	ht	wh/0957.bmp
636.48	0.72	875	6	8	82	mem	lib	mod	mod	mod	tg	ht	wh/0446.bmp
637.20	0.72	876	1	6	69	per	lib	low	low	low	nt	cr	nh/0112_nh.bmp
637.92	0.72	877	6	8	95	mem	lib	mod	mod	mod	tg	ms	wh/0196.bmp
638.64	0.72	878	1	5	60	mem	lib	low	low	mod	nt	ms	nh/1018_nh.bmp
639.36	0.72	879	6	5	8	mem	lib	mod	mod	mod	tg	ht	wh/0909.bmp
640.08	0.72	880	6	7	9	per	con	mod	mod	mod	tg	ms	wh/0396.bmp
640.80	0.72	881	6	7	25	per	lib	mod	mod	mod	tg	ht	wh/0684.bmp
641.52	0.72	882	6	5	38	per	con	mod	mod	mod	tg	ms	wh/0563.bmp
642.24	0.72	883	6	6	105	mem	lib	mod	mod	low	nt	ht	nh/0232_nh.bmp
642.96	0.72	884	6	8	32	mem	con	mod	mod	mod	nt	ms	nh/0855_nh.bmp
643.68	0.72	885	6	5	66	per	lib	low	mod	low	tg	ht	wh/0153.bmp
644.40	0.72	886	6	5	77	per	lib	low	mod	low	tg	ht	wh/0802.bmp
645.12	0.72	887	6	5	111	per	lib	mod	mod	mod	tg	ht	wh/0946.bmp
645.84	0.72	888	6	8	124	per	con	low	mod	low	tg	ht	wh/0238.bmp
646.56	0.72	889	6	7	59	mem	lib	mod	mod	low	nt	ht	nh/0646_nh.bmp
647.28	0.72	890	6	8	122	per	con	low	mod	low	nt	cr	nh/0075_nh.bmp
648.00	0.72	891	6	6	102	mem	lib	mod	mod	low	nt	ht	nh/0036_nh.bmp
648.72	0.72	892	6	5	31	mem	con	mod	mod	low	nt	ms	nh/0284_nh.bmp
649.44	0.72	893	6	5	75	per	lib	low	mod	low	nt	n/a	nh/0079_nh.bmp
650.16	0.72	894	6	5	41	per	con	mod	mod	mod	tg	ht	wh/0548.bmp
650.88	0.72	895	6	7	17	per	lib	mod	mod	mod	tg	ms	wh/0380.bmp
651.60	0.72	896	6	8	85	mem	lib	mod	mod	mod	nt	ht	nh/0594_nh.bmp
