onset	duration	trial	pres	ts_blk	ts_trl	task	crit	disc	mem_disc	per_disc	per_type	accuracy	stim_file
7.20	0.72	1	1	1	1	per	con	mod	mod	mod	nt	cr	nh/0674_nh.bmp
7.92	0.72	2	1	1	43	mem	lib	mod	mod	low	nt	ht	nh/0554_nh.bmp
8.64	0.72	3	1	2	73	mem	lib	mod	mod	mod	nt	ht	nh/0665_nh.bmp
9.36	0.72	4	1	3	61	per	lib	mod	mod	mod	tg	ht	wh/0343.bmp
10.08	0.72	5	1	2	71	mem	lib	mod	mod	mod	tg	ms	wh/0738.bmp
10.80	0.72	6	1	4	8	per	lib	mod	low	mod	nt	cr	nh/0409_nh.bmp
11.52	0.72	7	1	1	12	per	con	mod	mod	mod	tg	ms	wh/0104.bmp
12.24	0.72	8	1	4	45	per	con	mod	mod	mod	tg	ms	wh/0861.bmp
12.96	0.72	9	1	2	68	mem	lib	mod	mod	mod	tg	ms	wh/0961.bmp
13.68	0.72	10	1	4	53	mem	lib	mod	mod	low	tg	ht	wh/0410.bmp
14.40	0.72	11	1	3	87	mem	lib	mod	mod	mod	tg	ht	wh/0895.bmp
15.12	0.72	12	1	3	91	mem	lib	mod	mod	mod	nt	ht	nh/0806_nh.bmp
15.84	0.72	13	1	1	33	mem	lib	mod	mod	low	tg	ht	wh/0293.bmp
16.56	0.72	14	1	4	80	mem	con	mod	mod	mod	tg	ms	wh/0931.bmp
17.28	0.72	15	1	3	92	mem	lib	mod	mod	mod	nt	ht	nh/0592_nh.bmp
18.00	0.72	16	1	3	113	per	lib	low	low	low	tg	ms	wh/0242.bmp
18.72	0.72	17	1	1	25	per	lib	mod	mod	mod	nt	cr	nh/0576_nh.bmp
19.44	0.72	18	2	4	53	mem	lib	mod	mod	low	tg	ht	wh/0410.bmp
20.16	0.72	19	1	3	48	mem	con	mod	mod	low	nt	ms	nh/0195_nh.bmp
20.88	0.72	20	1	4	81	per	lib	low	mod	low	nt	fa	nh/0798_nh.bmp
21.60	0.72	21	2	4	80	mem	con	mod	mod	mod	tg	ms	wh/0931.bmp
22.32	0.72	22	1	2	34	per	con	low	mod	low	nt	cr	nh/0203_nh.bmp
23.04	0.72	23	1	1	89	mem	con	low	low	low	nt	ms	nh/0309_nh.bmp
23.76	0.72	24	1	2	41	per	con	low	mod	low	tg	ms	wh/0511.bmp
24.48	0.72	25	1	4	49	mem	lib	mod	mod	low	tg	ht	wh/0030.bmp
25.20	0.72	26	1	4	46	per	con	mod	mod	mod	tg	ht	wh/0477.bmp
25.92	0.72	27	1	2	85	per	lib	low	mod	low	nt	fa	nh/1013_nh.bmp
26.64	0.72	28	1	2	59	mem	con	low	low	mod	tg	ms	wh/0069.bmp
27.36	0.72	29	1	1	114	per	lib	low	low	low	tg	ms	wh/0211.bmp
28.08	0.72	30	1	2	67	mem	lib	mod	mod	mod	tg	ms	wh/0796.bmp
28.80	0.72	31	1	1	24	per	lib	mod	mod	mod	tg	ht	wh/0320.bmp
29.52	0.72	32	1	2	98	mem	con	mod	mod	mod	nt	ms	nh/0359_nh.bmp
30.24	0.72	33	1	2	106	mem	con	mod	mod	mod	nt	ms	nh/0313_nh.bmp
30.96	0.72	34	1	3	84	mem	lib	mod	mod	mod	tg	ht	wh/0229.bmp
31.68	0.72	35	1	3	86	mem	lib	mod	mod	mod	nt	ht	nh/0689_nh.bmp
32.40	0.72	36	1	4	52	mem	lib	mod	mod	low	nt	ht	nh/0575_nh.bmp
33.12	0.72	37	1	2	96	per	lib	low	mod	low	nt	fa	nh/0791_nh.bmp
33.84	0.72	38	1	1	19	per	lib	mod	mod	mod	nt	cr	nh/1006_nh.bmp
34.56	0.72	39	1	4	92	per	lib	low	mod	low	nt	fa	nh/0236_nh.bmp
35.28	0.72	40	1	2	78	mem	lib	mod	mod	mod	nt	ht	nh/0645_nh.bmp
36.00	0.72	41	2	2	78	mem	lib	mod	mod	mod	nt	ht	nh/0645_nh.bmp
36.72	0.72	42	1	4	42	per	con	mod	mod	mod	nt	cr	nh/0759_nh.bmp
37.44	0.72	43	1	1	13	per	con	mod	mod	mod	tg	ht	wh/0761.bmp
38.16	0.72	44	1	4	59	mem	lib	mod	mod	low	nt	n/a	nh/0509_nh.bmp
38.88	0.72	45	1	1	62	mem	con	mod	mod	low	tg	ms	wh/0302.bmp
39.60	0.72	46	1	3	93	mem	lib	mod	mod	mod	tg	ht	wh/0448.bmp
40.32	0.72	47	2	2	73	mem	lib	mod	mod	mod	nt	ht	nh/0665_nh.bmp
41.04	0.72	48	1	2	69	mem	lib	mod	mod	mod	nt	ht	nh/0925_nh.bmp
41.76	0.72	49	2	4	59	mem	lib	mod	mod	low	nt	n/a	nh/0509_nh.bmp
42.48	0.72	50	2	2	106	mem	con	mod	mod	mod	nt	ms	nh/0313_nh.bmp
43.20	0.72	51	2	3	61	per	lib	mod	mod	mod	tg	ht	wh/0343.bmp
43.92	0.72	52	1	1	45	mem	lib	mod	mod	low	tg	ht	wh/0263.bmp
44.64	0.72	53	1	4	68	mem	con	mod	mod	mod	tg	ms	wh/0604.bmp
45.36	0.72	54	1	3	26	mem	lib	low	low	low	tg	ms	wh/1003.bmp
46.08	0.72	55	1	3	41	mem	con	mod	mod	low	nt	ht	nh/0283_nh.bmp
46.80	0.72	56	1	3	29	mem	lib	low	low	low	tg	ht	wh/0824.bmp
47.52	0.72	57	1	2	102	mem	con	mod	mod	mod	tg	ms	wh/0333.bmp
48.24	0.72	58	3	4	59	mem	lib	mod	mod	low	nt	n/a	nh/0509_nh.bmp
48.96	0.72	59	1	4	94	per	lib	low	mod	low	nt	cr	nh/0424_nh.bmp
49.68	0.72	60	1	4	106	mem	lib	low	low	mod	tg	ht	wh/0052.bmp
50.40	0.72	61	1	2	55	mem	con	low	low	mod	tg	ms	wh/0102.bmp
51.12	0.72	62	2	1	25	per	lib	mod	mod	mod	nt	cr	nh/0576_nh.bmp
51.84	0.72	63	1	2	10	per	con	mod	low	mod	nt	fa	nh/0555_nh.bmp
52.56	0.72	64	1	2	40	per	con	low	mod	low	tg	ms	wh/0124.bmp
53.28	0.72	65	2	1	62	mem	con	mod	mod	low	tg	ms	wh/0302.bmp
54.00	0.72	66	1	2	33	per	con	low	mod	low	tg	ms	wh/0661.bmp
54.72	0.72	67	1	4	62	mem	lib	mod	mod	low	nt	ht	nh/0081_nh.bmp
55.44	0.72	68	1	1	57	mem	con	mod	mod	low	tg	ms	wh/0882.bmp
56.16	0.72	69	1	4	111	mem	lib	low	low	mod	nt	ht	nh/0826_nh.bmp
56.88	0.72	70	1	4	7	per	lib	mod	low	mod	tg	ht	wh/0726.bmp
57.60	0.72	71	1	1	20	per	lib	mod	mod	mod	nt	cr	nh/1010_nh.bmp
58.32	0.72	72	2	4	46	per	con	mod	mod	mod	tg	ht	wh/0477.bmp
59.04	0.72	73	2	2	102	mem	con	mod	mod	mod	tg	ms	wh/0333.bmp
59.76	0.72	74	1	3	118	per	lib	low	low	low	nt	cr	nh/0653_nh.bmp
60.48	0.72	75	2	1	57	mem	con	mod	mod	low	tg	ms	wh/0882.bmp
61.20	0.72	76	2	2	85	per	lib	low	mod	low	nt	fa	nh/1013_nh.bmp
61.92	0.72	77	1	1	82	mem	con	low	low	low	tg	ht	wh/0184.bmp
62.64	0.72	78	1	3	109	mem	con	low	low	mod	tg	ms	wh/0993.bmp
63.36	0.72	79	1	3	16	per	con	low	low	low	tg	ms	wh/0632.bmp
64.08	0.72	80	2	1	1	per	con	mod	mod	mod	nt	cr	nh/0674_nh.bmp
64.80	0.72	81	1	3	56	per	lib	mod	mod	mod	tg	ht	wh/0151.bmp
65.52	0.72	82	1	1	106	mem	lib	low	low	mod	nt	ms	nh/0616_nh.bmp
66.24	0.72	83	1	3	116	per	lib	low	low	low	tg	ht	wh/0117.bmp
66.96	0.72	84	1	3	5	per	con	low	low	low	tg	ms	wh/0264.bmp
67.68	0.72	85	2	3	86	mem	lib	mod	mod	mod	nt	ht	nh/0689_nh.bmp
68.40	0.72	86	1	1	70	per	con	low	low	low	tg	ms	wh/0783.bmp
69.12	0.72	87	1	1	29	per	lib	mod	mod	mod	tg	ht	wh/0742.bmp
69.84	0.72	88	1	2	99	mem	con	mod	mod	mod	tg	ms	wh/0799.bmp
70.56	0.72	89	1	4	20	per	con	low	mod	low	tg	ms	wh/0976.bmp
71.28	0.72	90	3	1	1	per	con	mod	mod	mod	nt	cr	nh/0674_nh.bmp
72.00	0.72	91	3	4	80	mem	con	mod	mod	mod	tg	ms	wh/0931.bmp
72.72	0.72	92	1	4	47	per	con	mod	mod	mod	nt	cr	nh/0834_nh.bmp
73.44	0.72	93	1	4	72	mem	con	mod	mod	mod	nt	ms	nh/0427_nh.bmp
74.16	0.72	94	2	3	92	mem	lib	mod	mod	mod	nt	ht	nh/0592_nh.bmp
74.88	0.72	95	3	1	25	per	lib	mod	mod	mod	nt	cr	nh/0576_nh.bmp
75.60	0.72	96	1	1	77	per	con	low	low	low	tg	ms	wh/0110.bmp
76.32	0.72	97	4	4	59	mem	lib	mod	mod	low	nt	n/a	nh/0509_nh.bmp
77.04	0.72	98	1	4	22	per	con	low	mod	low	tg	ms	wh/0512.bmp
77.76	0.72	99	1	1	97	mem	lib	low	low	mod	tg	ht	wh/0630.bmp
78.48	0.72	100	1	1	60	mem	con	mod	mod	low	nt	ht	nh/0259_nh.bmp
79.20	0.72	101	1	1	52	mem	con	mod	mod	low	nt	ms	nh/0671_nh.bmp
79.92	0.72	102	3	2	102	mem	con	mod	mod	mod	tg	ms	wh/0333.bmp
80.64	0.72	103	1	1	28	per	lib	mod	mod	mod	tg	ms	wh/0901.bmp
81.36	0.72	104	1	4	32	per	con	low	mod	low	nt	fa	nh/0643_nh.bmp
82.08	0.72	105	2	4	49	mem	lib	mod	mod	low	tg	ht	wh/0030.bmp
82.80	0.72	106	2	4	92	per	lib	low	mod	low	nt	fa	nh/0236_nh.bmp
83.52	0.72	107	1	2	127	mem	lib	low	low	low	nt	ht	nh/0250_nh.bmp
84.24	0.72	108	1	3	62	per	lib	mod	mod	mod	nt	fa	nh/0282_nh.bmp
84.96	0.72	109	1	4	74	mem	con	mod	mod	mod	nt	ms	nh/0072_nh.bmp
85.68	0.72	110	2	1	45	mem	lib	mod	mod	low	tg	ht	wh/0263.bmp
86.40	0.72	111	2	3	87	mem	lib	mod	mod	mod	tg	ht	wh/0895.bmp
87.12	0.72	112	2	4	20	per	con	low	mod	low	tg	ms	wh/0976.bmp
87.84	0.72	113	1	3	124	per	lib	low	low	low	nt	fa	nh/0171_nh.bmp
88.56	0.72	114	1	1	14	per	con	mod	mod	mod	nt	cr	nh/0970_nh.bmp
89.28	0.72	115	2	1	12	per	con	mod	mod	mod	tg	ms	wh/0104.bmp
90.00	0.72	116	1	2	38	per	con	low	mod	low	tg	ht	wh/0988.bmp
90.72	0.72	117	1	1	15	per	con	mod	mod	mod	nt	cr	nh/0583_nh.bmp
91.44	0.72	118	1	3	49	per	lib	mod	mod	mod	nt	fa	nh/0753_nh.bmp
92.16	0.72	119	1	2	116	mem	lib	low	low	low	tg	ht	wh/0916.bmp
92.88	0.72	120	2	2	69	mem	lib	mod	mod	mod	nt	ht	nh/0925_nh.bmp
93.60	0.72	121	1	4	44	per	con	mod	mod	mod	nt	cr	nh/0358_nh.bmp
94.32	0.72	122	1	2	65	mem	lib	mod	mod	mod	nt	ms	nh/0279_nh.bmp
95.04	0.72	123	3	3	61	per	lib	mod	mod	mod	tg	ht	wh/0343.bmp
95.76	0.72	124	1	3	55	per	lib	mod	mod	mod	nt	fa	nh/0445_nh.bmp
96.48	0.72	125	1	2	82	per	lib	low	mod	low	tg	ms	wh/0444.bmp
97.20	0.72	126	1	1	104	mem	lib	low	low	mod	tg	ht	wh/0062.bmp
97.92	0.72	127	1	2	83	per	lib	low	mod	low	nt	fa	nh/0494_nh.bmp
98.64	0.72	128	2	4	72	mem	con	mod	mod	mod	nt	ms	nh/0427_nh.bmp
99.36	0.72	129	2	4	42	per	con	mod	mod	mod	nt	cr	nh/0759_nh.bmp
100.08	0.72	130	1	2	27	per	lib	mod	low	mod	nt	fa	nh/0858_nh.bmp
100.80	0.72	131	1	1	46	mem	lib	mod	mod	low	tg	ms	wh/0412.bmp
101.52	0.72	132	1	2	20	per	lib	mod	low	mod	nt	cr	nh/0440_nh.bmp
102.24	0.72	133	1	4	100	mem	lib	low	low	mod	tg	ht	wh/0985.bmp
102.96	0.72	134	1	3	33	mem	con	mod	mod	low	tg	ms	wh/0703.bmp
103.68	0.72	135	1	3	82	mem	lib	mod	mod	mod	tg	ht	wh/0664.bmp
104.40	0.72	136	1	1	35	mem	lib	mod	mod	low	nt	ht	nh/0765_nh.bmp
105.12	0.72	137	1	4	29	per	con	low	mod	low	nt	cr	nh/0067_nh.bmp
105.84	0.72	138	2	2	98	mem	con	mod	mod	mod	nt	ms	nh/0359_nh.bmp
106.56	0.72	139	1	4	19	per	con	low	mod	low	nt	cr	nh/0174_nh.bmp
107.28	0.72	140	2	4	29	per	con	low	mod	low	nt	cr	nh/0067_nh.bmp
108.00	0.72	141	2	2	33	per	con	low	mod	low	tg	ms	wh/0661.bmp
108.72	0.72	142	2	4	62	mem	lib	mod	mod	low	nt	ht	nh/0081_nh.bmp
109.44	0.72	143	1	4	25	per	con	low	mod	low	tg	ms	wh/0683.bmp
110.16	0.72	144	1	4	23	per	con	low	mod	low	tg	ms	wh/0792.bmp
110.88	0.72	145	2	4	32	per	con	low	mod	low	nt	fa	nh/0643_nh.bmp
111.60	0.72	146	4	1	1	per	con	mod	mod	mod	nt	cr	nh/0674_nh.bmp
112.32	0.72	147	2	3	55	per	lib	mod	mod	mod	nt	fa	nh/0445_nh.bmp
113.04	0.72	148	2	4	45	per	con	mod	mod	mod	tg	ms	wh/0861.bmp
113.76	0.72	149	1	3	9	per	con	low	low	low	nt	cr	nh/0252_nh.bmp
114.48	0.72	150	1	3	94	mem	lib	mod	mod	mod	nt	ht	nh/0479_nh.bmp
115.20	0.72	151	1	2	87	per	lib	low	mod	low	tg	ht	wh/0295.bmp
115.92	0.72	152	1	2	94	per	lib	low	mod	low	tg	ms	wh/0415.bmp
116.64	0.72	153	1	4	38	per	con	mod	mod	mod	nt	cr	nh/0344_nh.bmp
117.36	0.72	154	3	3	92	mem	lib	mod	mod	mod	nt	ht	nh/0592_nh.bmp
118.08	0.72	155	3	1	62	mem	con	mod	mod	low	tg	ms	wh/0302.bmp
118.80	0.72	156	2	2	34	per	con	low	mod	low	nt	cr	nh/0203_nh.bmp
119.52	0.72	157	1	1	93	mem	con	low	low	low	nt	ht	nh/0505_nh.bmp
120.24	0.72	158	2	4	81	per	lib	low	mod	low	nt	fa	nh/0798_nh.bmp
120.96	0.72	159	2	1	19	per	lib	mod	mod	mod	nt	cr	nh/1006_nh.bmp
121.68	0.72	160	1	3	59	per	lib	mod	mod	mod	nt	cr	nh/0490_nh.bmp
122.40	0.72	161	1	4	84	per	lib	low	mod	low	tg	ht	wh/0131.bmp
123.12	0.72	162	1	4	63	mem	lib	mod	mod	low	tg	ht	wh/0166.bmp
123.84	0.72	163	3	4	45	per	con	mod	mod	mod	tg	ms	wh/0861.bmp
124.56	0.72	164	1	1	126	per	lib	low	low	low	tg	ht	wh/0524.bmp
125.28	0.72	165	2	2	41	per	con	low	mod	low	tg	ms	wh/0511.bmp
126.00	0.72	166	2	4	84	per	lib	low	mod	low	tg	ht	wh/0131.bmp
126.72	0.72	167	1	4	73	mem	con	mod	mod	mod	tg	ms	wh/0365.bmp
127.44	0.72	168	1	3	65	per	con	mod	low	mod	nt	cr	nh/0872_nh.bmp
128.16	0.72	169	2	2	38	per	con	low	mod	low	tg	ht	wh/0988.bmp
128.88	0.72	170	1	2	12	per	con	mod	low	mod	nt	cr	nh/0502_nh.bmp
129.60	0.72	171	2	4	52	mem	lib	mod	mod	low	nt	ht	nh/0575_nh.bmp
130.32	0.72	172	3	4	72	mem	con	mod	mod	mod	nt	ms	nh/0427_nh.bmp
131.04	0.72	173	1	4	89	per	lib	low	mod	low	tg	ht	wh/0291.bmp
131.76	0.72	174	2	4	73	mem	con	mod	mod	mod	tg	ms	wh/0365.bmp
132.48	0.72	175	1	1	26	per	lib	mod	mod	mod	nt	cr	nh/0487_nh.bmp
133.20	0.72	176	1	3	64	per	lib	mod	mod	mod	tg	ht	wh/0538.bmp
133.92	0.72	177	2	1	29	per	lib	mod	mod	mod	tg	ht	wh/0742.bmp
134.64	0.72	178	1	2	107	mem	con	mod	mod	mod	nt	ms	nh/0331_nh.bmp
135.36	0.72	179	3	2	78	mem	lib	mod	mod	mod	nt	ht	nh/0645_nh.bmp
136.08	0.72	180	1	2	29	per	lib	mod	low	mod	tg	ht	wh/0950.bmp
136.80	0.72	181	3	1	19	per	lib	mod	mod	mod	nt	cr	nh/1006_nh.bmp
137.52	0.72	182	4	4	80	mem	con	mod	mod	mod	tg	ms	wh/0931.bmp
138.24	0.72	183	3	2	41	per	con	low	mod	low	tg	ms	wh/0511.bmp
138.96	0.72	184	1	2	124	mem	lib	low	low	low	tg	ht	wh/0169.bmp
139.68	0.72	185	2	3	33	mem	con	mod	mod	low	tg	ms	wh/0703.bmp
140.40	0.72	186	2	3	84	mem	lib	mod	mod	mod	tg	ht	wh/0229.bmp
141.12	0.72	187	1	1	21	per	lib	mod	mod	mod	tg	ht	wh/0071.bmp
141.84	0.72	188	1	1	123	per	lib	low	low	low	tg	ms	wh/0245.bmp
142.56	0.72	189	1	2	104	mem	con	mod	mod	mod	tg	ms	wh/0628.bmp
143.28	0.72	190	1	2	112	mem	con	mod	mod	mod	tg	ht	wh/0562.bmp
144.00	0.72	191	1	1	38	mem	lib	mod	mod	low	nt	ht	nh/0914_nh.bmp
144.72	0.72	192	1	2	46	per	con	low	mod	low	nt	cr	nh/0323_nh.bmp
145.44	0.72	193	3	1	57	mem	con	mod	mod	low	tg	ms	wh/0882.bmp
146.16	0.72	194	1	2	53	mem	con	low	low	mod	tg	ms	wh/0723.bmp
146.88	0.72	195	2	1	13	per	con	mod	mod	mod	tg	ht	wh/0761.bmp
147.60	0.72	196	2	2	87	per	lib	low	mod	low	tg	ht	wh/0295.bmp
148.32	0.72	197	1	1	116	per	lib	low	low	low	nt	fa	nh/0908_nh.bmp
149.04	0.72	198	1	4	67	mem	con	mod	mod	mod	tg	ms	wh/0049.bmp
149.76	0.72	199	2	3	94	mem	lib	mod	mod	mod	nt	ht	nh/0479_nh.bmp
150.48	0.72	200	2	4	94	per	lib	low	mod	low	nt	cr	nh/0424_nh.bmp
151.20	0.72	201	1	4	109	mem	lib	low	low	mod	nt	ht	nh/0644_nh.bmp
151.92	0.72	202	2	1	14	per	con	mod	mod	mod	nt	cr	nh/0970_nh.bmp
152.64	0.72	203	2	4	44	per	con	mod	mod	mod	nt	cr	nh/0358_nh.bmp
153.36	0.72	204	1	2	45	per	con	low	mod	low	nt	cr	nh/0368_nh.bmp
154.08	0.72	205	1	4	125	mem	con	low	low	low	nt	ms	nh/0120_nh.bmp
154.80	0.72	206	1	4	70	mem	con	mod	mod	mod	nt	ms	nh/0061_nh.bmp
155.52	0.72	207	2	2	94	per	lib	low	mod	low	tg	ms	wh/0415.bmp
156.24	0.72	208	1	2	86	per	lib	low	mod	low	tg	ms	wh/0312.bmp
156.96	0.72	209	4	2	41	per	con	low	mod	low	tg	ms	wh/0511.bmp
157.68	0.72	210	2	4	38	per	con	mod	mod	mod	nt	cr	nh/0344_nh.bmp
158.40	0.72	211	1	2	120	mem	lib	low	low	low	tg	ht	wh/0357.bmp
159.12	0.72	212	1	4	64	mem	lib	mod	mod	low	nt	ht	nh/0315_nh.bmp
159.84	0.72	213	2	1	24	per	lib	mod	mod	mod	tg	ht	wh/0320.bmp
160.56	0.72	214	1	4	34	per	con	mod	mod	mod	tg	ms	wh/0809.bmp
161.28	0.72	215	1	1	6	per	con	mod	mod	mod	tg	ht	wh/0413.bmp
162.00	0.72	216	2	4	19	per	con	low	mod	low	nt	cr	nh/0174_nh.bmp
162.72	0.72	217	2	2	83	per	lib	low	mod	low	nt	fa	nh/0494_nh.bmp
163.44	0.72	218	1	1	40	mem	lib	mod	mod	low	tg	ht	wh/0459.bmp
164.16	0.72	219	2	3	64	per	lib	mod	mod	mod	tg	ht	wh/0538.bmp
164.88	0.72	220	3	3	33	mem	con	mod	mod	low	tg	ms	wh/0703.bmp
165.60	0.72	221	1	1	127	per	lib	low	low	low	tg	ms	wh/0363.bmp
166.32	0.72	222	1	1	61	mem	con	mod	mod	low	nt	ht	nh/0422_nh.bmp
167.04	0.72	223	3	4	49	mem	lib	mod	mod	low	tg	ht	wh/0030.bmp
167.76	0.72	224	2	2	112	mem	con	mod	mod	mod	tg	ht	wh/0562.bmp
168.48	0.72	225	1	3	101	mem	con	low	low	mod	nt	ms	nh/0539_nh.bmp
169.20	0.72	226	5	4	59	mem	lib	mod	mod	low	nt	n/a	nh/0509_nh.bmp
169.92	0.72	227	2	4	67	mem	con	mod	mod	mod	tg	ms	wh/0049.bmp
170.64	0.72	228	1	1	37	mem	lib	mod	mod	low	nt	ht	nh/0438_nh.bmp
171.36	0.72	229	3	4	53	mem	lib	mod	mod	low	tg	ht	wh/0410.bmp
172.08	0.72	230	1	2	37	per	con	low	mod	low	nt	cr	nh/0386_nh.bmp
172.80	0.72	231	2	1	6	per	con	mod	mod	mod	tg	ht	wh/0413.bmp
173.52	0.72	232	1	1	11	per	con	mod	mod	mod	tg	ms	wh/0983.bmp
174.24	0.72	233	2	1	20	per	lib	mod	mod	mod	nt	cr	nh/1010_nh.bmp
174.96	0.72	234	2	1	33	mem	lib	mod	mod	low	tg	ht	wh/0293.bmp
175.68	0.72	235	1	4	40	per	con	mod	mod	mod	tg	ht	wh/0039.bmp
176.40	0.72	236	2	4	70	mem	con	mod	mod	mod	nt	ms	nh/0061_nh.bmp
177.12	0.72	237	3	2	73	mem	lib	mod	mod	mod	nt	ht	nh/0665_nh.bmp
177.84	0.72	238	1	3	44	mem	con	mod	mod	low	nt	ht	nh/0400_nh.bmp
178.56	0.72	239	2	2	71	mem	lib	mod	mod	mod	tg	ms	wh/0738.bmp
179.28	0.72	240	1	2	31	per	lib	mod	low	mod	nt	fa	nh/0886_nh.bmp
180.00	0.72	241	1	4	105	mem	lib	low	low	mod	tg	ht	wh/0317.bmp
180.72	0.72	242	4	1	57	mem	con	mod	mod	low	tg	ms	wh/0882.bmp
181.44	0.72	243	2	2	65	mem	lib	mod	mod	mod	nt	ms	nh/0279_nh.bmp
182.16	0.72	244	3	4	92	per	lib	low	mod	low	nt	fa	nh/0236_nh.bmp
182.88	0.72	245	2	2	45	per	con	low	mod	low	nt	cr	nh/0368_nh.bmp
183.60	0.72	246	3	4	20	per	con	low	mod	low	tg	ms	wh/0976.bmp
184.32	0.72	247	2	2	104	mem	con	mod	mod	mod	tg	ms	wh/0628.bmp
185.04	0.72	248	3	4	84	per	lib	low	mod	low	tg	ht	wh/0131.bmp
185.76	0.72	249	2	3	41	mem	con	mod	mod	low	nt	ht	nh/0283_nh.bmp
186.48	0.72	250	2	3	49	per	lib	mod	mod	mod	nt	fa	nh/0753_nh.bmp
187.20	0.72	251	2	4	25	per	con	low	mod	low	tg	ms	wh/0683.bmp
187.92	0.72	252	1	2	32	per	lib	mod	low	mod	nt	cr	nh/0719_nh.bmp
188.64	0.72	253	1	3	36	mem	con	mod	mod	low	tg	ms	wh/0132.bmp
189.36	0.72	254	1	2	117	mem	lib	low	low	low	nt	ms	nh/0535_nh.bmp
190.08	0.72	255	2	3	93	mem	lib	mod	mod	mod	tg	ht	wh/0448.bmp
190.80	0.72	256	2	1	40	mem	lib	mod	mod	low	tg	ht	wh/0459.bmp
191.52	0.72	257	4	3	33	mem	con	mod	mod	low	tg	ms	wh/0703.bmp
192.24	0.72	258	3	4	73	mem	con	mod	mod	mod	tg	ms	wh/0365.bmp
192.96	0.72	259	1	4	60	mem	lib	mod	mod	low	tg	ht	wh/0246.bmp
193.68	0.72	260	2	1	26	per	lib	mod	mod	mod	nt	cr	nh/0487_nh.bmp
194.40	0.72	261	3	4	70	mem	con	mod	mod	mod	nt	ms	nh/0061_nh.bmp
195.12	0.72	262	3	1	26	per	lib	mod	mod	mod	nt	cr	nh/0487_nh.bmp
195.84	0.72	263	3	4	67	mem	con	mod	mod	mod	tg	ms	wh/0049.bmp
196.56	0.72	264	1	2	63	mem	con	low	low	mod	nt	ms	nh/0811_nh.bmp
197.28	0.72	265	2	1	46	mem	lib	mod	mod	low	tg	ms	wh/0412.bmp
198.00	0.72	266	5	2	41	per	con	low	mod	low	tg	ms	wh/0511.bmp
198.72	0.72	267	3	3	84	mem	lib	mod	mod	mod	tg	ht	wh/0229.bmp
199.44	0.72	268	3	2	83	per	lib	low	mod	low	nt	fa	nh/0494_nh.bmp
200.16	0.72	269	2	1	52	mem	con	mod	mod	low	nt	ms	nh/0671_nh.bmp
200.88	0.72	270	2	4	60	mem	lib	mod	mod	low	tg	ht	wh/0246.bmp
201.60	0.72	271	2	2	68	mem	lib	mod	mod	mod	tg	ms	wh/0961.bmp
202.32	0.72	272	3	2	38	per	con	low	mod	low	tg	ht	wh/0988.bmp
203.04	0.72	273	2	4	47	per	con	mod	mod	mod	nt	cr	nh/0834_nh.bmp
203.76	0.72	274	3	2	104	mem	con	mod	mod	mod	tg	ms	wh/0628.bmp
204.48	0.72	275	3	1	45	mem	lib	mod	mod	low	tg	ht	wh/0263.bmp
205.20	0.72	276	3	3	55	per	lib	mod	mod	mod	nt	fa	nh/0445_nh.bmp
205.92	0.72	277	3	1	20	per	lib	mod	mod	mod	nt	cr	nh/1010_nh.bmp
206.64	0.72	278	3	3	87	mem	lib	mod	mod	mod	tg	ht	wh/0895.bmp
207.36	0.72	279	1	1	118	per	lib	low	low	low	nt	fa	nh/0107_nh.bmp
208.08	0.72	280	3	4	46	per	con	mod	mod	mod	tg	ht	wh/0477.bmp
208.80	0.72	281	2	3	48	mem	con	mod	mod	low	nt	ms	nh/0195_nh.bmp
209.52	0.72	282	2	4	40	per	con	mod	mod	mod	tg	ht	wh/0039.bmp
210.24	0.72	283	3	2	85	per	lib	low	mod	low	nt	fa	nh/1013_nh.bmp
210.96	0.72	284	1	1	76	per	con	low	low	low	tg	ms	wh/0327.bmp
211.68	0.72	285	2	2	99	mem	con	mod	mod	mod	tg	ms	wh/0799.bmp
212.40	0.72	286	2	1	37	mem	lib	mod	mod	low	nt	ht	nh/0438_nh.bmp
213.12	0.72	287	4	2	38	per	con	low	mod	low	tg	ht	wh/0988.bmp
213.84	0.72	288	3	2	94	per	lib	low	mod	low	tg	ms	wh/0415.bmp
214.56	0.72	289	3	2	45	per	con	low	mod	low	nt	cr	nh/0368_nh.bmp
215.28	0.72	290	4	2	78	mem	lib	mod	mod	mod	nt	ht	nh/0645_nh.bmp
216.00	0.72	291	3	2	69	mem	lib	mod	mod	mod	nt	ht	nh/0925_nh.bmp
216.72	0.72	292	3	2	106	mem	con	mod	mod	mod	nt	ms	nh/0313_nh.bmp
217.44	0.72	293	1	3	57	per	lib	mod	mod	mod	tg	ht	wh/0705.bmp
218.16	0.72	294	2	4	23	per	con	low	mod	low	tg	ms	wh/0792.bmp
218.88	0.72	295	1	4	128	mem	con	low	low	low	tg	ms	wh/0808.bmp
219.60	0.72	296	1	4	86	per	lib	low	mod	low	nt	cr	nh/0615_nh.bmp
220.32	0.72	297	2	2	86	per	lib	low	mod	low	tg	ms	wh/0312.bmp
221.04	0.72	298	2	1	28	per	lib	mod	mod	mod	tg	ms	wh/0901.bmp
221.76	0.72	299	1	3	43	mem	con	mod	mod	low	nt	ms	nh/1000_nh.bmp
222.48	0.72	300	1	3	80	per	con	mod	low	mod	nt	cr	nh/0214_nh.bmp
223.20	0.72	301	3	2	112	mem	con	mod	mod	mod	tg	ht	wh/0562.bmp
223.92	0.72	302	3	4	38	per	con	mod	mod	mod	nt	cr	nh/0344_nh.bmp
224.64	0.72	303	2	2	40	per	con	low	mod	low	tg	ms	wh/0124.bmp
225.36	0.72	304	4	1	25	per	lib	mod	mod	mod	nt	cr	nh/0576_nh.bmp
226.08	0.72	305	2	3	59	per	lib	mod	mod	mod	nt	cr	nh/0490_nh.bmp
226.80	0.72	306	1	1	58	mem	con	mod	mod	low	tg	ht	wh/0496.bmp
227.52	0.72	307	1	3	75	per	con	mod	low	mod	tg	ms	wh/0192.bmp
228.24	0.72	308	2	2	82	per	lib	low	mod	low	tg	ms	wh/0444.bmp
228.96	0.72	309	4	1	20	per	lib	mod	mod	mod	nt	cr	nh/1010_nh.bmp
229.68	0.72	310	4	4	72	mem	con	mod	mod	mod	nt	ms	nh/0427_nh.bmp
230.40	0.72	311	1	3	39	mem	con	mod	mod	low	tg	ms	wh/0454.bmp
231.12	0.72	312	3	1	12	per	con	mod	mod	mod	tg	ms	wh/0104.bmp
231.84	0.72	313	2	3	36	mem	con	mod	mod	low	tg	ms	wh/0132.bmp
232.56	0.72	314	3	4	81	per	lib	low	mod	low	nt	fa	nh/0798_nh.bmp
233.28	0.72	315	2	4	63	mem	lib	mod	mod	low	tg	ht	wh/0166.bmp
234.00	0.72	316	2	4	68	mem	con	mod	mod	mod	tg	ms	wh/0604.bmp
234.72	0.72	317	3	3	59	per	lib	mod	mod	mod	nt	cr	nh/0490_nh.bmp
235.44	0.72	318	3	3	48	mem	con	mod	mod	low	nt	ms	nh/0195_nh.bmp
236.16	0.72	319	3	3	41	mem	con	mod	mod	low	nt	ht	nh/0283_nh.bmp
236.88	0.72	320	4	4	38	per	con	mod	mod	mod	nt	cr	nh/0344_nh.bmp
237.60	0.72	321	4	2	102	mem	con	mod	mod	mod	tg	ms	wh/0333.bmp
238.32	0.72	322	3	1	6	per	con	mod	mod	mod	tg	ht	wh/0413.bmp
239.04	0.72	323	1	4	24	per	con	low	mod	low	nt	cr	nh/0757_nh.bmp
239.76	0.72	324	1	1	51	mem	con	mod	mod	low	nt	ms	nh/0672_nh.bmp
240.48	0.72	325	5	2	38	per	con	low	mod	low	tg	ht	wh/0988.bmp
241.20	0.72	326	5	2	102	mem	con	mod	mod	mod	tg	ms	wh/0333.bmp
241.92	0.72	327	3	1	13	per	con	mod	mod	mod	tg	ht	wh/0761.bmp
242.64	0.72	328	4	4	70	mem	con	mod	mod	mod	nt	ms	nh/0061_nh.bmp
243.36	0.72	329	3	4	63	mem	lib	mod	mod	low	tg	ht	wh/0166.bmp
244.08	0.72	330	3	1	40	mem	lib	mod	mod	low	tg	ht	wh/0459.bmp
244.80	0.72	331	3	1	24	per	lib	mod	mod	mod	tg	ht	wh/0320.bmp
245.52	0.72	332	1	3	128	per	lib	low	low	low	tg	ht	wh/0026.bmp
246.24	0.72	333	4	2	69	mem	lib	mod	mod	mod	nt	ht	nh/0925_nh.bmp
246.96	0.72	334	3	3	94	mem	lib	mod	mod	mod	nt	ht	nh/0479_nh.bmp
247.68	0.72	335	1	3	97	mem	con	low	low	mod	nt	ms	nh/0667_nh.bmp
248.40	0.72	336	2	3	56	per	lib	mod	mod	mod	tg	ht	wh/0151.bmp
249.12	0.72	337	4	1	45	mem	lib	mod	mod	low	tg	ht	wh/0263.bmp
249.84	0.72	338	3	1	28	per	lib	mod	mod	mod	tg	ms	wh/0901.bmp
250.56	0.72	339	1	4	112	mem	lib	low	low	mod	nt	ht	nh/0498_nh.bmp
251.28	0.72	340	4	4	46	per	con	mod	mod	mod	tg	ht	wh/0477.bmp
252.00	0.72	341	4	4	81	per	lib	low	mod	low	nt	fa	nh/0798_nh.bmp
252.72	0.72	342	1	3	32	mem	lib	low	low	low	tg	ms	wh/0314.bmp
253.44	0.72	343	1	3	22	mem	lib	low	low	low	nt	ht	nh/0819_nh.bmp
254.16	0.72	344	1	2	115	mem	lib	low	low	low	nt	ht	nh/0078_nh.bmp
254.88	0.72	345	2	2	46	per	con	low	mod	low	nt	cr	nh/0323_nh.bmp
255.60	0.72	346	4	1	12	per	con	mod	mod	mod	tg	ms	wh/0104.bmp
256.32	0.72	347	2	2	107	mem	con	mod	mod	mod	nt	ms	nh/0331_nh.bmp
257.04	0.72	348	2	4	89	per	lib	low	mod	low	tg	ht	wh/0291.bmp
257.76	0.72	349	2	2	96	per	lib	low	mod	low	nt	fa	nh/0791_nh.bmp
258.48	0.72	350	1	1	53	mem	con	mod	mod	low	tg	ms	wh/0212.bmp
259.20	0.72	351	1	2	74	mem	lib	mod	mod	mod	tg	ms	wh/0137.bmp
259.92	0.72	352	1	3	38	mem	con	mod	mod	low	tg	ms	wh/0641.bmp
260.64	0.72	353	5	4	72	mem	con	mod	mod	mod	nt	ms	nh/0427_nh.bmp
261.36	0.72	354	3	2	107	mem	con	mod	mod	mod	nt	ms	nh/0331_nh.bmp
262.08	0.72	355	3	3	36	mem	con	mod	mod	low	tg	ms	wh/0132.bmp
262.80	0.72	356	3	3	86	mem	lib	mod	mod	mod	nt	ht	nh/0689_nh.bmp
263.52	0.72	357	3	2	98	mem	con	mod	mod	mod	nt	ms	nh/0359_nh.bmp
264.24	0.72	358	5	2	69	mem	lib	mod	mod	mod	nt	ht	nh/0925_nh.bmp
264.96	0.72	359	1	4	83	per	lib	low	mod	low	tg	ht	wh/0390.bmp
265.68	0.72	360	2	4	22	per	con	low	mod	low	tg	ms	wh/0512.bmp
266.40	0.72	361	5	4	70	mem	con	mod	mod	mod	nt	ms	nh/0061_nh.bmp
267.12	0.72	362	3	2	40	per	con	low	mod	low	tg	ms	wh/0124.bmp
267.84	0.72	363	2	4	74	mem	con	mod	mod	mod	nt	ms	nh/0072_nh.bmp
268.56	0.72	364	1	1	3	per	con	mod	mod	mod	nt	cr	nh/0348_nh.bmp
269.28	0.72	365	1	2	114	mem	lib	low	low	low	tg	ht	wh/0989.bmp
270.00	0.72	366	1	3	71	per	con	mod	low	mod	nt	cr	nh/0894_nh.bmp
270.72	0.72	367	3	4	22	per	con	low	mod	low	tg	ms	wh/0512.bmp
271.44	0.72	368	1	2	11	per	con	mod	low	mod	nt	cr	nh/0813_nh.bmp
272.16	0.72	369	2	3	44	mem	con	mod	mod	low	nt	ht	nh/0400_nh.bmp
272.88	0.72	370	2	2	74	mem	lib	mod	mod	mod	tg	ms	wh/0137.bmp
273.60	0.72	371	4	2	112	mem	con	mod	mod	mod	tg	ht	wh/0562.bmp
274.32	0.72	372	3	2	74	mem	lib	mod	mod	mod	tg	ms	wh/0137.bmp
275.04	0.72	373	1	4	9	per	lib	mod	low	mod	tg	ht	wh/0620.bmp
275.76	0.72	374	5	4	80	mem	con	mod	mod	mod	tg	ms	wh/0931.bmp
276.48	0.72	375	2	1	60	mem	con	mod	mod	low	nt	ht	nh/0259_nh.bmp
277.20	0.72	376	4	4	67	mem	con	mod	mod	mod	tg	ms	wh/0049.bmp
277.92	0.72	377	1	4	127	mem	con	low	low	low	tg	ms	wh/0127.bmp
278.64	0.72	378	3	4	60	mem	lib	mod	mod	low	tg	ht	wh/0246.bmp
279.36	0.72	379	5	4	46	per	con	mod	mod	mod	tg	ht	wh/0477.bmp
280.08	0.72	380	4	4	60	mem	lib	mod	mod	low	tg	ht	wh/0246.bmp
280.80	0.72	381	3	4	23	per	con	low	mod	low	tg	ms	wh/0792.bmp
281.52	0.72	382	1	4	66	mem	con	mod	mod	mod	nt	ms	nh/0943_nh.bmp
282.24	0.72	383	3	1	60	mem	con	mod	mod	low	nt	ht	nh/0259_nh.bmp
282.96	0.72	384	1	3	28	mem	lib	low	low	low	nt	ht	nh/0243_nh.bmp
283.68	0.72	385	1	4	93	per	lib	low	mod	low	tg	ms	wh/0523.bmp
284.40	0.72	386	4	2	98	mem	con	mod	mod	mod	nt	ms	nh/0359_nh.bmp
285.12	0.72	387	1	1	110	mem	lib	low	low	mod	tg	ms	wh/0033.bmp
285.84	0.72	388	1	1	72	per	con	low	low	low	nt	cr	nh/0369_nh.bmp
286.56	0.72	389	3	3	49	per	lib	mod	mod	mod	nt	fa	nh/0753_nh.bmp
287.28	0.72	390	4	3	41	mem	con	mod	mod	low	nt	ht	nh/0283_nh.bmp
288.00	0.72	391	3	4	29	per	con	low	mod	low	nt	cr	nh/0067_nh.bmp
288.72	0.72	392	1	2	8	per	con	mod	low	mod	tg	ms	wh/0208.bmp
289.44	0.72	393	2	2	67	mem	lib	mod	mod	mod	tg	ms	wh/0796.bmp
290.16	0.72	394	3	2	86	per	lib	low	mod	low	tg	ms	wh/0312.bmp
290.88	0.72	395	3	4	42	per	con	mod	mod	mod	nt	cr	nh/0759_nh.bmp
291.60	0.72	396	2	4	24	per	con	low	mod	low	nt	cr	nh/0757_nh.bmp
292.32	0.72	397	2	1	51	mem	con	mod	mod	low	nt	ms	nh/0672_nh.bmp
293.04	0.72	398	1	3	73	per	con	mod	low	mod	tg	ms	wh/0004.bmp
293.76	0.72	399	4	1	60	mem	con	mod	mod	low	nt	ht	nh/0259_nh.bmp
294.48	0.72	400	3	4	25	per	con	low	mod	low	tg	ms	wh/0683.bmp
295.20	0.72	401	5	1	60	mem	con	mod	mod	low	nt	ht	nh/0259_nh.bmp
295.92	0.72	402	2	3	62	per	lib	mod	mod	mod	nt	fa	nh/0282_nh.bmp
296.64	0.72	403	3	3	93	mem	lib	mod	mod	mod	tg	ht	wh/0448.bmp
297.36	0.72	404	2	3	91	mem	lib	mod	mod	mod	nt	ht	nh/0806_nh.bmp
298.08	0.72	405	6	1	60	mem	con	mod	mod	low	nt	ht	nh/0259_nh.bmp
298.80	0.72	406	1	4	113	mem	con	low	low	low	nt	ms	nh/0430_nh.bmp
299.52	0.72	407	3	3	44	mem	con	mod	mod	low	nt	ht	nh/0400_nh.bmp
300.24	0.72	408	2	3	38	mem	con	mod	mod	low	tg	ms	wh/0641.bmp
300.96	0.72	409	3	1	46	mem	lib	mod	mod	low	tg	ms	wh/0412.bmp
301.68	0.72	410	1	1	83	mem	con	low	low	low	tg	n/a	wh/0471.bmp
302.40	0.72	411	3	4	89	per	lib	low	mod	low	tg	ht	wh/0291.bmp
303.12	0.72	412	5	2	98	mem	con	mod	mod	mod	nt	ms	nh/0359_nh.bmp
303.84	0.72	413	1	1	108	mem	lib	low	low	mod	tg	ht	wh/0003.bmp
304.56	0.72	414	1	2	111	mem	con	mod	mod	mod	nt	ht	nh/0097_nh.bmp
305.28	0.72	415	4	3	94	mem	lib	mod	mod	mod	nt	ht	nh/0479_nh.bmp
306.00	0.72	416	1	1	120	per	lib	low	low	low	nt	fa	nh/0504_nh.bmp
306.72	0.72	417	3	2	33	per	con	low	mod	low	tg	ms	wh/0661.bmp
307.44	0.72	418	2	2	37	per	con	low	mod	low	nt	cr	nh/0386_nh.bmp
308.16	0.72	419	3	2	37	per	con	low	mod	low	nt	cr	nh/0386_nh.bmp
308.88	0.72	420	2	1	3	per	con	mod	mod	mod	nt	cr	nh/0348_nh.bmp
309.60	0.72	421	4	4	53	mem	lib	mod	mod	low	tg	ht	wh/0410.bmp
310.32	0.72	422	4	1	24	per	lib	mod	mod	mod	tg	ht	wh/0320.bmp
311.04	0.72	423	3	4	32	per	con	low	mod	low	nt	fa	nh/0643_nh.bmp
311.76	0.72	424	5	4	67	mem	con	mod	mod	mod	tg	ms	wh/0049.bmp
312.48	0.72	425	3	3	64	per	lib	mod	mod	mod	tg	ht	wh/0538.bmp
313.20	0.72	426	2	3	82	mem	lib	mod	mod	mod	tg	ht	wh/0664.bmp
313.92	0.72	427	3	4	94	per	lib	low	mod	low	nt	cr	nh/0424_nh.bmp
314.64	0.72	428	3	3	62	per	lib	mod	mod	mod	nt	fa	nh/0282_nh.bmp
315.36	0.72	429	4	3	55	per	lib	mod	mod	mod	nt	fa	nh/0445_nh.bmp
316.08	0.72	430	3	2	71	mem	lib	mod	mod	mod	tg	ms	wh/0738.bmp
316.80	0.72	431	5	1	1	per	con	mod	mod	mod	nt	cr	nh/0674_nh.bmp
317.52	0.72	432	1	4	2	per	lib	mod	low	mod	tg	ht	wh/0969.bmp
318.24	0.72	433	4	3	44	mem	con	mod	mod	low	nt	ht	nh/0400_nh.bmp
318.96	0.72	434	2	1	35	mem	lib	mod	mod	low	nt	ht	nh/0765_nh.bmp
319.68	0.72	435	3	2	46	per	con	low	mod	low	nt	cr	nh/0323_nh.bmp
320.40	0.72	436	1	1	124	per	lib	low	low	low	nt	fa	nh/0828_nh.bmp
321.12	0.72	437	4	2	46	per	con	low	mod	low	nt	cr	nh/0323_nh.bmp
321.84	0.72	438	4	4	45	per	con	mod	mod	mod	tg	ms	wh/0861.bmp
322.56	0.72	439	3	2	65	mem	lib	mod	mod	mod	nt	ms	nh/0279_nh.bmp
323.28	0.72	440	2	3	39	mem	con	mod	mod	low	tg	ms	wh/0454.bmp
324.00	0.72	441	4	2	45	per	con	low	mod	low	nt	cr	nh/0368_nh.bmp
324.72	0.72	442	1	2	49	mem	con	low	low	mod	nt	ms	nh/0517_nh.bmp
325.44	0.72	443	5	4	60	mem	lib	mod	mod	low	tg	ht	wh/0246.bmp
326.16	0.72	444	3	1	35	mem	lib	mod	mod	low	nt	ht	nh/0765_nh.bmp
326.88	0.72	445	4	4	73	mem	con	mod	mod	mod	tg	ms	wh/0365.bmp
327.60	0.72	446	2	4	93	per	lib	low	mod	low	tg	ms	wh/0523.bmp
328.32	0.72	447	4	3	92	mem	lib	mod	mod	mod	nt	ht	nh/0592_nh.bmp
329.04	0.72	448	3	1	33	mem	lib	mod	mod	low	tg	ht	wh/0293.bmp
329.76	0.72	449	2	4	34	per	con	mod	mod	mod	tg	ms	wh/0809.bmp
330.48	0.72	450	5	1	12	per	con	mod	mod	mod	tg	ms	wh/0104.bmp
331.20	0.72	451	4	3	61	per	lib	mod	mod	mod	tg	ht	wh/0343.bmp
331.92	0.72	452	3	1	14	per	con	mod	mod	mod	nt	cr	nh/0970_nh.bmp
332.64	0.72	453	2	1	43	mem	lib	mod	mod	low	nt	ht	nh/0554_nh.bmp
333.36	0.72	454	4	1	13	per	con	mod	mod	mod	tg	ht	wh/0761.bmp
334.08	0.72	455	2	1	38	mem	lib	mod	mod	low	nt	ht	nh/0914_nh.bmp
334.80	0.72	456	4	2	37	per	con	low	mod	low	nt	cr	nh/0386_nh.bmp
335.52	0.72	457	3	3	56	per	lib	mod	mod	mod	tg	ht	wh/0151.bmp
336.24	0.72	458	3	2	96	per	lib	low	mod	low	nt	fa	nh/0791_nh.bmp
336.96	0.72	459	3	4	62	mem	lib	mod	mod	low	nt	ht	nh/0081_nh.bmp
337.68	0.72	460	2	1	21	per	lib	mod	mod	mod	tg	ht	wh/0071.bmp
338.40	0.72	461	4	3	84	mem	lib	mod	mod	mod	tg	ht	wh/0229.bmp
339.12	0.72	462	3	3	38	mem	con	mod	mod	low	tg	ms	wh/0641.bmp
339.84	0.72	463	2	4	66	mem	con	mod	mod	mod	nt	ms	nh/0943_nh.bmp
340.56	0.72	464	4	3	64	per	lib	mod	mod	mod	tg	ht	wh/0538.bmp
341.28	0.72	465	4	1	35	mem	lib	mod	mod	low	nt	ht	nh/0765_nh.bmp
342.00	0.72	466	2	3	57	per	lib	mod	mod	mod	tg	ht	wh/0705.bmp
342.72	0.72	467	3	2	99	mem	con	mod	mod	mod	tg	ms	wh/0799.bmp
343.44	0.72	468	4	3	59	per	lib	mod	mod	mod	nt	cr	nh/0490_nh.bmp
344.16	0.72	469	1	2	88	per	lib	low	mod	low	nt	fa	nh/0007_nh.bmp
344.88	0.72	470	4	1	14	per	con	mod	mod	mod	nt	cr	nh/0970_nh.bmp
345.60	0.72	471	1	3	105	mem	con	low	low	mod	tg	ms	wh/0606.bmp
346.32	0.72	472	2	1	15	per	con	mod	mod	mod	nt	cr	nh/0583_nh.bmp
347.04	0.72	473	3	2	87	per	lib	low	mod	low	tg	ht	wh/0295.bmp
347.76	0.72	474	3	4	40	per	con	mod	mod	mod	tg	ht	wh/0039.bmp
348.48	0.72	475	4	2	87	per	lib	low	mod	low	tg	ht	wh/0295.bmp
349.20	0.72	476	4	2	85	per	lib	low	mod	low	nt	fa	nh/1013_nh.bmp
349.92	0.72	477	1	2	30	per	lib	mod	low	mod	tg	ht	wh/0547.bmp
350.64	0.72	478	1	1	85	mem	con	low	low	low	nt	ms	nh/0911_nh.bmp
351.36	0.72	479	1	1	81	mem	con	low	low	low	nt	n/a	nh/0375_nh.bmp
352.08	0.72	480	4	3	93	mem	lib	mod	mod	mod	tg	ht	wh/0448.bmp
352.80	0.72	481	3	2	67	mem	lib	mod	mod	mod	tg	ms	wh/0796.bmp
353.52	0.72	482	4	4	62	mem	lib	mod	mod	low	nt	ht	nh/0081_nh.bmp
354.24	0.72	483	4	4	89	per	lib	low	mod	low	tg	ht	wh/0291.bmp
354.96	0.72	484	2	1	53	mem	con	mod	mod	low	tg	ms	wh/0212.bmp
355.68	0.72	485	4	4	84	per	lib	low	mod	low	tg	ht	wh/0131.bmp
356.40	0.72	486	4	3	62	per	lib	mod	mod	mod	nt	fa	nh/0282_nh.bmp
357.12	0.72	487	3	1	53	mem	con	mod	mod	low	tg	ms	wh/0212.bmp
357.84	0.72	488	4	2	83	per	lib	low	mod	low	nt	fa	nh/0494_nh.bmp
358.56	0.72	489	4	4	29	per	con	low	mod	low	nt	cr	nh/0067_nh.bmp
359.28	0.72	490	3	4	93	per	lib	low	mod	low	tg	ms	wh/0523.bmp
360.00	0.72	491	1	3	107	mem	con	low	low	mod	tg	ms	wh/0346.bmp
360.72	0.72	492	2	4	86	per	lib	low	mod	low	nt	cr	nh/0615_nh.bmp
361.44	0.72	493	3	2	34	per	con	low	mod	low	nt	cr	nh/0203_nh.bmp
362.16	0.72	494	4	1	19	per	lib	mod	mod	mod	nt	cr	nh/1006_nh.bmp
362.88	0.72	495	5	4	89	per	lib	low	mod	low	tg	ht	wh/0291.bmp
363.60	0.72	496	2	4	83	per	lib	low	mod	low	tg	ht	wh/0390.bmp
364.32	0.72	497	6	4	67	mem	con	mod	mod	mod	tg	ms	wh/0049.bmp
365.04	0.72	498	5	3	92	mem	lib	mod	mod	mod	nt	ht	nh/0592_nh.bmp
365.76	0.72	499	4	1	62	mem	con	mod	mod	low	tg	ms	wh/0302.bmp
366.48	0.72	500	4	3	38	mem	con	mod	mod	low	tg	ms	wh/0641.bmp
367.20	0.72	501	4	4	63	mem	lib	mod	mod	low	tg	ht	wh/0166.bmp
367.92	0.72	502	4	4	42	per	con	mod	mod	mod	nt	cr	nh/0759_nh.bmp
368.64	0.72	503	3	2	82	per	lib	low	mod	low	tg	ms	wh/0444.bmp
369.36	0.72	504	4	3	56	per	lib	mod	mod	mod	tg	ht	wh/0151.bmp
370.08	0.72	505	3	1	29	per	lib	mod	mod	mod	tg	ht	wh/0742.bmp
370.80	0.72	506	4	4	92	per	lib	low	mod	low	nt	fa	nh/0236_nh.bmp
371.52	0.72	507	3	4	74	mem	con	mod	mod	mod	nt	ms	nh/0072_nh.bmp
372.24	0.72	508	4	2	67	mem	lib	mod	mod	mod	tg	ms	wh/0796.bmp
372.96	0.72	509	5	2	83	per	lib	low	mod	low	nt	fa	nh/0494_nh.bmp
373.68	0.72	510	1	2	1	per	con	mod	low	mod	tg	ht	wh/0467.bmp
374.40	0.72	511	4	4	49	mem	lib	mod	mod	low	tg	ht	wh/0030.bmp
375.12	0.72	512	5	1	62	mem	con	mod	mod	low	tg	ms	wh/0302.bmp
375.84	0.72	513	2	1	58	mem	con	mod	mod	low	tg	ht	wh/0496.bmp
376.56	0.72	514	5	4	45	per	con	mod	mod	mod	tg	ms	wh/0861.bmp
377.28	0.72	515	4	2	86	per	lib	low	mod	low	tg	ms	wh/0312.bmp
378.00	0.72	516	4	2	65	mem	lib	mod	mod	mod	nt	ms	nh/0279_nh.bmp
378.72	0.72	517	4	1	28	per	lib	mod	mod	mod	tg	ms	wh/0901.bmp
379.44	0.72	518	4	2	82	per	lib	low	mod	low	tg	ms	wh/0444.bmp
380.16	0.72	519	5	2	78	mem	lib	mod	mod	mod	nt	ht	nh/0645_nh.bmp
380.88	0.72	520	4	4	40	per	con	mod	mod	mod	tg	ht	wh/0039.bmp
381.60	0.72	521	5	3	41	mem	con	mod	mod	low	nt	ht	nh/0283_nh.bmp
382.32	0.72	522	3	1	58	mem	con	mod	mod	low	tg	ht	wh/0496.bmp
383.04	0.72	523	1	4	117	mem	con	low	low	low	tg	ht	wh/0607.bmp
383.76	0.72	524	4	4	25	per	con	low	mod	low	tg	ms	wh/0683.bmp
384.48	0.72	525	2	4	64	mem	lib	mod	mod	low	nt	ht	nh/0315_nh.bmp
385.20	0.72	526	4	2	34	per	con	low	mod	low	nt	cr	nh/0203_nh.bmp
385.92	0.72	527	3	4	52	mem	lib	mod	mod	low	nt	ht	nh/0575_nh.bmp
386.64	0.72	528	5	2	45	per	con	low	mod	low	nt	cr	nh/0368_nh.bmp
387.36	0.72	529	2	1	61	mem	con	mod	mod	low	nt	ht	nh/0422_nh.bmp
388.08	0.72	530	5	1	45	mem	lib	mod	mod	low	tg	ht	wh/0263.bmp
388.80	0.72	531	6	3	41	mem	con	mod	mod	low	nt	ht	nh/0283_nh.bmp
389.52	0.72	532	1	2	123	mem	lib	low	low	low	nt	ht	nh/0160_nh.bmp
390.24	0.72	533	1	4	16	per	lib	mod	low	mod	tg	ht	wh/0457.bmp
390.96	0.72	534	2	2	88	per	lib	low	mod	low	nt	fa	nh/0007_nh.bmp
391.68	0.72	535	3	4	24	per	con	low	mod	low	nt	cr	nh/0757_nh.bmp
392.40	0.72	536	5	4	40	per	con	mod	mod	mod	tg	ht	wh/0039.bmp
393.12	0.72	537	4	3	49	per	lib	mod	mod	mod	nt	fa	nh/0753_nh.bmp
393.84	0.72	538	2	3	43	mem	con	mod	mod	low	nt	ms	nh/1000_nh.bmp
394.56	0.72	539	4	1	29	per	lib	mod	mod	mod	tg	ht	wh/0742.bmp
395.28	0.72	540	5	1	20	per	lib	mod	mod	mod	nt	cr	nh/1010_nh.bmp
396.00	0.72	541	5	1	19	per	lib	mod	mod	mod	nt	cr	nh/1006_nh.bmp
396.72	0.72	542	1	2	24	per	lib	mod	low	mod	tg	ht	wh/0944.bmp
397.44	0.72	543	3	3	39	mem	con	mod	mod	low	tg	ms	wh/0454.bmp
398.16	0.72	544	4	4	93	per	lib	low	mod	low	tg	ms	wh/0523.bmp
398.88	0.72	545	5	1	14	per	con	mod	mod	mod	nt	cr	nh/0970_nh.bmp
399.60	0.72	546	5	1	13	per	con	mod	mod	mod	tg	ht	wh/0761.bmp
400.32	0.72	547	6	1	1	per	con	mod	mod	mod	nt	cr	nh/0674_nh.bmp
401.04	0.72	548	3	3	43	mem	con	mod	mod	low	nt	ms	nh/1000_nh.bmp
401.76	0.72	549	6	1	20	per	lib	mod	mod	mod	nt	cr	nh/1010_nh.bmp
402.48	0.72	550	5	3	64	per	lib	mod	mod	mod	tg	ht	wh/0538.bmp
403.20	0.72	551	4	3	43	mem	con	mod	mod	low	nt	ms	nh/1000_nh.bmp
403.92	0.72	552	5	4	29	per	con	low	mod	low	nt	cr	nh/0067_nh.bmp
404.64	0.72	553	4	2	96	per	lib	low	mod	low	nt	fa	nh/0791_nh.bmp
405.36	0.72	554	5	2	46	per	con	low	mod	low	nt	cr	nh/0323_nh.bmp
406.08	0.72	555	3	1	61	mem	con	mod	mod	low	nt	ht	nh/0422_nh.bmp
406.80	0.72	556	5	3	49	per	lib	mod	mod	mod	nt	fa	nh/0753_nh.bmp
407.52	0.72	557	4	3	39	mem	con	mod	mod	low	tg	ms	wh/0454.bmp
408.24	0.72	558	4	1	58	mem	con	mod	mod	low	tg	ht	wh/0496.bmp
408.96	0.72	559	4	2	33	per	con	low	mod	low	tg	ms	wh/0661.bmp
409.68	0.72	560	4	2	99	mem	con	mod	mod	mod	tg	ms	wh/0799.bmp
410.40	0.72	561	4	2	73	mem	lib	mod	mod	mod	nt	ht	nh/0665_nh.bmp
411.12	0.72	562	4	4	52	mem	lib	mod	mod	low	nt	ht	nh/0575_nh.bmp
411.84	0.72	563	3	3	91	mem	lib	mod	mod	mod	nt	ht	nh/0806_nh.bmp
412.56	0.72	564	6	2	102	mem	con	mod	mod	mod	tg	ms	wh/0333.bmp
413.28	0.72	565	6	4	70	mem	con	mod	mod	mod	nt	ms	nh/0061_nh.bmp
414.00	0.72	566	3	1	21	per	lib	mod	mod	mod	tg	ht	wh/0071.bmp
414.72	0.72	567	5	4	42	per	con	mod	mod	mod	nt	cr	nh/0759_nh.bmp
415.44	0.72	568	5	1	28	per	lib	mod	mod	mod	tg	ms	wh/0901.bmp
416.16	0.72	569	4	1	26	per	lib	mod	mod	mod	nt	cr	nh/0487_nh.bmp
416.88	0.72	570	4	2	94	per	lib	low	mod	low	tg	ms	wh/0415.bmp
417.60	0.72	571	5	3	43	mem	con	mod	mod	low	nt	ms	nh/1000_nh.bmp
418.32	0.72	572	5	4	38	per	con	mod	mod	mod	nt	cr	nh/0344_nh.bmp
419.04	0.72	573	3	4	47	per	con	mod	mod	mod	nt	cr	nh/0834_nh.bmp
419.76	0.72	574	6	2	45	per	con	low	mod	low	nt	cr	nh/0368_nh.bmp
420.48	0.72	575	4	1	53	mem	con	mod	mod	low	tg	ms	wh/0212.bmp
421.20	0.72	576	3	4	19	per	con	low	mod	low	nt	cr	nh/0174_nh.bmp
421.92	0.72	577	3	2	68	mem	lib	mod	mod	mod	tg	ms	wh/0961.bmp
422.64	0.72	578	3	1	51	mem	con	mod	mod	low	nt	ms	nh/0672_nh.bmp
423.36	0.72	579	1	1	103	mem	lib	low	low	mod	nt	ms	nh/0754_nh.bmp
424.08	0.72	580	5	3	44	mem	con	mod	mod	low	nt	ht	nh/0400_nh.bmp
424.80	0.72	581	3	4	44	per	con	mod	mod	mod	nt	cr	nh/0358_nh.bmp
425.52	0.72	582	3	1	38	mem	lib	mod	mod	low	nt	ht	nh/0914_nh.bmp
426.24	0.72	583	1	3	121	per	lib	low	low	low	nt	cr	nh/0713_nh.bmp
426.96	0.72	584	3	4	64	mem	lib	mod	mod	low	nt	ht	nh/0315_nh.bmp
427.68	0.72	585	5	1	53	mem	con	mod	mod	low	tg	ms	wh/0212.bmp
428.40	0.72	586	4	1	61	mem	con	mod	mod	low	nt	ht	nh/0422_nh.bmp
429.12	0.72	587	1	2	22	per	lib	mod	low	mod	tg	ht	wh/0991.bmp
429.84	0.72	588	5	4	81	per	lib	low	mod	low	nt	fa	nh/0798_nh.bmp
430.56	0.72	589	4	4	19	per	con	low	mod	low	nt	cr	nh/0174_nh.bmp
431.28	0.72	590	3	1	37	mem	lib	mod	mod	low	nt	ht	nh/0438_nh.bmp
432.00	0.72	591	4	4	24	per	con	low	mod	low	nt	cr	nh/0757_nh.bmp
432.72	0.72	592	6	2	98	mem	con	mod	mod	mod	nt	ms	nh/0359_nh.bmp
433.44	0.72	593	4	1	33	mem	lib	mod	mod	low	tg	ht	wh/0293.bmp
434.16	0.72	594	4	1	38	mem	lib	mod	mod	low	nt	ht	nh/0914_nh.bmp
434.88	0.72	595	6	3	44	mem	con	mod	mod	low	nt	ht	nh/0400_nh.bmp
435.60	0.72	596	1	3	12	per	con	low	low	low	nt	cr	nh/0271_nh.bmp
436.32	0.72	597	1	2	54	mem	con	low	low	mod	nt	ms	nh/0917_nh.bmp
437.04	0.72	598	1	1	100	mem	lib	low	low	mod	nt	ms	nh/0567_nh.bmp
437.76	0.72	599	5	1	35	mem	lib	mod	mod	low	nt	ht	nh/0765_nh.bmp
438.48	0.72	600	1	1	73	per	con	low	low	low	nt	cr	nh/0167_nh.bmp
439.20	0.72	601	5	1	58	mem	con	mod	mod	low	tg	ht	wh/0496.bmp
439.92	0.72	602	5	2	94	per	lib	low	mod	low	tg	ms	wh/0415.bmp
440.64	0.72	603	4	4	47	per	con	mod	mod	mod	nt	cr	nh/0834_nh.bmp
441.36	0.72	604	6	1	13	per	con	mod	mod	mod	tg	ht	wh/0761.bmp
442.08	0.72	605	5	2	86	per	lib	low	mod	low	tg	ms	wh/0312.bmp
442.80	0.72	606	3	4	68	mem	con	mod	mod	mod	tg	ms	wh/0604.bmp
443.52	0.72	607	3	4	86	per	lib	low	mod	low	nt	cr	nh/0615_nh.bmp
444.24	0.72	608	2	2	111	mem	con	mod	mod	mod	nt	ht	nh/0097_nh.bmp
444.96	0.72	609	5	1	38	mem	lib	mod	mod	low	nt	ht	nh/0914_nh.bmp
445.68	0.72	610	6	1	38	mem	lib	mod	mod	low	nt	ht	nh/0914_nh.bmp
446.40	0.72	611	6	2	86	per	lib	low	mod	low	tg	ms	wh/0312.bmp
447.12	0.72	612	1	3	66	per	con	mod	low	mod	tg	ht	wh/0230.bmp
447.84	0.72	613	3	1	52	mem	con	mod	mod	low	nt	ms	nh/0671_nh.bmp
448.56	0.72	614	4	2	106	mem	con	mod	mod	mod	nt	ms	nh/0313_nh.bmp
449.28	0.72	615	5	4	62	mem	lib	mod	mod	low	nt	ht	nh/0081_nh.bmp
450.00	0.72	616	3	4	83	per	lib	low	mod	low	tg	ht	wh/0390.bmp
450.72	0.72	617	4	2	74	mem	lib	mod	mod	mod	tg	ms	wh/0137.bmp
451.44	0.72	618	5	3	93	mem	lib	mod	mod	mod	tg	ht	wh/0448.bmp
452.16	0.72	619	1	3	4	per	con	low	low	low	nt	cr	nh/0021_nh.bmp
452.88	0.72	620	6	1	28	per	lib	mod	mod	mod	tg	ms	wh/0901.bmp
453.60	0.72	621	5	4	84	per	lib	low	mod	low	tg	ht	wh/0131.bmp
454.32	0.72	622	1	4	120	mem	con	low	low	low	nt	ms	nh/0720_nh.bmp
455.04	0.72	623	5	4	49	mem	lib	mod	mod	low	tg	ht	wh/0030.bmp
455.76	0.72	624	2	1	11	per	con	mod	mod	mod	tg	ms	wh/0983.bmp
456.48	0.72	625	3	3	57	per	lib	mod	mod	mod	tg	ht	wh/0705.bmp
457.20	0.72	626	5	1	24	per	lib	mod	mod	mod	tg	ht	wh/0320.bmp
457.92	0.72	627	5	4	52	mem	lib	mod	mod	low	nt	ht	nh/0575_nh.bmp
458.64	0.72	628	4	4	22	per	con	low	mod	low	tg	ms	wh/0512.bmp
459.36	0.72	629	4	1	6	per	con	mod	mod	mod	tg	ht	wh/0413.bmp
460.08	0.72	630	5	2	99	mem	con	mod	mod	mod	tg	ms	wh/0799.bmp
460.80	0.72	631	1	3	117	per	lib	low	low	low	tg	ms	wh/0877.bmp
461.52	0.72	632	5	4	19	per	con	low	mod	low	nt	cr	nh/0174_nh.bmp
462.24	0.72	633	5	4	47	per	con	mod	mod	mod	nt	cr	nh/0834_nh.bmp
462.96	0.72	634	1	1	67	per	con	low	low	low	nt	cr	nh/0010_nh.bmp
463.68	0.72	635	5	3	39	mem	con	mod	mod	low	tg	ms	wh/0454.bmp
464.40	0.72	636	1	1	87	mem	con	low	low	low	tg	n/a	wh/0011.bmp
465.12	0.72	637	1	3	8	per	con	low	low	low	tg	ms	wh/0484.bmp
465.84	0.72	638	5	4	53	mem	lib	mod	mod	low	tg	ht	wh/0410.bmp
466.56	0.72	639	5	2	85	per	lib	low	mod	low	nt	fa	nh/1013_nh.bmp
467.28	0.72	640	4	4	23	per	con	low	mod	low	tg	ms	wh/0792.bmp
468.00	0.72	641	6	1	12	per	con	mod	mod	mod	tg	ms	wh/0104.bmp
468.72	0.72	642	4	4	94	per	lib	low	mod	low	nt	cr	nh/0424_nh.bmp
469.44	0.72	643	3	3	82	mem	lib	mod	mod	mod	tg	ht	wh/0664.bmp
470.16	0.72	644	5	3	62	per	lib	mod	mod	mod	nt	fa	nh/0282_nh.bmp
470.88	0.72	645	6	2	85	per	lib	low	mod	low	nt	fa	nh/1013_nh.bmp
471.60	0.72	646	5	4	24	per	con	low	mod	low	nt	cr	nh/0757_nh.bmp
472.32	0.72	647	6	1	19	per	lib	mod	mod	mod	nt	cr	nh/1006_nh.bmp
473.04	0.72	648	4	1	52	mem	con	mod	mod	low	nt	ms	nh/0671_nh.bmp
473.76	0.72	649	5	1	26	per	lib	mod	mod	mod	nt	cr	nh/0487_nh.bmp
474.48	0.72	650	4	1	21	per	lib	mod	mod	mod	tg	ht	wh/0071.bmp
475.20	0.72	651	3	1	43	mem	lib	mod	mod	low	nt	ht	nh/0554_nh.bmp
475.92	0.72	652	6	1	58	mem	con	mod	mod	low	tg	ht	wh/0496.bmp
476.64	0.72	653	5	2	74	mem	lib	mod	mod	mod	tg	ms	wh/0137.bmp
477.36	0.72	654	4	1	51	mem	con	mod	mod	low	nt	ms	nh/0672_nh.bmp
478.08	0.72	655	4	1	43	mem	lib	mod	mod	low	nt	ht	nh/0554_nh.bmp
478.80	0.72	656	4	3	91	mem	lib	mod	mod	mod	nt	ht	nh/0806_nh.bmp
479.52	0.72	657	5	3	55	per	lib	mod	mod	mod	nt	fa	nh/0445_nh.bmp
480.24	0.72	658	5	1	21	per	lib	mod	mod	mod	tg	ht	wh/0071.bmp
480.96	0.72	659	1	3	111	mem	con	low	low	mod	tg	ms	wh/0557.bmp
481.68	0.72	660	1	3	98	mem	con	low	low	mod	nt	ms	nh/1020_nh.bmp
482.40	0.72	661	5	2	65	mem	lib	mod	mod	mod	nt	ms	nh/0279_nh.bmp
483.12	0.72	662	4	3	48	mem	con	mod	mod	low	nt	ms	nh/0195_nh.bmp
483.84	0.72	663	4	3	87	mem	lib	mod	mod	mod	tg	ht	wh/0895.bmp
484.56	0.72	664	5	3	91	mem	lib	mod	mod	mod	nt	ht	nh/0806_nh.bmp
485.28	0.72	665	1	4	108	mem	lib	low	low	mod	tg	ht	wh/0937.bmp
486.00	0.72	666	3	1	15	per	con	mod	mod	mod	nt	cr	nh/0583_nh.bmp
486.72	0.72	667	5	2	106	mem	con	mod	mod	mod	nt	ms	nh/0313_nh.bmp
487.44	0.72	668	5	3	33	mem	con	mod	mod	low	tg	ms	wh/0703.bmp
488.16	0.72	669	1	2	52	mem	con	low	low	mod	nt	ms	nh/0773_nh.bmp
488.88	0.72	670	3	1	3	per	con	mod	mod	mod	nt	cr	nh/0348_nh.bmp
489.60	0.72	671	5	4	23	per	con	low	mod	low	tg	ms	wh/0792.bmp
490.32	0.72	672	5	2	73	mem	lib	mod	mod	mod	nt	ht	nh/0665_nh.bmp
491.04	0.72	673	5	4	92	per	lib	low	mod	low	nt	fa	nh/0236_nh.bmp
491.76	0.72	674	4	3	57	per	lib	mod	mod	mod	tg	ht	wh/0705.bmp
492.48	0.72	675	4	2	68	mem	lib	mod	mod	mod	tg	ms	wh/0961.bmp
493.20	0.72	676	5	3	61	per	lib	mod	mod	mod	tg	ht	wh/0343.bmp
493.92	0.72	677	6	2	78	mem	lib	mod	mod	mod	nt	ht	nh/0645_nh.bmp
494.64	0.72	678	3	1	11	per	con	mod	mod	mod	tg	ms	wh/0983.bmp
495.36	0.72	679	1	4	12	per	lib	mod	low	mod	nt	cr	nh/0085_nh.bmp
496.08	0.72	680	5	1	29	per	lib	mod	mod	mod	tg	ht	wh/0742.bmp
496.80	0.72	681	6	3	39	mem	con	mod	mod	low	tg	ms	wh/0454.bmp
497.52	0.72	682	5	1	33	mem	lib	mod	mod	low	tg	ht	wh/0293.bmp
498.24	0.72	683	5	2	112	mem	con	mod	mod	mod	tg	ht	wh/0562.bmp
498.96	0.72	684	3	2	111	mem	con	mod	mod	mod	nt	ht	nh/0097_nh.bmp
499.68	0.72	685	6	4	40	per	con	mod	mod	mod	tg	ht	wh/0039.bmp
500.40	0.72	686	4	4	86	per	lib	low	mod	low	nt	cr	nh/0615_nh.bmp
501.12	0.72	687	1	3	69	per	con	mod	low	mod	nt	cr	nh/0304_nh.bmp
501.84	0.72	688	6	4	81	per	lib	low	mod	low	nt	fa	nh/0798_nh.bmp
502.56	0.72	689	4	1	37	mem	lib	mod	mod	low	nt	ht	nh/0438_nh.bmp
503.28	0.72	690	4	4	32	per	con	low	mod	low	nt	fa	nh/0643_nh.bmp
504.00	0.72	691	5	1	57	mem	con	mod	mod	low	tg	ms	wh/0882.bmp
504.72	0.72	692	6	3	33	mem	con	mod	mod	low	tg	ms	wh/0703.bmp
505.44	0.72	693	5	2	82	per	lib	low	mod	low	tg	ms	wh/0444.bmp
506.16	0.72	694	4	2	104	mem	con	mod	mod	mod	tg	ms	wh/0628.bmp
506.88	0.72	695	4	1	3	per	con	mod	mod	mod	nt	cr	nh/0348_nh.bmp
507.60	0.72	696	5	4	94	per	lib	low	mod	low	nt	cr	nh/0424_nh.bmp
508.32	0.72	697	4	2	71	mem	lib	mod	mod	mod	tg	ms	wh/0738.bmp
509.04	0.72	698	4	1	40	mem	lib	mod	mod	low	tg	ht	wh/0459.bmp
509.76	0.72	699	1	3	77	per	con	mod	low	mod	tg	ht	wh/0707.bmp
510.48	0.72	700	6	4	52	mem	lib	mod	mod	low	nt	ht	nh/0575_nh.bmp
511.20	0.72	701	4	3	36	mem	con	mod	mod	low	tg	ms	wh/0132.bmp
511.92	0.72	702	1	3	24	mem	lib	low	low	low	nt	ht	nh/0743_nh.bmp
512.64	0.72	703	5	1	6	per	con	mod	mod	mod	tg	ht	wh/0413.bmp
513.36	0.72	704	6	1	14	per	con	mod	mod	mod	nt	cr	nh/0970_nh.bmp
514.08	0.72	705	5	4	25	per	con	low	mod	low	tg	ms	wh/0683.bmp
514.80	0.72	706	5	2	68	mem	lib	mod	mod	mod	tg	ms	wh/0961.bmp
515.52	0.72	707	4	1	46	mem	lib	mod	mod	low	tg	ms	wh/0412.bmp
516.24	0.72	708	5	3	36	mem	con	mod	mod	low	tg	ms	wh/0132.bmp
516.96	0.72	709	6	4	94	per	lib	low	mod	low	nt	cr	nh/0424_nh.bmp
517.68	0.72	710	5	2	34	per	con	low	mod	low	nt	cr	nh/0203_nh.bmp
518.40	0.72	711	4	4	64	mem	lib	mod	mod	low	nt	ht	nh/0315_nh.bmp
519.12	0.72	712	4	4	74	mem	con	mod	mod	mod	nt	ms	nh/0072_nh.bmp
519.84	0.72	713	5	1	52	mem	con	mod	mod	low	nt	ms	nh/0671_nh.bmp
520.56	0.72	714	6	4	47	per	con	mod	mod	mod	nt	cr	nh/0834_nh.bmp
521.28	0.72	715	4	2	107	mem	con	mod	mod	mod	nt	ms	nh/0331_nh.bmp
522.00	0.72	716	4	4	83	per	lib	low	mod	low	tg	ht	wh/0390.bmp
522.72	0.72	717	1	3	19	mem	lib	low	low	low	tg	ht	wh/0356.bmp
523.44	0.72	718	5	3	94	mem	lib	mod	mod	mod	nt	ht	nh/0479_nh.bmp
524.16	0.72	719	1	4	122	mem	con	low	low	low	tg	ms	wh/0492.bmp
524.88	0.72	720	4	1	15	per	con	mod	mod	mod	nt	cr	nh/0583_nh.bmp
525.60	0.72	721	5	1	37	mem	lib	mod	mod	low	nt	ht	nh/0438_nh.bmp
526.32	0.72	722	5	2	71	mem	lib	mod	mod	mod	tg	ms	wh/0738.bmp
527.04	0.72	723	6	4	38	per	con	mod	mod	mod	nt	cr	nh/0344_nh.bmp
527.76	0.72	724	5	1	43	mem	lib	mod	mod	low	nt	ht	nh/0554_nh.bmp
528.48	0.72	725	6	1	24	per	lib	mod	mod	mod	tg	ht	wh/0320.bmp
529.20	0.72	726	5	4	64	mem	lib	mod	mod	low	nt	ht	nh/0315_nh.bmp
529.92	0.72	727	6	1	26	per	lib	mod	mod	mod	nt	cr	nh/0487_nh.bmp
530.64	0.72	728	6	2	73	mem	lib	mod	mod	mod	nt	ht	nh/0665_nh.bmp
531.36	0.72	729	5	2	96	per	lib	low	mod	low	nt	fa	nh/0791_nh.bmp
532.08	0.72	730	6	1	37	mem	lib	mod	mod	low	nt	ht	nh/0438_nh.bmp
532.80	0.72	731	5	3	57	per	lib	mod	mod	mod	tg	ht	wh/0705.bmp
533.52	0.72	732	1	3	11	per	con	low	low	low	nt	cr	nh/0310_nh.bmp
534.24	0.72	733	6	3	64	per	lib	mod	mod	mod	tg	ht	wh/0538.bmp
534.96	0.72	734	4	3	86	mem	lib	mod	mod	mod	nt	ht	nh/0689_nh.bmp
535.68	0.72	735	1	1	69	per	con	low	low	low	tg	ms	wh/0335.bmp
536.40	0.72	736	3	2	88	per	lib	low	mod	low	nt	fa	nh/0007_nh.bmp
537.12	0.72	737	6	4	45	per	con	mod	mod	mod	tg	ms	wh/0861.bmp
537.84	0.72	738	6	2	96	per	lib	low	mod	low	nt	fa	nh/0791_nh.bmp
538.56	0.72	739	5	3	84	mem	lib	mod	mod	mod	tg	ht	wh/0229.bmp
539.28	0.72	740	1	4	97	mem	lib	low	low	mod	nt	ht	nh/0595_nh.bmp
540.00	0.72	741	6	2	41	per	con	low	mod	low	tg	ms	wh/0511.bmp
540.72	0.72	742	6	2	106	mem	con	mod	mod	mod	nt	ms	nh/0313_nh.bmp
541.44	0.72	743	3	4	66	mem	con	mod	mod	mod	nt	ms	nh/0943_nh.bmp
542.16	0.72	744	5	4	86	per	lib	low	mod	low	nt	cr	nh/0615_nh.bmp
542.88	0.72	745	1	3	27	mem	lib	low	low	low	nt	ht	nh/0276_nh.bmp
543.60	0.72	746	6	2	69	mem	lib	mod	mod	mod	nt	ht	nh/0925_nh.bmp
544.32	0.72	747	6	4	80	mem	con	mod	mod	mod	tg	ms	wh/0931.bmp
545.04	0.72	748	5	4	63	mem	lib	mod	mod	low	tg	ht	wh/0166.bmp
545.76	0.72	749	6	1	57	mem	con	mod	mod	low	tg	ms	wh/0882.bmp
546.48	0.72	750	5	1	40	mem	lib	mod	mod	low	tg	ht	wh/0459.bmp
547.20	0.72	751	5	4	32	per	con	low	mod	low	nt	fa	nh/0643_nh.bmp
547.92	0.72	752	6	2	46	per	con	low	mod	low	nt	cr	nh/0323_nh.bmp
548.64	0.72	753	6	4	59	mem	lib	mod	mod	low	nt	n/a	nh/0509_nh.bmp
549.36	0.72	754	6	4	89	per	lib	low	mod	low	tg	ht	wh/0291.bmp
550.08	0.72	755	6	4	32	per	con	low	mod	low	nt	fa	nh/0643_nh.bmp
550.80	0.72	756	6	3	62	per	lib	mod	mod	mod	nt	fa	nh/0282_nh.bmp
551.52	0.72	757	5	2	67	mem	lib	mod	mod	mod	tg	ms	wh/0796.bmp
552.24	0.72	758	5	1	25	per	lib	mod	mod	mod	nt	cr	nh/0576_nh.bmp
552.96	0.72	759	5	2	87	per	lib	low	mod	low	tg	ht	wh/0295.bmp
553.68	0.72	760	6	2	87	per	lib	low	mod	low	tg	ht	wh/0295.bmp
554.40	0.72	761	6	2	112	mem	con	mod	mod	mod	tg	ht	wh/0562.bmp
555.12	0.72	762	6	4	53	mem	lib	mod	mod	low	tg	ht	wh/0410.bmp
555.84	0.72	763	4	2	88	per	lib	low	mod	low	nt	fa	nh/0007_nh.bmp
556.56	0.72	764	3	4	34	per	con	mod	mod	mod	tg	ms	wh/0809.bmp
557.28	0.72	765	1	4	5	per	lib	mod	low	mod	nt	fa	nh/0474_nh.bmp
558.00	0.72	766	6	3	92	mem	lib	mod	mod	mod	nt	ht	nh/0592_nh.bmp
558.72	0.72	767	5	1	46	mem	lib	mod	mod	low	tg	ms	wh/0412.bmp
559.44	0.72	768	6	1	62	mem	con	mod	mod	low	tg	ms	wh/0302.bmp
560.16	0.72	769	5	1	61	mem	con	mod	mod	low	nt	ht	nh/0422_nh.bmp
560.88	0.72	770	5	2	104	mem	con	mod	mod	mod	tg	ms	wh/0628.bmp
561.60	0.72	771	6	2	74	mem	lib	mod	mod	mod	tg	ms	wh/0137.bmp
562.32	0.72	772	4	4	68	mem	con	mod	mod	mod	tg	ms	wh/0604.bmp
563.04	0.72	773	6	4	86	per	lib	low	mod	low	nt	cr	nh/0615_nh.bmp
563.76	0.72	774	4	1	11	per	con	mod	mod	mod	tg	ms	wh/0983.bmp
564.48	0.72	775	5	1	15	per	con	mod	mod	mod	nt	cr	nh/0583_nh.bmp
565.20	0.72	776	6	4	19	per	con	low	mod	low	nt	cr	nh/0174_nh.bmp
565.92	0.72	777	6	4	72	mem	con	mod	mod	mod	nt	ms	nh/0427_nh.bmp
566.64	0.72	778	5	3	38	mem	con	mod	mod	low	tg	ms	wh/0641.bmp
567.36	0.72	779	6	2	82	per	lib	low	mod	low	tg	ms	wh/0444.bmp
568.08	0.72	780	1	1	92	mem	con	low	low	low	tg	ht	wh/0987.bmp
568.80	0.72	781	4	4	34	per	con	mod	mod	mod	tg	ms	wh/0809.bmp
569.52	0.72	782	5	4	22	per	con	low	mod	low	tg	ms	wh/0512.bmp
570.24	0.72	783	4	4	66	mem	con	mod	mod	mod	nt	ms	nh/0943_nh.bmp
570.96	0.72	784	6	3	61	per	lib	mod	mod	mod	tg	ht	wh/0343.bmp
571.68	0.72	785	5	2	33	per	con	low	mod	low	tg	ms	wh/0661.bmp
572.40	0.72	786	5	4	73	mem	con	mod	mod	mod	tg	ms	wh/0365.bmp
573.12	0.72	787	5	4	34	per	con	mod	mod	mod	tg	ms	wh/0809.bmp
573.84	0.72	788	1	2	16	per	con	mod	low	mod	nt	cr	nh/0050_nh.bmp
574.56	0.72	789	5	2	37	per	con	low	mod	low	nt	cr	nh/0386_nh.bmp
575.28	0.72	790	6	4	73	mem	con	mod	mod	mod	tg	ms	wh/0365.bmp
576.00	0.72	791	4	4	44	per	con	mod	mod	mod	nt	cr	nh/0358_nh.bmp
576.72	0.72	792	6	1	46	mem	lib	mod	mod	low	tg	ms	wh/0412.bmp
577.44	0.72	793	4	4	20	per	con	low	mod	low	tg	ms	wh/0976.bmp
578.16	0.72	794	4	3	82	mem	lib	mod	mod	mod	tg	ht	wh/0664.bmp
578.88	0.72	795	6	3	84	mem	lib	mod	mod	mod	tg	ht	wh/0229.bmp
579.60	0.72	796	6	3	57	per	lib	mod	mod	mod	tg	ht	wh/0705.bmp
580.32	0.72	797	5	1	51	mem	con	mod	mod	low	nt	ms	nh/0672_nh.bmp
581.04	0.72	798	5	4	68	mem	con	mod	mod	mod	tg	ms	wh/0604.bmp
581.76	0.72	799	6	4	92	per	lib	low	mod	low	nt	fa	nh/0236_nh.bmp
582.48	0.72	800	4	2	111	mem	con	mod	mod	mod	nt	ht	nh/0097_nh.bmp
583.20	0.72	801	1	3	103	mem	con	low	low	mod	nt	ms	nh/0670_nh.bmp
583.92	0.72	802	5	1	3	per	con	mod	mod	mod	nt	cr	nh/0348_nh.bmp
584.64	0.72	803	5	4	74	mem	con	mod	mod	mod	nt	ms	nh/0072_nh.bmp
585.36	0.72	804	5	2	111	mem	con	mod	mod	mod	nt	ht	nh/0097_nh.bmp
586.08	0.72	805	6	2	104	mem	con	mod	mod	mod	tg	ms	wh/0628.bmp
586.80	0.72	806	5	3	56	per	lib	mod	mod	mod	tg	ht	wh/0151.bmp
587.52	0.72	807	4	2	40	per	con	low	mod	low	tg	ms	wh/0124.bmp
588.24	0.72	808	6	3	38	mem	con	mod	mod	low	tg	ms	wh/0641.bmp
588.96	0.72	809	6	4	74	mem	con	mod	mod	mod	nt	ms	nh/0072_nh.bmp
589.68	0.72	810	6	2	38	per	con	low	mod	low	tg	ht	wh/0988.bmp
590.40	0.72	811	5	2	40	per	con	low	mod	low	tg	ms	wh/0124.bmp
591.12	0.72	812	5	2	107	mem	con	mod	mod	mod	nt	ms	nh/0331_nh.bmp
591.84	0.72	813	5	4	83	per	lib	low	mod	low	tg	ht	wh/0390.bmp
592.56	0.72	814	6	2	107	mem	con	mod	mod	mod	nt	ms	nh/0331_nh.bmp
593.28	0.72	815	6	3	55	per	lib	mod	mod	mod	nt	fa	nh/0445_nh.bmp
594.00	0.72	816	6	2	68	mem	lib	mod	mod	mod	tg	ms	wh/0961.bmp
594.72	0.72	817	6	1	33	mem	lib	mod	mod	low	tg	ht	wh/0293.bmp
595.44	0.72	818	6	2	33	per	con	low	mod	low	tg	ms	wh/0661.bmp
596.16	0.72	819	6	1	6	per	con	mod	mod	mod	tg	ht	wh/0413.bmp
596.88	0.72	820	6	2	83	per	lib	low	mod	low	nt	fa	nh/0494_nh.bmp
597.60	0.72	821	1	4	6	per	lib	mod	low	mod	nt	fa	nh/0201_nh.bmp
598.32	0.72	822	6	1	51	mem	con	mod	mod	low	nt	ms	nh/0672_nh.bmp
599.04	0.72	823	6	4	22	per	con	low	mod	low	tg	ms	wh/0512.bmp
599.76	0.72	824	6	2	99	mem	con	mod	mod	mod	tg	ms	wh/0799.bmp
600.48	0.72	825	6	1	43	mem	lib	mod	mod	low	nt	ht	nh/0554_nh.bmp
601.20	0.72	826	1	2	4	per	con	mod	low	mod	tg	ht	wh/0470.bmp
601.92	0.72	827	6	4	24	per	con	low	mod	low	nt	cr	nh/0757_nh.bmp
602.64	0.72	828	6	4	60	mem	lib	mod	mod	low	tg	ht	wh/0246.bmp
603.36	0.72	829	1	3	7	per	con	low	low	low	tg	ms	wh/0565.bmp
604.08	0.72	830	6	1	52	mem	con	mod	mod	low	nt	ms	nh/0671_nh.bmp
604.80	0.72	831	6	1	3	per	con	mod	mod	mod	nt	cr	nh/0348_nh.bmp
605.52	0.72	832	6	2	111	mem	con	mod	mod	mod	nt	ht	nh/0097_nh.bmp
606.24	0.72	833	6	1	29	per	lib	mod	mod	mod	tg	ht	wh/0742.bmp
606.96	0.72	834	6	1	61	mem	con	mod	mod	low	nt	ht	nh/0422_nh.bmp
607.68	0.72	835	5	4	93	per	lib	low	mod	low	tg	ms	wh/0523.bmp
608.40	0.72	836	6	4	63	mem	lib	mod	mod	low	tg	ht	wh/0166.bmp
609.12	0.72	837	6	2	67	mem	lib	mod	mod	mod	tg	ms	wh/0796.bmp
609.84	0.72	838	5	4	20	per	con	low	mod	low	tg	ms	wh/0976.bmp
610.56	0.72	839	5	3	82	mem	lib	mod	mod	mod	tg	ht	wh/0664.bmp
611.28	0.72	840	1	1	66	per	con	low	low	low	nt	cr	nh/0161_nh.bmp
612.00	0.72	841	6	4	62	mem	lib	mod	mod	low	nt	ht	nh/0081_nh.bmp
612.72	0.72	842	6	4	64	mem	lib	mod	mod	low	nt	ht	nh/0315_nh.bmp
613.44	0.72	843	5	3	48	mem	con	mod	mod	low	nt	ms	nh/0195_nh.bmp
614.16	0.72	844	6	4	42	per	con	mod	mod	mod	nt	cr	nh/0759_nh.bmp
614.88	0.72	845	6	3	49	per	lib	mod	mod	mod	nt	fa	nh/0753_nh.bmp
615.60	0.72	846	6	3	82	mem	lib	mod	mod	mod	tg	ht	wh/0664.bmp
616.32	0.72	847	6	4	83	per	lib	low	mod	low	tg	ht	wh/0390.bmp
617.04	0.72	848	6	4	23	per	con	low	mod	low	tg	ms	wh/0792.bmp
617.76	0.72	849	6	3	93	mem	lib	mod	mod	mod	tg	ht	wh/0448.bmp
618.48	0.72	850	6	3	94	mem	lib	mod	mod	mod	nt	ht	nh/0479_nh.bmp
619.20	0.72	851	6	4	20	per	con	low	mod	low	tg	ms	wh/0976.bmp
619.92	0.72	852	6	1	21	per	lib	mod	mod	mod	tg	ht	wh/0071.bmp
620.64	0.72	853	6	1	40	mem	lib	mod	mod	low	tg	ht	wh/0459.bmp
621.36	0.72	854	6	1	25	per	lib	mod	mod	mod	nt	cr	nh/0576_nh.bmp
622.08	0.72	855	6	2	65	mem	lib	mod	mod	mod	nt	ms	nh/0279_nh.bmp
622.80	0.72	856	5	1	11	per	con	mod	mod	mod	tg	ms	wh/0983.bmp
623.52	0.72	857	6	2	94	per	lib	low	mod	low	tg	ms	wh/0415.bmp
624.24	0.72	858	5	3	86	mem	lib	mod	mod	mod	nt	ht	nh/0689_nh.bmp
624.96	0.72	859	1	2	51	mem	con	low	low	mod	tg	ms	wh/0854.bmp
625.68	0.72	860	6	3	36	mem	con	mod	mod	low	tg	ms	wh/0132.bmp
626.40	0.72	861	6	2	71	mem	lib	mod	mod	mod	tg	ms	wh/0738.bmp
627.12	0.72	862	6	3	43	mem	con	mod	mod	low	nt	ms	nh/1000_nh.bmp
627.84	0.72	863	1	4	119	mem	con	low	low	low	nt	ms	nh/0130_nh.bmp
628.56	0.72	864	6	4	49	mem	lib	mod	mod	low	tg	ht	wh/0030.bmp
629.28	0.72	865	5	3	59	per	lib	mod	mod	mod	nt	cr	nh/0490_nh.bmp
630.00	0.72	866	6	4	29	per	con	low	mod	low	nt	cr	nh/0067_nh.bmp
630.72	0.72	867	1	1	102	mem	lib	low	low	mod	nt	ms	nh/0891_nh.bmp
631.44	0.72	868	1	3	122	per	lib	low	low	low	nt	fa	nh/0500_nh.bmp
632.16	0.72	869	6	4	25	per	con	low	mod	low	tg	ms	wh/0683.bmp
632.88	0.72	870	6	4	34	per	con	mod	mod	mod	tg	ms	wh/0809.bmp
633.60	0.72	871	6	4	46	per	con	mod	mod	mod	tg	ht	wh/0477.bmp
634.32	0.72	872	5	3	87	mem	lib	mod	mod	mod	tg	ht	wh/0895.bmp
635.04	0.72	873	6	2	40	per	con	low	mod	low	tg	ms	wh/0124.bmp
635.76	0.72	874	5	2	88	per	lib	low	mod	low	nt	fa	nh/0007_nh.bmp
636.48	0.72	875	6	1	53	mem	con	mod	mod	low	tg	ms	wh/0212.bmp
637.20	0.72	876	5	4	44	per	con	mod	mod	mod	nt	cr	nh/0358_nh.bmp
637.92	0.72	877	6	3	48	mem	con	mod	mod	low	nt	ms	nh/0195_nh.bmp
638.64	0.72	878	6	3	87	mem	lib	mod	mod	mod	tg	ht	wh/0895.bmp
639.36	0.72	879	6	4	93	per	lib	low	mod	low	tg	ms	wh/0523.bmp
640.08	0.72	880	6	3	56	per	lib	mod	mod	mod	tg	ht	wh/0151.bmp
640.80	0.72	881	6	4	44	per	con	mod	mod	mod	nt	cr	nh/0358_nh.bmp
641.52	0.72	882	6	3	91	mem	lib	mod	mod	mod	nt	ht	nh/0806_nh.bmp
642.24	0.72	883	6	3	86	mem	lib	mod	mod	mod	nt	ht	nh/0689_nh.bmp
642.96	0.72	884	6	1	35	mem	lib	mod	mod	low	nt	ht	nh/0765_nh.bmp
643.68	0.72	885	6	4	68	mem	con	mod	mod	mod	tg	ms	wh/0604.bmp
644.40	0.72	886	6	4	84	per	lib	low	mod	low	tg	ht	wh/0131.bmp
645.12	0.72	887	1	2	6	per	con	mod	low	mod	tg	ms	wh/0913.bmp
645.84	0.72	888	6	2	34	per	con	low	mod	low	nt	cr	nh/0203_nh.bmp
646.56	0.72	889	5	4	66	mem	con	mod	mod	mod	nt	ms	nh/0943_nh.bmp
647.28	0.72	890	6	2	88	per	lib	low	mod	low	nt	fa	nh/0007_nh.bmp
648.00	0.72	891	6	1	11	per	con	mod	mod	mod	tg	ms	wh/0983.bmp
648.72	0.72	892	6	1	45	mem	lib	mod	mod	low	tg	ht	wh/0263.bmp
649.44	0.72	893	6	4	66	mem	con	mod	mod	mod	nt	ms	nh/0943_nh.bmp
650.16	0.72	894	6	3	59	per	lib	mod	mod	mod	nt	cr	nh/0490_nh.bmp
650.88	0.72	895	6	2	37	per	con	low	mod	low	nt	cr	nh/0386_nh.bmp
651.60	0.72	896	6	1	15	per	con	mod	mod	mod	nt	cr	nh/0583_nh.bmp
