onset	duration	trial	pres	ts_blk	ts_trl	task	crit	disc	mem_disc	per_disc	per_type	accuracy	stim_file
7.20	0.72	1	1	2	32	mem	con	mod	mod	mod	nt	ms	nh/0604_nh.bmp
7.92	0.72	2	1	1	55	per	lib	low	mod	low	nt	cr	nh/0291_nh.bmp
8.64	0.72	3	1	1	58	per	lib	low	mod	low	tg	ht	wh/0798.bmp
9.36	0.72	4	1	4	47	mem	lib	mod	mod	mod	tg	ht	wh/0645.bmp
10.08	0.72	5	1	2	89	per	con	low	mod	low	tg	ms	wh/0643.bmp
10.80	0.72	6	1	1	22	per	lib	mod	low	mod	nt	cr	nh/0457_nh.bmp
11.52	0.72	7	1	2	93	per	con	low	mod	low	nt	cr	nh/0512_nh.bmp
12.24	0.72	8	1	1	100	mem	con	mod	mod	low	tg	ht	wh/0400.bmp
12.96	0.72	9	1	4	22	per	lib	mod	low	mod	nt	fa	nh/0991_nh.bmp
13.68	0.72	10	1	4	9	per	con	mod	mod	mod	nt	cr	nh/0413_nh.bmp
14.40	0.72	11	1	4	62	mem	con	mod	mod	low	tg	ms	wh/0671.bmp
15.12	0.72	12	1	2	128	per	con	mod	mod	mod	tg	ms	wh/0759.bmp
15.84	0.72	13	1	4	100	per	con	low	mod	low	nt	cr	nh/0511_nh.bmp
16.56	0.72	14	1	3	92	per	lib	mod	mod	mod	tg	ht	wh/0487.bmp
17.28	0.72	15	1	3	94	per	lib	mod	mod	mod	nt	fa	nh/0320_nh.bmp
18.00	0.72	16	1	2	41	mem	lib	mod	mod	mod	nt	ht	nh/0229_nh.bmp
18.72	0.72	17	1	2	58	per	lib	mod	mod	mod	tg	ht	wh/0753.bmp
19.44	0.72	18	1	2	29	mem	con	mod	mod	mod	nt	ms	nh/0931_nh.bmp
20.16	0.72	19	1	4	103	per	con	low	mod	low	tg	ms	wh/0323.bmp
20.88	0.72	20	1	4	6	per	con	mod	mod	mod	nt	cr	nh/0983_nh.bmp
21.60	0.72	21	1	1	102	mem	con	mod	mod	low	tg	ms	wh/0195.bmp
22.32	0.72	22	1	2	62	per	lib	mod	mod	mod	nt	cr	nh/0705_nh.bmp
23.04	0.72	23	1	2	113	per	con	mod	mod	mod	nt	cr	nh/0477_nh.bmp
23.76	0.72	24	1	3	77	mem	lib	mod	mod	low	nt	ht	nh/0293_nh.bmp
24.48	0.72	25	1	4	72	mem	lib	low	low	low	tg	ht	wh/0535.bmp
25.20	0.72	26	1	2	37	mem	lib	mod	mod	mod	tg	ht	wh/0689.bmp
25.92	0.72	27	1	4	51	mem	con	mod	mod	low	nt	ht	nh/0302_nh.bmp
26.64	0.72	28	1	4	125	mem	con	low	low	mod	tg	ms	wh/0773.bmp
27.36	0.72	29	1	2	96	per	con	low	mod	low	nt	cr	nh/0976_nh.bmp
28.08	0.72	30	2	4	9	per	con	mod	mod	mod	nt	cr	nh/0413_nh.bmp
28.80	0.72	31	1	1	38	per	con	mod	low	mod	nt	cr	nh/0192_nh.bmp
29.52	0.72	32	2	1	55	per	lib	low	mod	low	nt	cr	nh/0291_nh.bmp
30.24	0.72	33	1	3	54	mem	con	mod	mod	mod	nt	ms	nh/0333_nh.bmp
30.96	0.72	34	1	3	4	mem	lib	low	low	mod	nt	ms	nh/0033_nh.bmp
31.68	0.72	35	1	2	66	mem	con	low	low	low	tg	ms	wh/0720.bmp
32.40	0.72	36	1	2	30	mem	con	mod	mod	mod	tg	ms	wh/0061.bmp
33.12	0.72	37	1	2	40	mem	lib	mod	mod	mod	tg	ht	wh/0806.bmp
33.84	0.72	38	1	1	1	per	con	low	low	low	nt	cr	nh/0565_nh.bmp
34.56	0.72	39	1	1	96	mem	lib	mod	mod	low	nt	ht	nh/0246_nh.bmp
35.28	0.72	40	1	4	91	per	lib	low	mod	low	tg	ht	wh/0494.bmp
36.00	0.72	41	1	3	53	mem	con	mod	mod	mod	tg	ht	wh/0359.bmp
36.72	0.72	42	1	3	70	mem	lib	mod	mod	low	tg	ht	wh/0765.bmp
37.44	0.72	43	3	1	55	per	lib	low	mod	low	nt	cr	nh/0291_nh.bmp
38.16	0.72	44	1	4	82	per	lib	low	mod	low	tg	ms	wh/0007.bmp
38.88	0.72	45	1	1	54	per	lib	low	mod	low	tg	ht	wh/0424.bmp
39.60	0.72	46	1	1	113	mem	lib	low	low	low	tg	ht	wh/0743.bmp
40.32	0.72	47	1	2	86	per	con	low	mod	low	tg	ms	wh/0757.bmp
41.04	0.72	48	1	1	85	mem	lib	mod	mod	low	nt	ht	nh/0166_nh.bmp
41.76	0.72	49	1	2	33	mem	lib	mod	mod	mod	tg	ht	wh/0592.bmp
42.48	0.72	50	1	1	107	mem	con	mod	mod	low	nt	ht	nh/0641_nh.bmp
43.20	0.72	51	1	2	119	per	con	mod	mod	mod	tg	ht	wh/0834.bmp
43.92	0.72	52	1	4	61	mem	con	mod	mod	low	nt	ms	nh/0882_nh.bmp
44.64	0.72	53	1	4	69	mem	lib	low	low	low	nt	ht	nh/0169_nh.bmp
45.36	0.72	54	1	2	50	per	lib	mod	mod	mod	nt	fa	nh/0151_nh.bmp
46.08	0.72	55	1	4	99	per	con	low	mod	low	nt	cr	nh/0124_nh.bmp
46.80	0.72	56	1	1	90	mem	lib	mod	mod	low	tg	ht	wh/0575.bmp
47.52	0.72	57	1	3	61	mem	con	mod	mod	mod	nt	ht	nh/0562_nh.bmp
48.24	0.72	58	1	3	81	per	lib	mod	mod	mod	nt	cr	nh/0901_nh.bmp
48.96	0.72	59	2	2	40	mem	lib	mod	mod	mod	tg	ht	wh/0806.bmp
49.68	0.72	60	1	4	98	per	con	low	mod	low	nt	cr	nh/0661_nh.bmp
50.40	0.72	61	1	3	18	per	con	low	low	low	tg	ms	wh/0167.bmp
51.12	0.72	62	1	2	115	per	con	mod	mod	mod	tg	ht	wh/0358.bmp
51.84	0.72	63	2	2	37	mem	lib	mod	mod	mod	tg	ht	wh/0689.bmp
52.56	0.72	64	1	4	12	per	con	mod	mod	mod	nt	cr	nh/0104_nh.bmp
53.28	0.72	65	1	1	39	per	con	mod	low	mod	tg	ms	wh/0214.bmp
54.00	0.72	66	1	3	100	mem	con	low	low	low	nt	ms	nh/0011_nh.bmp
54.72	0.72	67	1	4	65	mem	lib	low	low	low	tg	ht	wh/0078.bmp
55.44	0.72	68	1	2	49	per	lib	mod	mod	mod	tg	ht	wh/0282.bmp
56.16	0.72	69	1	3	60	mem	con	mod	mod	mod	tg	ht	wh/0097.bmp
56.88	0.72	70	1	4	42	mem	lib	mod	mod	mod	nt	ht	nh/0137_nh.bmp
57.60	0.72	71	1	4	67	mem	lib	low	low	low	nt	ht	nh/0357_nh.bmp
58.32	0.72	72	1	1	104	mem	con	mod	mod	low	nt	ht	nh/0703_nh.bmp
59.04	0.72	73	1	4	3	per	con	mod	mod	mod	tg	ms	wh/0970.bmp
59.76	0.72	74	1	1	124	mem	lib	low	low	low	tg	ms	wh/0819.bmp
60.48	0.72	75	1	4	13	per	con	mod	mod	mod	tg	ms	wh/0348.bmp
61.20	0.72	76	1	3	15	mem	lib	low	low	mod	tg	ht	wh/0567.bmp
61.92	0.72	77	1	4	34	mem	lib	mod	mod	mod	tg	ht	wh/0279.bmp
62.64	0.72	78	1	1	105	mem	con	mod	mod	low	nt	ht	nh/0132_nh.bmp
63.36	0.72	79	1	4	1	per	con	mod	mod	mod	tg	ht	wh/0674.bmp
64.08	0.72	80	1	2	18	mem	con	mod	mod	mod	tg	ms	wh/0072.bmp
64.80	0.72	81	1	2	35	mem	lib	mod	mod	mod	tg	ht	wh/0479.bmp
65.52	0.72	82	1	3	72	mem	lib	mod	mod	low	tg	ht	wh/0554.bmp
66.24	0.72	83	1	4	33	mem	lib	mod	mod	mod	nt	ht	nh/0738_nh.bmp
66.96	0.72	84	1	1	52	per	lib	low	mod	low	nt	fa	nh/0131_nh.bmp
67.68	0.72	85	1	1	116	mem	lib	low	low	low	nt	ht	nh/0356_nh.bmp
68.40	0.72	86	2	1	54	per	lib	low	mod	low	tg	ht	wh/0424.bmp
69.12	0.72	87	1	4	106	per	con	low	mod	low	tg	ms	wh/0203.bmp
69.84	0.72	88	1	1	92	mem	lib	mod	mod	low	tg	ht	wh/0509.bmp
70.56	0.72	89	2	2	62	per	lib	mod	mod	mod	nt	cr	nh/0705_nh.bmp
71.28	0.72	90	2	3	53	mem	con	mod	mod	mod	tg	ht	wh/0359.bmp
72.00	0.72	91	2	1	107	mem	con	mod	mod	low	nt	ht	nh/0641_nh.bmp
72.72	0.72	92	2	2	32	mem	con	mod	mod	mod	nt	ms	nh/0604_nh.bmp
73.44	0.72	93	2	4	33	mem	lib	mod	mod	mod	nt	ht	nh/0738_nh.bmp
74.16	0.72	94	2	3	70	mem	lib	mod	mod	low	tg	ht	wh/0765.bmp
74.88	0.72	95	2	4	1	per	con	mod	mod	mod	tg	ht	wh/0674.bmp
75.60	0.72	96	1	2	78	mem	con	low	low	low	nt	ht	nh/0808_nh.bmp
76.32	0.72	97	1	2	38	mem	lib	mod	mod	mod	nt	ht	nh/0895_nh.bmp
77.04	0.72	98	2	1	90	mem	lib	mod	mod	low	tg	ht	wh/0575.bmp
77.76	0.72	99	2	2	119	per	con	mod	mod	mod	tg	ht	wh/0834.bmp
78.48	0.72	100	1	3	69	mem	lib	mod	mod	low	tg	ht	wh/0914.bmp
79.20	0.72	101	1	1	50	per	lib	low	mod	low	nt	cr	nh/0523_nh.bmp
79.92	0.72	102	1	2	61	per	lib	mod	mod	mod	tg	ht	wh/0445.bmp
80.64	0.72	103	1	1	109	mem	con	mod	mod	low	tg	ht	wh/1000.bmp
81.36	0.72	104	3	3	53	mem	con	mod	mod	mod	tg	ht	wh/0359.bmp
82.08	0.72	105	2	3	54	mem	con	mod	mod	mod	nt	ms	nh/0333_nh.bmp
82.80	0.72	106	2	3	69	mem	lib	mod	mod	low	tg	ht	wh/0914.bmp
83.52	0.72	107	1	2	83	per	con	low	mod	low	nt	cr	nh/0683_nh.bmp
84.24	0.72	108	3	4	9	per	con	mod	mod	mod	nt	cr	nh/0413_nh.bmp
84.96	0.72	109	1	3	56	mem	con	mod	mod	mod	tg	ms	wh/0313.bmp
85.68	0.72	110	2	3	56	mem	con	mod	mod	mod	tg	ms	wh/0313.bmp
86.40	0.72	111	1	2	124	per	con	mod	mod	mod	tg	ms	wh/0344.bmp
87.12	0.72	112	2	2	83	per	con	low	mod	low	nt	cr	nh/0683_nh.bmp
87.84	0.72	113	1	2	36	mem	lib	mod	mod	mod	nt	ht	nh/0448_nh.bmp
88.56	0.72	114	2	2	38	mem	lib	mod	mod	mod	nt	ht	nh/0895_nh.bmp
89.28	0.72	115	1	2	114	per	con	mod	mod	mod	nt	cr	nh/0809_nh.bmp
90.00	0.72	116	2	3	94	per	lib	mod	mod	mod	nt	fa	nh/0320_nh.bmp
90.72	0.72	117	1	3	87	per	lib	mod	mod	mod	tg	ht	wh/1006.bmp
91.44	0.72	118	1	2	122	per	con	mod	mod	mod	nt	cr	nh/0861_nh.bmp
92.16	0.72	119	1	3	23	per	con	low	low	low	nt	cr	nh/0783_nh.bmp
92.88	0.72	120	1	4	35	mem	lib	mod	mod	mod	nt	ht	nh/0796_nh.bmp
93.60	0.72	121	3	3	94	per	lib	mod	mod	mod	nt	fa	nh/0320_nh.bmp
94.32	0.72	122	2	1	58	per	lib	low	mod	low	tg	ht	wh/0798.bmp
95.04	0.72	123	1	4	122	mem	con	low	low	mod	tg	ms	wh/0811.bmp
95.76	0.72	124	2	4	100	per	con	low	mod	low	nt	cr	nh/0511_nh.bmp
96.48	0.72	125	1	3	39	per	con	mod	low	mod	nt	cr	nh/0467_nh.bmp
97.20	0.72	126	2	1	102	mem	con	mod	mod	low	tg	ms	wh/0195.bmp
97.92	0.72	127	2	2	30	mem	con	mod	mod	mod	tg	ms	wh/0061.bmp
98.64	0.72	128	1	1	123	mem	lib	low	low	low	tg	ht	wh/0276.bmp
99.36	0.72	129	3	3	56	mem	con	mod	mod	mod	tg	ms	wh/0313.bmp
100.08	0.72	130	1	2	57	per	lib	mod	mod	mod	tg	ht	wh/0490.bmp
100.80	0.72	131	2	2	58	per	lib	mod	mod	mod	tg	ht	wh/0753.bmp
101.52	0.72	132	2	4	51	mem	con	mod	mod	low	nt	ht	nh/0302_nh.bmp
102.24	0.72	133	2	2	36	mem	lib	mod	mod	mod	nt	ht	nh/0448_nh.bmp
102.96	0.72	134	1	3	76	mem	lib	mod	mod	low	tg	ht	wh/0438.bmp
103.68	0.72	135	2	2	57	per	lib	mod	mod	mod	tg	ht	wh/0490.bmp
104.40	0.72	136	1	3	75	mem	lib	mod	mod	low	nt	ht	nh/0412_nh.bmp
105.12	0.72	137	3	2	38	mem	lib	mod	mod	mod	nt	ht	nh/0895_nh.bmp
105.84	0.72	138	2	2	124	per	con	mod	mod	mod	tg	ms	wh/0344.bmp
106.56	0.72	139	1	3	59	mem	con	mod	mod	mod	tg	ms	wh/0331.bmp
107.28	0.72	140	1	3	84	per	lib	mod	mod	mod	tg	ht	wh/1010.bmp
108.00	0.72	141	1	2	56	per	lib	mod	mod	mod	nt	fa	nh/0538_nh.bmp
108.72	0.72	142	2	3	60	mem	con	mod	mod	mod	tg	ht	wh/0097.bmp
109.44	0.72	143	2	1	92	mem	lib	mod	mod	low	tg	ht	wh/0509.bmp
110.16	0.72	144	1	4	11	per	con	mod	mod	mod	nt	cr	nh/0761_nh.bmp
110.88	0.72	145	1	1	95	mem	lib	mod	mod	low	nt	ht	nh/0410_nh.bmp
111.60	0.72	146	2	3	59	mem	con	mod	mod	mod	tg	ms	wh/0331.bmp
112.32	0.72	147	2	4	42	mem	lib	mod	mod	mod	nt	ht	nh/0137_nh.bmp
113.04	0.72	148	2	2	114	per	con	mod	mod	mod	nt	cr	nh/0809_nh.bmp
113.76	0.72	149	2	1	50	per	lib	low	mod	low	nt	cr	nh/0523_nh.bmp
114.48	0.72	150	2	3	76	mem	lib	mod	mod	low	tg	ht	wh/0438.bmp
115.20	0.72	151	3	2	83	per	con	low	mod	low	nt	cr	nh/0683_nh.bmp
115.92	0.72	152	1	1	48	per	con	mod	low	mod	nt	cr	nh/0707_nh.bmp
116.64	0.72	153	1	2	91	per	con	low	mod	low	tg	ms	wh/0067.bmp
117.36	0.72	154	1	3	91	per	lib	mod	mod	mod	nt	cr	nh/0742_nh.bmp
118.08	0.72	155	3	2	57	per	lib	mod	mod	mod	tg	ht	wh/0490.bmp
118.80	0.72	156	3	1	90	mem	lib	mod	mod	low	tg	ht	wh/0575.bmp
119.52	0.72	157	1	4	92	per	lib	low	mod	low	tg	ht	wh/0791.bmp
120.24	0.72	158	1	2	22	mem	con	mod	mod	mod	nt	ms	nh/0049_nh.bmp
120.96	0.72	159	1	2	31	mem	con	mod	mod	mod	tg	ms	wh/0427.bmp
121.68	0.72	160	4	1	90	mem	lib	mod	mod	low	tg	ht	wh/0575.bmp
122.40	0.72	161	2	4	92	per	lib	low	mod	low	tg	ht	wh/0791.bmp
123.12	0.72	162	1	1	56	per	lib	low	mod	low	tg	ht	wh/0615.bmp
123.84	0.72	163	1	2	101	mem	lib	low	low	mod	nt	ht	nh/0937_nh.bmp
124.56	0.72	164	1	2	88	per	con	low	mod	low	nt	cr	nh/0792_nh.bmp
125.28	0.72	165	2	4	35	mem	lib	mod	mod	mod	nt	ht	nh/0796_nh.bmp
126.00	0.72	166	3	2	32	mem	con	mod	mod	mod	nt	ms	nh/0604_nh.bmp
126.72	0.72	167	2	4	47	mem	lib	mod	mod	mod	tg	ht	wh/0645.bmp
127.44	0.72	168	3	3	70	mem	lib	mod	mod	low	tg	ht	wh/0765.bmp
128.16	0.72	169	1	1	122	mem	lib	low	low	low	nt	ht	nh/0314_nh.bmp
128.88	0.72	170	2	2	93	per	con	low	mod	low	nt	cr	nh/0512_nh.bmp
129.60	0.72	171	1	4	96	per	lib	low	mod	low	tg	ht	wh/1013.bmp
130.32	0.72	172	2	2	49	per	lib	mod	mod	mod	tg	ht	wh/0282.bmp
131.04	0.72	173	4	1	55	per	lib	low	mod	low	nt	cr	nh/0291_nh.bmp
131.76	0.72	174	2	2	50	per	lib	mod	mod	mod	nt	fa	nh/0151_nh.bmp
132.48	0.72	175	1	3	74	mem	lib	mod	mod	low	nt	ms	nh/0263_nh.bmp
133.20	0.72	176	2	2	56	per	lib	mod	mod	mod	nt	fa	nh/0538_nh.bmp
133.92	0.72	177	1	4	56	mem	con	mod	mod	low	tg	ms	wh/0259.bmp
134.64	0.72	178	5	1	55	per	lib	low	mod	low	nt	cr	nh/0291_nh.bmp
135.36	0.72	179	3	2	37	mem	lib	mod	mod	mod	tg	ht	wh/0689.bmp
136.08	0.72	180	1	2	45	mem	lib	mod	mod	mod	nt	ht	nh/0664_nh.bmp
136.80	0.72	181	2	3	91	per	lib	mod	mod	mod	nt	cr	nh/0742_nh.bmp
137.52	0.72	182	2	4	99	per	con	low	mod	low	nt	cr	nh/0124_nh.bmp
138.24	0.72	183	2	1	109	mem	con	mod	mod	low	tg	ht	wh/1000.bmp
138.96	0.72	184	1	4	63	mem	con	mod	mod	low	tg	ht	wh/0422.bmp
139.68	0.72	185	1	4	102	per	con	low	mod	low	tg	ms	wh/0386.bmp
140.40	0.72	186	3	1	107	mem	con	mod	mod	low	nt	ht	nh/0641_nh.bmp
141.12	0.72	187	2	3	81	per	lib	mod	mod	mod	nt	cr	nh/0901_nh.bmp
141.84	0.72	188	3	1	92	mem	lib	mod	mod	low	tg	ht	wh/0509.bmp
142.56	0.72	189	2	4	98	per	con	low	mod	low	nt	cr	nh/0661_nh.bmp
143.28	0.72	190	1	2	127	per	con	mod	mod	mod	nt	cr	nh/0039_nh.bmp
144.00	0.72	191	1	2	23	mem	con	mod	mod	mod	nt	ht	nh/0365_nh.bmp
144.72	0.72	192	1	2	80	mem	con	low	low	low	tg	ms	wh/0130.bmp
145.44	0.72	193	3	3	59	mem	con	mod	mod	mod	tg	ms	wh/0331.bmp
146.16	0.72	194	2	3	75	mem	lib	mod	mod	low	nt	ht	nh/0412_nh.bmp
146.88	0.72	195	3	2	124	per	con	mod	mod	mod	tg	ms	wh/0344.bmp
147.60	0.72	196	1	2	55	per	lib	mod	mod	mod	nt	cr	nh/0343_nh.bmp
148.32	0.72	197	1	1	25	per	lib	mod	low	mod	tg	ht	wh/0474.bmp
149.04	0.72	198	3	2	49	per	lib	mod	mod	mod	tg	ht	wh/0282.bmp
149.76	0.72	199	4	3	59	mem	con	mod	mod	mod	tg	ms	wh/0331.bmp
150.48	0.72	200	3	2	114	per	con	mod	mod	mod	nt	cr	nh/0809_nh.bmp
151.20	0.72	201	2	2	29	mem	con	mod	mod	mod	nt	ms	nh/0931_nh.bmp
151.92	0.72	202	1	3	88	per	lib	mod	mod	mod	nt	fa	nh/0071_nh.bmp
152.64	0.72	203	2	2	41	mem	lib	mod	mod	mod	nt	ht	nh/0229_nh.bmp
153.36	0.72	204	1	1	57	per	lib	low	mod	low	tg	ms	wh/0236.bmp
154.08	0.72	205	2	4	34	mem	lib	mod	mod	mod	tg	ht	wh/0279.bmp
154.80	0.72	206	1	3	120	per	lib	low	low	low	tg	ht	wh/0828.bmp
155.52	0.72	207	2	2	35	mem	lib	mod	mod	mod	tg	ht	wh/0479.bmp
156.24	0.72	208	3	2	36	mem	lib	mod	mod	mod	nt	ht	nh/0448_nh.bmp
156.96	0.72	209	2	3	77	mem	lib	mod	mod	low	nt	ht	nh/0293_nh.bmp
157.68	0.72	210	1	4	16	per	con	mod	mod	mod	tg	ht	wh/0583.bmp
158.40	0.72	211	4	2	57	per	lib	mod	mod	mod	tg	ht	wh/0490.bmp
159.12	0.72	212	1	1	84	mem	lib	mod	mod	low	nt	ht	nh/0030_nh.bmp
159.84	0.72	213	1	4	94	per	lib	low	mod	low	nt	cr	nh/0444_nh.bmp
160.56	0.72	214	2	2	128	per	con	mod	mod	mod	tg	ms	wh/0759.bmp
161.28	0.72	215	2	2	22	mem	con	mod	mod	mod	nt	ms	nh/0049_nh.bmp
162.00	0.72	216	3	4	34	mem	lib	mod	mod	mod	tg	ht	wh/0279.bmp
162.72	0.72	217	3	4	47	mem	lib	mod	mod	mod	tg	ht	wh/0645.bmp
163.44	0.72	218	2	2	91	per	con	low	mod	low	tg	ms	wh/0067.bmp
164.16	0.72	219	2	4	6	per	con	mod	mod	mod	nt	cr	nh/0983_nh.bmp
164.88	0.72	220	4	3	56	mem	con	mod	mod	mod	tg	ms	wh/0313.bmp
165.60	0.72	221	1	4	87	per	lib	low	mod	low	nt	fa	nh/0415_nh.bmp
166.32	0.72	222	3	3	54	mem	con	mod	mod	mod	nt	ms	nh/0333_nh.bmp
167.04	0.72	223	4	3	94	per	lib	mod	mod	mod	nt	fa	nh/0320_nh.bmp
167.76	0.72	224	2	2	127	per	con	mod	mod	mod	nt	cr	nh/0039_nh.bmp
168.48	0.72	225	3	2	58	per	lib	mod	mod	mod	tg	ht	wh/0753.bmp
169.20	0.72	226	1	2	90	per	con	low	mod	low	tg	ms	wh/0174.bmp
169.92	0.72	227	4	4	34	mem	lib	mod	mod	mod	tg	ht	wh/0279.bmp
170.64	0.72	228	1	1	8	per	con	low	low	low	tg	ms	wh/0252.bmp
171.36	0.72	229	2	4	3	per	con	mod	mod	mod	tg	ms	wh/0970.bmp
172.08	0.72	230	1	4	110	per	con	low	mod	low	tg	ms	wh/0368.bmp
172.80	0.72	231	2	4	61	mem	con	mod	mod	low	nt	ms	nh/0882_nh.bmp
173.52	0.72	232	2	2	89	per	con	low	mod	low	tg	ms	wh/0643.bmp
174.24	0.72	233	1	2	72	mem	con	low	low	low	nt	ms	nh/0607_nh.bmp
174.96	0.72	234	3	4	35	mem	lib	mod	mod	mod	nt	ht	nh/0796_nh.bmp
175.68	0.72	235	2	1	105	mem	con	mod	mod	low	nt	ht	nh/0132_nh.bmp
176.40	0.72	236	3	4	98	per	con	low	mod	low	nt	cr	nh/0661_nh.bmp
177.12	0.72	237	2	4	96	per	lib	low	mod	low	tg	ht	wh/1013.bmp
177.84	0.72	238	3	2	56	per	lib	mod	mod	mod	nt	fa	nh/0538_nh.bmp
178.56	0.72	239	3	4	6	per	con	mod	mod	mod	nt	cr	nh/0983_nh.bmp
179.28	0.72	240	4	3	70	mem	lib	mod	mod	low	tg	ht	wh/0765.bmp
180.00	0.72	241	2	3	88	per	lib	mod	mod	mod	nt	fa	nh/0071_nh.bmp
180.72	0.72	242	2	1	56	per	lib	low	mod	low	tg	ht	wh/0615.bmp
181.44	0.72	243	3	3	76	mem	lib	mod	mod	low	tg	ht	wh/0438.bmp
182.16	0.72	244	1	3	66	mem	lib	mod	mod	low	nt	ht	nh/0459_nh.bmp
182.88	0.72	245	3	1	58	per	lib	low	mod	low	tg	ht	wh/0798.bmp
183.60	0.72	246	1	1	26	per	lib	mod	low	mod	nt	cr	nh/0969_nh.bmp
184.32	0.72	247	1	1	86	mem	lib	mod	mod	low	tg	ht	wh/0315.bmp
185.04	0.72	248	2	1	104	mem	con	mod	mod	low	nt	ht	nh/0703_nh.bmp
185.76	0.72	249	5	1	90	mem	lib	mod	mod	low	tg	ht	wh/0575.bmp
186.48	0.72	250	3	1	50	per	lib	low	mod	low	nt	cr	nh/0523_nh.bmp
187.20	0.72	251	1	1	121	mem	lib	low	low	low	nt	ms	nh/1003_nh.bmp
187.92	0.72	252	3	3	77	mem	lib	mod	mod	low	nt	ht	nh/0293_nh.bmp
188.64	0.72	253	1	1	29	per	lib	mod	low	mod	nt	n/a	nh/0726_nh.bmp
189.36	0.72	254	3	4	42	mem	lib	mod	mod	mod	nt	ht	nh/0137_nh.bmp
190.08	0.72	255	4	2	36	mem	lib	mod	mod	mod	nt	ht	nh/0448_nh.bmp
190.80	0.72	256	3	2	128	per	con	mod	mod	mod	tg	ms	wh/0759.bmp
191.52	0.72	257	3	1	105	mem	con	mod	mod	low	nt	ht	nh/0132_nh.bmp
192.24	0.72	258	2	4	110	per	con	low	mod	low	tg	ms	wh/0368.bmp
192.96	0.72	259	5	4	34	mem	lib	mod	mod	mod	tg	ht	wh/0279.bmp
193.68	0.72	260	2	4	56	mem	con	mod	mod	low	tg	ms	wh/0259.bmp
194.40	0.72	261	1	3	52	mem	con	mod	mod	mod	nt	ht	nh/0799_nh.bmp
195.12	0.72	262	2	2	18	mem	con	mod	mod	mod	tg	ms	wh/0072.bmp
195.84	0.72	263	1	3	5	mem	lib	low	low	mod	tg	ms	wh/0616.bmp
196.56	0.72	264	2	2	86	per	con	low	mod	low	tg	ms	wh/0757.bmp
197.28	0.72	265	1	3	125	per	lib	low	low	low	nt	fa	nh/0245_nh.bmp
198.00	0.72	266	4	3	54	mem	con	mod	mod	mod	nt	ms	nh/0333_nh.bmp
198.72	0.72	267	2	4	82	per	lib	low	mod	low	tg	ms	wh/0007.bmp
199.44	0.72	268	3	4	33	mem	lib	mod	mod	mod	nt	ht	nh/0738_nh.bmp
200.16	0.72	269	1	4	45	mem	lib	mod	mod	mod	nt	ht	nh/0961_nh.bmp
200.88	0.72	270	2	3	52	mem	con	mod	mod	mod	nt	ht	nh/0799_nh.bmp
201.60	0.72	271	3	2	35	mem	lib	mod	mod	mod	tg	ht	wh/0479.bmp
202.32	0.72	272	3	4	100	per	con	low	mod	low	nt	cr	nh/0511_nh.bmp
203.04	0.72	273	1	4	57	mem	con	mod	mod	low	tg	ms	wh/0672.bmp
203.76	0.72	274	4	4	33	mem	lib	mod	mod	mod	nt	ht	nh/0738_nh.bmp
204.48	0.72	275	3	3	52	mem	con	mod	mod	mod	nt	ht	nh/0799_nh.bmp
205.20	0.72	276	3	3	88	per	lib	mod	mod	mod	nt	fa	nh/0071_nh.bmp
205.92	0.72	277	3	2	62	per	lib	mod	mod	mod	nt	cr	nh/0705_nh.bmp
206.64	0.72	278	5	2	36	mem	lib	mod	mod	mod	nt	ht	nh/0448_nh.bmp
207.36	0.72	279	4	4	6	per	con	mod	mod	mod	nt	cr	nh/0983_nh.bmp
208.08	0.72	280	2	1	86	mem	lib	mod	mod	low	tg	ht	wh/0315.bmp
208.80	0.72	281	3	2	18	mem	con	mod	mod	mod	tg	ms	wh/0072.bmp
209.52	0.72	282	2	4	57	mem	con	mod	mod	low	tg	ms	wh/0672.bmp
210.24	0.72	283	1	3	29	per	con	low	low	low	tg	ms	wh/0369.bmp
210.96	0.72	284	2	2	113	per	con	mod	mod	mod	nt	cr	nh/0477_nh.bmp
211.68	0.72	285	1	1	101	mem	con	mod	mod	low	tg	ms	wh/0283.bmp
212.40	0.72	286	3	4	56	mem	con	mod	mod	low	tg	ms	wh/0259.bmp
213.12	0.72	287	1	1	81	mem	lib	mod	mod	low	tg	ht	wh/0081.bmp
213.84	0.72	288	3	1	104	mem	con	mod	mod	low	nt	ht	nh/0703_nh.bmp
214.56	0.72	289	1	3	101	mem	con	low	low	low	tg	ms	wh/0309.bmp
215.28	0.72	290	2	2	122	per	con	mod	mod	mod	nt	cr	nh/0861_nh.bmp
216.00	0.72	291	1	4	112	per	con	low	mod	low	nt	cr	nh/0988_nh.bmp
216.72	0.72	292	1	3	117	per	lib	low	low	low	nt	cr	nh/0211_nh.bmp
217.44	0.72	293	2	3	84	per	lib	mod	mod	mod	tg	ht	wh/1010.bmp
218.16	0.72	294	1	1	111	mem	con	mod	mod	low	nt	ms	nh/0454_nh.bmp
218.88	0.72	295	1	3	95	per	lib	mod	mod	mod	tg	ht	wh/0576.bmp
219.60	0.72	296	2	4	106	per	con	low	mod	low	tg	ms	wh/0203.bmp
220.32	0.72	297	2	2	88	per	con	low	mod	low	nt	cr	nh/0792_nh.bmp
221.04	0.72	298	2	1	81	mem	lib	mod	mod	low	tg	ht	wh/0081.bmp
221.76	0.72	299	4	2	58	per	lib	mod	mod	mod	tg	ht	wh/0753.bmp
222.48	0.72	300	1	3	111	mem	con	low	low	low	tg	n/a	wh/0505.bmp
223.20	0.72	301	5	3	94	per	lib	mod	mod	mod	nt	fa	nh/0320_nh.bmp
223.92	0.72	302	4	1	104	mem	con	mod	mod	low	nt	ht	nh/0703_nh.bmp
224.64	0.72	303	4	2	124	per	con	mod	mod	mod	tg	ms	wh/0344.bmp
225.36	0.72	304	3	2	119	per	con	mod	mod	mod	tg	ht	wh/0834.bmp
226.08	0.72	305	3	2	91	per	con	low	mod	low	tg	ms	wh/0067.bmp
226.80	0.72	306	3	2	93	per	con	low	mod	low	nt	cr	nh/0512_nh.bmp
227.52	0.72	307	1	4	41	mem	lib	mod	mod	mod	tg	ht	wh/0925.bmp
228.24	0.72	308	3	4	96	per	lib	low	mod	low	tg	ht	wh/1013.bmp
228.96	0.72	309	2	4	45	mem	lib	mod	mod	mod	nt	ht	nh/0961_nh.bmp
229.68	0.72	310	2	3	61	mem	con	mod	mod	mod	nt	ht	nh/0562_nh.bmp
230.40	0.72	311	1	1	59	per	lib	low	mod	low	nt	cr	nh/0390_nh.bmp
231.12	0.72	312	3	4	106	per	con	low	mod	low	tg	ms	wh/0203.bmp
231.84	0.72	313	1	4	74	mem	lib	low	low	low	nt	ht	nh/0916_nh.bmp
232.56	0.72	314	2	2	33	mem	lib	mod	mod	mod	tg	ht	wh/0592.bmp
233.28	0.72	315	3	3	91	per	lib	mod	mod	mod	nt	cr	nh/0742_nh.bmp
234.00	0.72	316	2	4	62	mem	con	mod	mod	low	tg	ms	wh/0671.bmp
234.72	0.72	317	3	3	84	per	lib	mod	mod	mod	tg	ht	wh/1010.bmp
235.44	0.72	318	2	3	74	mem	lib	mod	mod	low	nt	ms	nh/0263_nh.bmp
236.16	0.72	319	3	2	30	mem	con	mod	mod	mod	tg	ms	wh/0061.bmp
236.88	0.72	320	2	4	91	per	lib	low	mod	low	tg	ht	wh/0494.bmp
237.60	0.72	321	4	1	107	mem	con	mod	mod	low	nt	ht	nh/0641_nh.bmp
238.32	0.72	322	2	4	102	per	con	low	mod	low	tg	ms	wh/0386.bmp
239.04	0.72	323	5	3	70	mem	lib	mod	mod	low	tg	ht	wh/0765.bmp
239.76	0.72	324	2	3	92	per	lib	mod	mod	mod	tg	ht	wh/0487.bmp
240.48	0.72	325	2	1	59	per	lib	low	mod	low	nt	cr	nh/0390_nh.bmp
241.20	0.72	326	3	1	81	mem	lib	mod	mod	low	tg	ht	wh/0081.bmp
241.92	0.72	327	4	2	56	per	lib	mod	mod	mod	nt	fa	nh/0538_nh.bmp
242.64	0.72	328	3	2	88	per	con	low	mod	low	nt	cr	nh/0792_nh.bmp
243.36	0.72	329	1	2	24	mem	con	mod	mod	mod	tg	ms	wh/0943.bmp
244.08	0.72	330	6	4	34	mem	lib	mod	mod	mod	tg	ht	wh/0279.bmp
244.80	0.72	331	3	4	1	per	con	mod	mod	mod	tg	ht	wh/0674.bmp
245.52	0.72	332	2	1	85	mem	lib	mod	mod	low	nt	ht	nh/0166_nh.bmp
246.24	0.72	333	3	4	102	per	con	low	mod	low	tg	ms	wh/0386.bmp
246.96	0.72	334	3	4	82	per	lib	low	mod	low	tg	ms	wh/0007.bmp
247.68	0.72	335	2	2	96	per	con	low	mod	low	nt	cr	nh/0976_nh.bmp
248.40	0.72	336	1	1	71	mem	con	low	low	mod	nt	ht	nh/0993_nh.bmp
249.12	0.72	337	3	2	127	per	con	mod	mod	mod	nt	cr	nh/0039_nh.bmp
249.84	0.72	338	1	3	43	per	con	mod	low	mod	tg	ht	wh/0050.bmp
250.56	0.72	339	2	4	63	mem	con	mod	mod	low	tg	ht	wh/0422.bmp
251.28	0.72	340	1	2	102	mem	lib	low	low	mod	nt	ht	nh/0985_nh.bmp
252.00	0.72	341	2	4	94	per	lib	low	mod	low	nt	cr	nh/0444_nh.bmp
252.72	0.72	342	2	4	16	per	con	mod	mod	mod	tg	ht	wh/0583.bmp
253.44	0.72	343	2	1	57	per	lib	low	mod	low	tg	ms	wh/0236.bmp
254.16	0.72	344	1	4	118	mem	con	low	low	mod	nt	ht	nh/0102_nh.bmp
254.88	0.72	345	1	1	34	per	con	mod	low	mod	nt	cr	nh/0004_nh.bmp
255.60	0.72	346	3	4	94	per	lib	low	mod	low	nt	cr	nh/0444_nh.bmp
256.32	0.72	347	1	1	27	per	lib	mod	low	mod	tg	ht	wh/0201.bmp
257.04	0.72	348	1	2	71	mem	con	low	low	low	nt	ms	nh/0492_nh.bmp
257.76	0.72	349	3	4	61	mem	con	mod	mod	low	nt	ms	nh/0882_nh.bmp
258.48	0.72	350	3	2	86	per	con	low	mod	low	tg	ms	wh/0757.bmp
259.20	0.72	351	3	1	85	mem	lib	mod	mod	low	nt	ht	nh/0166_nh.bmp
259.92	0.72	352	1	2	112	mem	lib	low	low	mod	nt	ht	nh/0052_nh.bmp
260.64	0.72	353	4	3	88	per	lib	mod	mod	mod	nt	fa	nh/0071_nh.bmp
261.36	0.72	354	3	2	113	per	con	mod	mod	mod	nt	cr	nh/0477_nh.bmp
262.08	0.72	355	1	2	15	per	lib	low	low	low	tg	ms	wh/0653.bmp
262.80	0.72	356	2	4	87	per	lib	low	mod	low	nt	fa	nh/0415_nh.bmp
263.52	0.72	357	5	2	58	per	lib	mod	mod	mod	tg	ht	wh/0753.bmp
264.24	0.72	358	2	4	112	per	con	low	mod	low	nt	cr	nh/0988_nh.bmp
264.96	0.72	359	1	3	9	mem	lib	low	low	mod	nt	ht	nh/0062_nh.bmp
265.68	0.72	360	1	3	44	per	con	mod	low	mod	nt	cr	nh/0208_nh.bmp
266.40	0.72	361	4	2	114	per	con	mod	mod	mod	nt	cr	nh/0809_nh.bmp
267.12	0.72	362	1	4	64	mem	con	mod	mod	low	nt	ms	nh/0496_nh.bmp
267.84	0.72	363	4	3	76	mem	lib	mod	mod	low	tg	ht	wh/0438.bmp
268.56	0.72	364	5	2	57	per	lib	mod	mod	mod	tg	ht	wh/0490.bmp
269.28	0.72	365	4	2	119	per	con	mod	mod	mod	tg	ht	wh/0834.bmp
270.00	0.72	366	2	2	90	per	con	low	mod	low	tg	ms	wh/0174.bmp
270.72	0.72	367	4	4	1	per	con	mod	mod	mod	tg	ht	wh/0674.bmp
271.44	0.72	368	2	4	103	per	con	low	mod	low	tg	ms	wh/0323.bmp
272.16	0.72	369	1	4	88	per	lib	low	mod	low	nt	fa	nh/0312_nh.bmp
272.88	0.72	370	4	3	84	per	lib	mod	mod	mod	tg	ht	wh/1010.bmp
273.60	0.72	371	5	3	88	per	lib	mod	mod	mod	nt	fa	nh/0071_nh.bmp
274.32	0.72	372	2	2	55	per	lib	mod	mod	mod	nt	cr	nh/0343_nh.bmp
275.04	0.72	373	4	2	127	per	con	mod	mod	mod	nt	cr	nh/0039_nh.bmp
275.76	0.72	374	2	4	11	per	con	mod	mod	mod	nt	cr	nh/0761_nh.bmp
276.48	0.72	375	1	3	108	mem	con	low	low	low	nt	ms	nh/0471_nh.bmp
277.20	0.72	376	2	1	84	mem	lib	mod	mod	low	nt	ht	nh/0030_nh.bmp
277.92	0.72	377	2	1	96	mem	lib	mod	mod	low	nt	ht	nh/0246_nh.bmp
278.64	0.72	378	4	2	18	mem	con	mod	mod	mod	tg	ms	wh/0072.bmp
279.36	0.72	379	3	1	109	mem	con	mod	mod	low	tg	ht	wh/1000.bmp
280.08	0.72	380	3	3	60	mem	con	mod	mod	mod	tg	ht	wh/0097.bmp
280.80	0.72	381	1	3	106	mem	con	low	low	low	tg	ms	wh/0911.bmp
281.52	0.72	382	4	2	86	per	con	low	mod	low	tg	ms	wh/0757.bmp
282.24	0.72	383	3	4	87	per	lib	low	mod	low	nt	fa	nh/0415_nh.bmp
282.96	0.72	384	1	1	30	per	lib	mod	low	mod	nt	fa	nh/0620_nh.bmp
283.68	0.72	385	3	4	99	per	con	low	mod	low	nt	cr	nh/0124_nh.bmp
284.40	0.72	386	3	3	74	mem	lib	mod	mod	low	nt	ms	nh/0263_nh.bmp
285.12	0.72	387	4	2	83	per	con	low	mod	low	nt	cr	nh/0683_nh.bmp
285.84	0.72	388	4	2	35	mem	lib	mod	mod	mod	tg	ht	wh/0479.bmp
286.56	0.72	389	3	2	55	per	lib	mod	mod	mod	nt	cr	nh/0343_nh.bmp
287.28	0.72	390	2	3	72	mem	lib	mod	mod	low	tg	ht	wh/0554.bmp
288.00	0.72	391	3	1	56	per	lib	low	mod	low	tg	ht	wh/0615.bmp
288.72	0.72	392	1	3	25	per	con	low	low	low	nt	cr	nh/0110_nh.bmp
289.44	0.72	393	4	1	92	mem	lib	mod	mod	low	tg	ht	wh/0509.bmp
290.16	0.72	394	5	4	1	per	con	mod	mod	mod	tg	ht	wh/0674.bmp
290.88	0.72	395	5	1	92	mem	lib	mod	mod	low	tg	ht	wh/0509.bmp
291.60	0.72	396	3	2	40	mem	lib	mod	mod	mod	tg	ht	wh/0806.bmp
292.32	0.72	397	3	1	57	per	lib	low	mod	low	tg	ms	wh/0236.bmp
293.04	0.72	398	5	2	127	per	con	mod	mod	mod	nt	cr	nh/0039_nh.bmp
293.76	0.72	399	5	3	76	mem	lib	mod	mod	low	tg	ht	wh/0438.bmp
294.48	0.72	400	1	2	13	per	lib	low	low	low	nt	cr	nh/0242_nh.bmp
295.20	0.72	401	4	1	58	per	lib	low	mod	low	tg	ht	wh/0798.bmp
295.92	0.72	402	2	2	24	mem	con	mod	mod	mod	tg	ms	wh/0943.bmp
296.64	0.72	403	3	1	86	mem	lib	mod	mod	low	tg	ht	wh/0315.bmp
297.36	0.72	404	3	4	91	per	lib	low	mod	low	tg	ht	wh/0494.bmp
298.08	0.72	405	4	2	30	mem	con	mod	mod	mod	tg	ms	wh/0061.bmp
298.80	0.72	406	3	4	110	per	con	low	mod	low	tg	ms	wh/0368.bmp
299.52	0.72	407	2	1	52	per	lib	low	mod	low	nt	fa	nh/0131_nh.bmp
300.24	0.72	408	2	4	41	mem	lib	mod	mod	mod	tg	ht	wh/0925.bmp
300.96	0.72	409	4	1	105	mem	con	mod	mod	low	nt	ht	nh/0132_nh.bmp
301.68	0.72	410	4	4	99	per	con	low	mod	low	nt	cr	nh/0124_nh.bmp
302.40	0.72	411	3	2	41	mem	lib	mod	mod	mod	nt	ht	nh/0229_nh.bmp
303.12	0.72	412	1	3	112	mem	con	low	low	low	nt	ht	nh/0184_nh.bmp
303.84	0.72	413	4	2	55	per	lib	mod	mod	mod	nt	cr	nh/0343_nh.bmp
304.56	0.72	414	3	4	103	per	con	low	mod	low	tg	ms	wh/0323.bmp
305.28	0.72	415	4	4	106	per	con	low	mod	low	tg	ms	wh/0203.bmp
306.00	0.72	416	3	2	22	mem	con	mod	mod	mod	nt	ms	nh/0049_nh.bmp
306.72	0.72	417	4	4	100	per	con	low	mod	low	nt	cr	nh/0511_nh.bmp
307.44	0.72	418	4	3	52	mem	con	mod	mod	mod	nt	ht	nh/0799_nh.bmp
308.16	0.72	419	5	2	55	per	lib	mod	mod	mod	nt	cr	nh/0343_nh.bmp
308.88	0.72	420	4	4	94	per	lib	low	mod	low	nt	cr	nh/0444_nh.bmp
309.60	0.72	421	3	4	11	per	con	mod	mod	mod	nt	cr	nh/0761_nh.bmp
310.32	0.72	422	4	4	61	mem	con	mod	mod	low	nt	ms	nh/0882_nh.bmp
311.04	0.72	423	3	1	96	mem	lib	mod	mod	low	nt	ht	nh/0246_nh.bmp
311.76	0.72	424	1	3	34	per	con	mod	low	mod	tg	ht	wh/0555.bmp
312.48	0.72	425	3	1	52	per	lib	low	mod	low	nt	fa	nh/0131_nh.bmp
313.20	0.72	426	5	4	99	per	con	low	mod	low	nt	cr	nh/0124_nh.bmp
313.92	0.72	427	3	4	45	mem	lib	mod	mod	mod	nt	ht	nh/0961_nh.bmp
314.64	0.72	428	5	4	106	per	con	low	mod	low	tg	ms	wh/0203.bmp
315.36	0.72	429	4	2	49	per	lib	mod	mod	mod	tg	ht	wh/0282.bmp
316.08	0.72	430	5	2	56	per	lib	mod	mod	mod	nt	fa	nh/0538_nh.bmp
316.80	0.72	431	2	3	87	per	lib	mod	mod	mod	tg	ht	wh/1006.bmp
317.52	0.72	432	1	4	113	mem	con	low	low	mod	nt	ms	nh/0723_nh.bmp
318.24	0.72	433	3	3	61	mem	con	mod	mod	mod	nt	ht	nh/0562_nh.bmp
318.96	0.72	434	2	1	101	mem	con	mod	mod	low	tg	ms	wh/0283.bmp
319.68	0.72	435	4	4	42	mem	lib	mod	mod	mod	nt	ht	nh/0137_nh.bmp
320.40	0.72	436	4	2	128	per	con	mod	mod	mod	tg	ms	wh/0759.bmp
321.12	0.72	437	1	4	21	per	lib	mod	low	mod	tg	ht	wh/0886.bmp
321.84	0.72	438	2	3	95	per	lib	mod	mod	mod	tg	ht	wh/0576.bmp
322.56	0.72	439	4	4	47	mem	lib	mod	mod	mod	tg	ht	wh/0645.bmp
323.28	0.72	440	3	2	90	per	con	low	mod	low	tg	ms	wh/0174.bmp
324.00	0.72	441	1	1	21	per	lib	mod	low	mod	tg	ht	wh/0085.bmp
324.72	0.72	442	1	4	44	mem	lib	mod	mod	mod	tg	ht	wh/0665.bmp
325.44	0.72	443	3	3	92	per	lib	mod	mod	mod	tg	ht	wh/0487.bmp
326.16	0.72	444	6	4	99	per	con	low	mod	low	nt	cr	nh/0124_nh.bmp
326.88	0.72	445	1	3	107	mem	con	low	low	low	nt	ms	nh/0987_nh.bmp
327.60	0.72	446	5	4	6	per	con	mod	mod	mod	nt	cr	nh/0983_nh.bmp
328.32	0.72	447	3	1	59	per	lib	low	mod	low	nt	cr	nh/0390_nh.bmp
329.04	0.72	448	2	1	111	mem	con	mod	mod	low	nt	ms	nh/0454_nh.bmp
329.76	0.72	449	4	4	9	per	con	mod	mod	mod	nt	cr	nh/0413_nh.bmp
330.48	0.72	450	1	3	37	per	con	mod	low	mod	tg	ht	wh/0813.bmp
331.20	0.72	451	4	2	37	mem	lib	mod	mod	mod	tg	ht	wh/0689.bmp
331.92	0.72	452	2	1	100	mem	con	mod	mod	low	tg	ht	wh/0400.bmp
332.64	0.72	453	3	1	54	per	lib	low	mod	low	tg	ht	wh/0424.bmp
333.36	0.72	454	4	1	52	per	lib	low	mod	low	nt	fa	nh/0131_nh.bmp
334.08	0.72	455	1	1	76	mem	con	low	low	mod	nt	ms	nh/0606_nh.bmp
334.80	0.72	456	3	3	72	mem	lib	mod	mod	low	tg	ht	wh/0554.bmp
335.52	0.72	457	1	4	19	per	lib	mod	low	mod	tg	ht	wh/0858.bmp
336.24	0.72	458	4	4	56	mem	con	mod	mod	low	tg	ms	wh/0259.bmp
336.96	0.72	459	1	3	16	mem	lib	low	low	mod	nt	ht	nh/0630_nh.bmp
337.68	0.72	460	5	3	84	per	lib	mod	mod	mod	tg	ht	wh/1010.bmp
338.40	0.72	461	4	2	91	per	con	low	mod	low	tg	ms	wh/0067.bmp
339.12	0.72	462	1	2	103	mem	lib	low	low	mod	nt	ht	nh/0317_nh.bmp
339.84	0.72	463	2	4	88	per	lib	low	mod	low	nt	fa	nh/0312_nh.bmp
340.56	0.72	464	2	2	45	mem	lib	mod	mod	mod	nt	ht	nh/0664_nh.bmp
341.28	0.72	465	1	4	49	mem	con	mod	mod	low	nt	ms	nh/0212_nh.bmp
342.00	0.72	466	1	3	17	per	con	low	low	low	tg	ht	wh/0010.bmp
342.72	0.72	467	1	3	116	per	lib	low	low	low	tg	ms	wh/0107.bmp
343.44	0.72	468	2	1	95	mem	lib	mod	mod	low	nt	ht	nh/0410_nh.bmp
344.16	0.72	469	4	2	41	mem	lib	mod	mod	mod	nt	ht	nh/0229_nh.bmp
344.88	0.72	470	1	1	126	mem	lib	low	low	low	nt	ms	nh/0824_nh.bmp
345.60	0.72	471	3	2	33	mem	lib	mod	mod	mod	tg	ht	wh/0592.bmp
346.32	0.72	472	6	1	90	mem	lib	mod	mod	low	tg	ht	wh/0575.bmp
347.04	0.72	473	4	2	32	mem	con	mod	mod	mod	nt	ms	nh/0604_nh.bmp
347.76	0.72	474	1	2	1	per	lib	low	low	low	tg	ms	wh/0713.bmp
348.48	0.72	475	5	2	124	per	con	mod	mod	mod	tg	ms	wh/0344.bmp
349.20	0.72	476	3	3	95	per	lib	mod	mod	mod	tg	ht	wh/0576.bmp
349.92	0.72	477	3	4	88	per	lib	low	mod	low	nt	fa	nh/0312_nh.bmp
350.64	0.72	478	3	2	89	per	con	low	mod	low	tg	ms	wh/0643.bmp
351.36	0.72	479	1	2	77	mem	con	low	low	low	tg	ms	wh/0430.bmp
352.08	0.72	480	4	1	54	per	lib	low	mod	low	tg	ht	wh/0424.bmp
352.80	0.72	481	3	2	50	per	lib	mod	mod	mod	nt	fa	nh/0151_nh.bmp
353.52	0.72	482	1	1	47	per	con	mod	low	mod	tg	ht	wh/0894.bmp
354.24	0.72	483	4	3	53	mem	con	mod	mod	mod	tg	ht	wh/0359.bmp
354.96	0.72	484	3	1	101	mem	con	mod	mod	low	tg	ms	wh/0283.bmp
355.68	0.72	485	4	1	101	mem	con	mod	mod	low	tg	ms	wh/0283.bmp
356.40	0.72	486	5	4	94	per	lib	low	mod	low	nt	cr	nh/0444_nh.bmp
357.12	0.72	487	5	3	59	mem	con	mod	mod	mod	tg	ms	wh/0331.bmp
357.84	0.72	488	4	2	113	per	con	mod	mod	mod	nt	cr	nh/0477_nh.bmp
358.56	0.72	489	2	2	31	mem	con	mod	mod	mod	tg	ms	wh/0427.bmp
359.28	0.72	490	4	3	92	per	lib	mod	mod	mod	tg	ht	wh/0487.bmp
360.00	0.72	491	1	4	126	mem	con	low	low	mod	nt	ht	nh/0069_nh.bmp
360.72	0.72	492	3	2	45	mem	lib	mod	mod	mod	nt	ht	nh/0664_nh.bmp
361.44	0.72	493	1	2	9	per	lib	low	low	low	nt	fa	nh/0117_nh.bmp
362.16	0.72	494	5	4	47	mem	lib	mod	mod	mod	tg	ht	wh/0645.bmp
362.88	0.72	495	4	2	22	mem	con	mod	mod	mod	nt	ms	nh/0049_nh.bmp
363.60	0.72	496	3	4	3	per	con	mod	mod	mod	tg	ms	wh/0970.bmp
364.32	0.72	497	2	2	115	per	con	mod	mod	mod	tg	ht	wh/0358.bmp
365.04	0.72	498	3	1	84	mem	lib	mod	mod	low	nt	ht	nh/0030_nh.bmp
365.76	0.72	499	3	2	122	per	con	mod	mod	mod	nt	cr	nh/0861_nh.bmp
366.48	0.72	500	3	2	115	per	con	mod	mod	mod	tg	ht	wh/0358.bmp
367.20	0.72	501	1	2	98	mem	lib	low	low	mod	tg	ht	wh/0595.bmp
367.92	0.72	502	3	2	29	mem	con	mod	mod	mod	nt	ms	nh/0931_nh.bmp
368.64	0.72	503	4	1	84	mem	lib	mod	mod	low	nt	ht	nh/0030_nh.bmp
369.36	0.72	504	1	1	9	per	con	low	low	low	tg	ms	wh/0271.bmp
370.08	0.72	505	1	3	64	mem	con	mod	mod	mod	nt	ms	nh/0628_nh.bmp
370.80	0.72	506	3	2	96	per	con	low	mod	low	nt	cr	nh/0976_nh.bmp
371.52	0.72	507	4	2	88	per	con	low	mod	low	nt	cr	nh/0792_nh.bmp
372.24	0.72	508	2	4	12	per	con	mod	mod	mod	nt	cr	nh/0104_nh.bmp
372.96	0.72	509	3	3	75	mem	lib	mod	mod	low	nt	ht	nh/0412_nh.bmp
373.68	0.72	510	4	1	96	mem	lib	mod	mod	low	nt	ht	nh/0246_nh.bmp
374.40	0.72	511	3	1	111	mem	con	mod	mod	low	nt	ms	nh/0454_nh.bmp
375.12	0.72	512	3	2	31	mem	con	mod	mod	mod	tg	ms	wh/0427.bmp
375.84	0.72	513	4	3	95	per	lib	mod	mod	mod	tg	ht	wh/0576.bmp
376.56	0.72	514	6	3	84	per	lib	mod	mod	mod	tg	ht	wh/1010.bmp
377.28	0.72	515	3	1	95	mem	lib	mod	mod	low	nt	ht	nh/0410_nh.bmp
378.00	0.72	516	3	1	100	mem	con	mod	mod	low	tg	ht	wh/0400.bmp
378.72	0.72	517	3	2	24	mem	con	mod	mod	mod	tg	ms	wh/0943.bmp
379.44	0.72	518	2	4	49	mem	con	mod	mod	low	nt	ms	nh/0212_nh.bmp
380.16	0.72	519	2	3	66	mem	lib	mod	mod	low	nt	ht	nh/0459_nh.bmp
380.88	0.72	520	4	4	3	per	con	mod	mod	mod	tg	ms	wh/0970.bmp
381.60	0.72	521	1	4	124	mem	con	low	low	mod	tg	ms	wh/0517.bmp
382.32	0.72	522	1	3	104	mem	con	low	low	low	tg	ms	wh/0375.bmp
383.04	0.72	523	1	4	27	per	lib	mod	low	mod	tg	ht	wh/0719.bmp
383.76	0.72	524	2	4	13	per	con	mod	mod	mod	tg	ms	wh/0348.bmp
384.48	0.72	525	5	2	35	mem	lib	mod	mod	mod	tg	ht	wh/0479.bmp
385.20	0.72	526	4	3	91	per	lib	mod	mod	mod	nt	cr	nh/0742_nh.bmp
385.92	0.72	527	6	2	35	mem	lib	mod	mod	mod	tg	ht	wh/0479.bmp
386.64	0.72	528	3	4	13	per	con	mod	mod	mod	tg	ms	wh/0348.bmp
387.36	0.72	529	4	1	95	mem	lib	mod	mod	low	nt	ht	nh/0410_nh.bmp
388.08	0.72	530	2	3	64	mem	con	mod	mod	mod	nt	ms	nh/0628_nh.bmp
388.80	0.72	531	5	4	42	mem	lib	mod	mod	mod	nt	ht	nh/0137_nh.bmp
389.52	0.72	532	3	4	57	mem	con	mod	mod	low	tg	ms	wh/0672.bmp
390.24	0.72	533	5	1	101	mem	con	mod	mod	low	tg	ms	wh/0283.bmp
390.96	0.72	534	5	4	61	mem	con	mod	mod	low	nt	ms	nh/0882_nh.bmp
391.68	0.72	535	1	4	84	per	lib	low	mod	low	nt	fa	nh/0295_nh.bmp
392.40	0.72	536	4	1	56	per	lib	low	mod	low	tg	ht	wh/0615.bmp
393.12	0.72	537	1	3	114	per	lib	low	low	low	nt	fa	nh/0363_nh.bmp
393.84	0.72	538	5	2	41	mem	lib	mod	mod	mod	nt	ht	nh/0229_nh.bmp
394.56	0.72	539	1	1	2	per	con	low	low	low	nt	fa	nh/0484_nh.bmp
395.28	0.72	540	3	3	64	mem	con	mod	mod	mod	nt	ms	nh/0628_nh.bmp
396.00	0.72	541	3	4	49	mem	con	mod	mod	low	nt	ms	nh/0212_nh.bmp
396.72	0.72	542	4	4	96	per	lib	low	mod	low	tg	ht	wh/1013.bmp
397.44	0.72	543	5	2	49	per	lib	mod	mod	mod	tg	ht	wh/0282.bmp
398.16	0.72	544	2	4	64	mem	con	mod	mod	low	nt	ms	nh/0496_nh.bmp
398.88	0.72	545	4	2	89	per	con	low	mod	low	tg	ms	wh/0643.bmp
399.60	0.72	546	5	2	32	mem	con	mod	mod	mod	nt	ms	nh/0604_nh.bmp
400.32	0.72	547	5	2	119	per	con	mod	mod	mod	tg	ht	wh/0834.bmp
401.04	0.72	548	2	2	23	mem	con	mod	mod	mod	nt	ht	nh/0365_nh.bmp
401.76	0.72	549	4	2	29	mem	con	mod	mod	mod	nt	ms	nh/0931_nh.bmp
402.48	0.72	550	5	1	58	per	lib	low	mod	low	tg	ht	wh/0798.bmp
403.20	0.72	551	4	4	49	mem	con	mod	mod	low	nt	ms	nh/0212_nh.bmp
403.92	0.72	552	4	2	62	per	lib	mod	mod	mod	nt	cr	nh/0705_nh.bmp
404.64	0.72	553	3	4	51	mem	con	mod	mod	low	nt	ht	nh/0302_nh.bmp
405.36	0.72	554	5	1	52	per	lib	low	mod	low	nt	fa	nh/0131_nh.bmp
406.08	0.72	555	6	4	6	per	con	mod	mod	mod	nt	cr	nh/0983_nh.bmp
406.80	0.72	556	4	2	96	per	con	low	mod	low	nt	cr	nh/0976_nh.bmp
407.52	0.72	557	1	4	77	mem	lib	low	low	low	tg	ms	wh/0250.bmp
408.24	0.72	558	4	1	81	mem	lib	mod	mod	low	tg	ht	wh/0081.bmp
408.96	0.72	559	5	2	86	per	con	low	mod	low	tg	ms	wh/0757.bmp
409.68	0.72	560	4	3	64	mem	con	mod	mod	mod	nt	ms	nh/0628_nh.bmp
410.40	0.72	561	1	3	28	per	con	low	low	low	tg	ms	wh/0161.bmp
411.12	0.72	562	2	2	61	per	lib	mod	mod	mod	tg	ht	wh/0445.bmp
411.84	0.72	563	6	4	94	per	lib	low	mod	low	nt	cr	nh/0444_nh.bmp
412.56	0.72	564	3	3	69	mem	lib	mod	mod	low	tg	ht	wh/0914.bmp
413.28	0.72	565	4	4	102	per	con	low	mod	low	tg	ms	wh/0386.bmp
414.00	0.72	566	5	2	113	per	con	mod	mod	mod	nt	cr	nh/0477_nh.bmp
414.72	0.72	567	2	4	44	mem	lib	mod	mod	mod	tg	ht	wh/0665.bmp
415.44	0.72	568	5	1	95	mem	lib	mod	mod	low	nt	ht	nh/0410_nh.bmp
416.16	0.72	569	6	3	94	per	lib	mod	mod	mod	nt	fa	nh/0320_nh.bmp
416.88	0.72	570	3	3	66	mem	lib	mod	mod	low	nt	ht	nh/0459_nh.bmp
417.60	0.72	571	4	1	111	mem	con	mod	mod	low	nt	ms	nh/0454_nh.bmp
418.32	0.72	572	5	3	95	per	lib	mod	mod	mod	tg	ht	wh/0576.bmp
419.04	0.72	573	4	1	50	per	lib	low	mod	low	nt	cr	nh/0523_nh.bmp
419.76	0.72	574	5	1	84	mem	lib	mod	mod	low	nt	ht	nh/0030_nh.bmp
420.48	0.72	575	5	2	114	per	con	mod	mod	mod	nt	cr	nh/0809_nh.bmp
421.20	0.72	576	6	2	41	mem	lib	mod	mod	mod	nt	ht	nh/0229_nh.bmp
421.92	0.72	577	4	3	69	mem	lib	mod	mod	low	tg	ht	wh/0914.bmp
422.64	0.72	578	5	2	89	per	con	low	mod	low	tg	ms	wh/0643.bmp
423.36	0.72	579	4	4	88	per	lib	low	mod	low	nt	fa	nh/0312_nh.bmp
424.08	0.72	580	4	4	87	per	lib	low	mod	low	nt	fa	nh/0415_nh.bmp
424.80	0.72	581	6	2	86	per	con	low	mod	low	tg	ms	wh/0757.bmp
425.52	0.72	582	5	4	88	per	lib	low	mod	low	nt	fa	nh/0312_nh.bmp
426.24	0.72	583	4	2	45	mem	lib	mod	mod	mod	nt	ht	nh/0664_nh.bmp
426.96	0.72	584	4	4	82	per	lib	low	mod	low	tg	ms	wh/0007.bmp
427.68	0.72	585	6	1	55	per	lib	low	mod	low	nt	cr	nh/0291_nh.bmp
428.40	0.72	586	1	4	25	per	lib	mod	low	mod	nt	fa	nh/0950_nh.bmp
429.12	0.72	587	6	2	113	per	con	mod	mod	mod	nt	cr	nh/0477_nh.bmp
429.84	0.72	588	3	2	61	per	lib	mod	mod	mod	tg	ht	wh/0445.bmp
430.56	0.72	589	5	2	37	mem	lib	mod	mod	mod	tg	ht	wh/0689.bmp
431.28	0.72	590	3	1	102	mem	con	mod	mod	low	tg	ms	wh/0195.bmp
432.00	0.72	591	3	4	41	mem	lib	mod	mod	mod	tg	ht	wh/0925.bmp
432.72	0.72	592	4	2	90	per	con	low	mod	low	tg	ms	wh/0174.bmp
433.44	0.72	593	4	2	31	mem	con	mod	mod	mod	tg	ms	wh/0427.bmp
434.16	0.72	594	5	1	105	mem	con	mod	mod	low	nt	ht	nh/0132_nh.bmp
434.88	0.72	595	5	1	111	mem	con	mod	mod	low	nt	ms	nh/0454_nh.bmp
435.60	0.72	596	1	3	10	mem	lib	low	low	mod	tg	ht	wh/0891.bmp
436.32	0.72	597	1	1	67	mem	con	low	low	mod	tg	ms	wh/0667.bmp
437.04	0.72	598	4	3	75	mem	lib	mod	mod	low	nt	ht	nh/0412_nh.bmp
437.76	0.72	599	1	1	36	per	con	mod	low	mod	tg	ht	wh/0872.bmp
438.48	0.72	600	4	1	86	mem	lib	mod	mod	low	tg	ht	wh/0315.bmp
439.20	0.72	601	4	1	85	mem	lib	mod	mod	low	nt	ht	nh/0166_nh.bmp
439.92	0.72	602	4	2	38	mem	lib	mod	mod	mod	nt	ht	nh/0895_nh.bmp
440.64	0.72	603	6	2	89	per	con	low	mod	low	tg	ms	wh/0643.bmp
441.36	0.72	604	5	3	75	mem	lib	mod	mod	low	nt	ht	nh/0412_nh.bmp
442.08	0.72	605	5	4	3	per	con	mod	mod	mod	tg	ms	wh/0970.bmp
442.80	0.72	606	5	3	92	per	lib	mod	mod	mod	tg	ht	wh/0487.bmp
443.52	0.72	607	1	1	66	mem	con	low	low	mod	tg	ms	wh/0670.bmp
444.24	0.72	608	4	4	41	mem	lib	mod	mod	mod	tg	ht	wh/0925.bmp
444.96	0.72	609	6	4	106	per	con	low	mod	low	tg	ms	wh/0203.bmp
445.68	0.72	610	5	1	54	per	lib	low	mod	low	tg	ht	wh/0424.bmp
446.40	0.72	611	5	3	56	mem	con	mod	mod	mod	tg	ms	wh/0313.bmp
447.12	0.72	612	3	3	81	per	lib	mod	mod	mod	nt	cr	nh/0901_nh.bmp
447.84	0.72	613	4	4	103	per	con	low	mod	low	tg	ms	wh/0323.bmp
448.56	0.72	614	5	4	9	per	con	mod	mod	mod	nt	cr	nh/0413_nh.bmp
449.28	0.72	615	1	3	47	per	con	mod	low	mod	nt	cr	nh/0913_nh.bmp
450.00	0.72	616	4	3	60	mem	con	mod	mod	mod	tg	ht	wh/0097.bmp
450.72	0.72	617	4	2	61	per	lib	mod	mod	mod	tg	ht	wh/0445.bmp
451.44	0.72	618	3	4	44	mem	lib	mod	mod	mod	tg	ht	wh/0665.bmp
452.16	0.72	619	1	3	14	mem	lib	low	low	mod	tg	ht	wh/0754.bmp
452.88	0.72	620	5	4	49	mem	con	mod	mod	low	nt	ms	nh/0212_nh.bmp
453.60	0.72	621	3	4	92	per	lib	low	mod	low	tg	ht	wh/0791.bmp
454.32	0.72	622	5	2	128	per	con	mod	mod	mod	tg	ms	wh/0759.bmp
455.04	0.72	623	5	4	82	per	lib	low	mod	low	tg	ms	wh/0007.bmp
455.76	0.72	624	4	4	13	per	con	mod	mod	mod	tg	ms	wh/0348.bmp
456.48	0.72	625	4	2	115	per	con	mod	mod	mod	tg	ht	wh/0358.bmp
457.20	0.72	626	3	4	64	mem	con	mod	mod	low	nt	ms	nh/0496_nh.bmp
457.92	0.72	627	5	1	86	mem	lib	mod	mod	low	tg	ht	wh/0315.bmp
458.64	0.72	628	5	4	96	per	lib	low	mod	low	tg	ht	wh/1013.bmp
459.36	0.72	629	4	4	64	mem	con	mod	mod	low	nt	ms	nh/0496_nh.bmp
460.08	0.72	630	5	3	54	mem	con	mod	mod	mod	nt	ms	nh/0333_nh.bmp
460.80	0.72	631	4	3	61	mem	con	mod	mod	mod	nt	ht	nh/0562_nh.bmp
461.52	0.72	632	4	4	11	per	con	mod	mod	mod	nt	cr	nh/0761_nh.bmp
462.24	0.72	633	4	4	51	mem	con	mod	mod	low	nt	ht	nh/0302_nh.bmp
462.96	0.72	634	5	4	87	per	lib	low	mod	low	nt	fa	nh/0415_nh.bmp
463.68	0.72	635	4	2	33	mem	lib	mod	mod	mod	tg	ht	wh/0592.bmp
464.40	0.72	636	6	4	82	per	lib	low	mod	low	tg	ms	wh/0007.bmp
465.12	0.72	637	3	4	16	per	con	mod	mod	mod	tg	ht	wh/0583.bmp
465.84	0.72	638	4	1	109	mem	con	mod	mod	low	tg	ht	wh/1000.bmp
466.56	0.72	639	6	4	61	mem	con	mod	mod	low	nt	ms	nh/0882_nh.bmp
467.28	0.72	640	5	1	109	mem	con	mod	mod	low	tg	ht	wh/1000.bmp
468.00	0.72	641	1	3	46	per	con	mod	low	mod	tg	ht	wh/0502.bmp
468.72	0.72	642	5	2	22	mem	con	mod	mod	mod	nt	ms	nh/0049_nh.bmp
469.44	0.72	643	5	2	96	per	con	low	mod	low	nt	cr	nh/0976_nh.bmp
470.16	0.72	644	1	1	65	mem	con	low	low	mod	tg	ms	wh/1020.bmp
470.88	0.72	645	5	2	115	per	con	mod	mod	mod	tg	ht	wh/0358.bmp
471.60	0.72	646	6	1	95	mem	lib	mod	mod	low	nt	ht	nh/0410_nh.bmp
472.32	0.72	647	1	4	80	mem	lib	low	low	low	tg	ht	wh/0160.bmp
473.04	0.72	648	6	2	114	per	con	mod	mod	mod	nt	cr	nh/0809_nh.bmp
473.76	0.72	649	3	3	87	per	lib	mod	mod	mod	tg	ht	wh/1006.bmp
474.48	0.72	650	3	4	63	mem	con	mod	mod	low	tg	ht	wh/0422.bmp
475.20	0.72	651	4	3	81	per	lib	mod	mod	mod	nt	cr	nh/0901_nh.bmp
475.92	0.72	652	1	1	127	mem	lib	low	low	low	tg	ht	wh/0243.bmp
476.64	0.72	653	6	2	115	per	con	mod	mod	mod	tg	ht	wh/0358.bmp
477.36	0.72	654	4	2	50	per	lib	mod	mod	mod	nt	fa	nh/0151_nh.bmp
478.08	0.72	655	5	2	31	mem	con	mod	mod	mod	tg	ms	wh/0427.bmp
478.80	0.72	656	6	2	36	mem	lib	mod	mod	mod	nt	ht	nh/0448_nh.bmp
479.52	0.72	657	5	4	102	per	con	low	mod	low	tg	ms	wh/0386.bmp
480.24	0.72	658	6	1	105	mem	con	mod	mod	low	nt	ht	nh/0132_nh.bmp
480.96	0.72	659	4	1	100	mem	con	mod	mod	low	tg	ht	wh/0400.bmp
481.68	0.72	660	6	4	96	per	lib	low	mod	low	tg	ht	wh/1013.bmp
482.40	0.72	661	6	3	76	mem	lib	mod	mod	low	tg	ht	wh/0438.bmp
483.12	0.72	662	4	4	16	per	con	mod	mod	mod	tg	ht	wh/0583.bmp
483.84	0.72	663	6	3	88	per	lib	mod	mod	mod	nt	fa	nh/0071_nh.bmp
484.56	0.72	664	1	2	100	mem	lib	low	low	mod	tg	ht	wh/0498.bmp
485.28	0.72	665	3	4	12	per	con	mod	mod	mod	nt	cr	nh/0104_nh.bmp
486.00	0.72	666	1	1	33	per	con	mod	low	mod	tg	ht	wh/0304.bmp
486.72	0.72	667	3	4	112	per	con	low	mod	low	nt	cr	nh/0988_nh.bmp
487.44	0.72	668	5	2	90	per	con	low	mod	low	tg	ms	wh/0174.bmp
488.16	0.72	669	6	4	42	mem	lib	mod	mod	mod	nt	ht	nh/0137_nh.bmp
488.88	0.72	670	6	2	90	per	con	low	mod	low	tg	ms	wh/0174.bmp
489.60	0.72	671	3	4	62	mem	con	mod	mod	low	tg	ms	wh/0671.bmp
490.32	0.72	672	5	1	56	per	lib	low	mod	low	tg	ht	wh/0615.bmp
491.04	0.72	673	5	3	69	mem	lib	mod	mod	low	tg	ht	wh/0914.bmp
491.76	0.72	674	4	4	57	mem	con	mod	mod	low	tg	ms	wh/0672.bmp
492.48	0.72	675	1	4	28	per	lib	mod	low	mod	nt	cr	nh/0944_nh.bmp
493.20	0.72	676	6	1	109	mem	con	mod	mod	low	tg	ht	wh/1000.bmp
493.92	0.72	677	5	4	13	per	con	mod	mod	mod	tg	ms	wh/0348.bmp
494.64	0.72	678	4	3	77	mem	lib	mod	mod	low	nt	ht	nh/0293_nh.bmp
495.36	0.72	679	6	4	9	per	con	mod	mod	mod	nt	cr	nh/0413_nh.bmp
496.08	0.72	680	2	4	84	per	lib	low	mod	low	nt	fa	nh/0295_nh.bmp
496.80	0.72	681	1	2	104	mem	lib	low	low	mod	tg	ht	wh/0826.bmp
497.52	0.72	682	4	2	40	mem	lib	mod	mod	mod	tg	ht	wh/0806.bmp
498.24	0.72	683	1	1	6	per	con	low	low	low	nt	cr	nh/0632_nh.bmp
498.96	0.72	684	1	4	31	per	lib	mod	low	mod	tg	ht	wh/0440.bmp
499.68	0.72	685	3	2	23	mem	con	mod	mod	mod	nt	ht	nh/0365_nh.bmp
500.40	0.72	686	5	1	85	mem	lib	mod	mod	low	nt	ht	nh/0166_nh.bmp
501.12	0.72	687	1	1	3	per	con	low	low	low	nt	cr	nh/0264_nh.bmp
501.84	0.72	688	4	1	102	mem	con	mod	mod	low	tg	ms	wh/0195.bmp
502.56	0.72	689	5	3	61	mem	con	mod	mod	mod	nt	ht	nh/0562_nh.bmp
503.28	0.72	690	5	1	102	mem	con	mod	mod	low	tg	ms	wh/0195.bmp
504.00	0.72	691	6	4	47	mem	lib	mod	mod	mod	tg	ht	wh/0645.bmp
504.72	0.72	692	4	4	45	mem	lib	mod	mod	mod	nt	ht	nh/0961_nh.bmp
505.44	0.72	693	5	1	100	mem	con	mod	mod	low	tg	ht	wh/0400.bmp
506.16	0.72	694	5	4	45	mem	lib	mod	mod	mod	nt	ht	nh/0961_nh.bmp
506.88	0.72	695	4	4	62	mem	con	mod	mod	low	tg	ms	wh/0671.bmp
507.60	0.72	696	4	4	110	per	con	low	mod	low	tg	ms	wh/0368.bmp
508.32	0.72	697	4	4	112	per	con	low	mod	low	nt	cr	nh/0988_nh.bmp
509.04	0.72	698	5	3	77	mem	lib	mod	mod	low	nt	ht	nh/0293_nh.bmp
509.76	0.72	699	5	3	91	per	lib	mod	mod	mod	nt	cr	nh/0742_nh.bmp
510.48	0.72	700	6	4	88	per	lib	low	mod	low	nt	fa	nh/0312_nh.bmp
511.20	0.72	701	5	1	107	mem	con	mod	mod	low	nt	ht	nh/0641_nh.bmp
511.92	0.72	702	4	3	87	per	lib	mod	mod	mod	tg	ht	wh/1006.bmp
512.64	0.72	703	5	2	40	mem	lib	mod	mod	mod	tg	ht	wh/0806.bmp
513.36	0.72	704	5	4	11	per	con	mod	mod	mod	nt	cr	nh/0761_nh.bmp
514.08	0.72	705	5	4	103	per	con	low	mod	low	tg	ms	wh/0323.bmp
514.80	0.72	706	1	4	32	per	lib	mod	low	mod	nt	fa	nh/0547_nh.bmp
515.52	0.72	707	4	1	57	per	lib	low	mod	low	tg	ms	wh/0236.bmp
516.24	0.72	708	4	2	93	per	con	low	mod	low	nt	cr	nh/0512_nh.bmp
516.96	0.72	709	5	2	83	per	con	low	mod	low	nt	cr	nh/0683_nh.bmp
517.68	0.72	710	3	4	84	per	lib	low	mod	low	nt	fa	nh/0295_nh.bmp
518.40	0.72	711	5	2	18	mem	con	mod	mod	mod	tg	ms	wh/0072.bmp
519.12	0.72	712	4	1	59	per	lib	low	mod	low	nt	cr	nh/0390_nh.bmp
519.84	0.72	713	4	2	23	mem	con	mod	mod	mod	nt	ht	nh/0365_nh.bmp
520.56	0.72	714	5	2	50	per	lib	mod	mod	mod	nt	fa	nh/0151_nh.bmp
521.28	0.72	715	1	3	121	per	lib	low	low	low	tg	ht	wh/0908.bmp
522.00	0.72	716	5	4	33	mem	lib	mod	mod	mod	nt	ht	nh/0738_nh.bmp
522.72	0.72	717	1	1	13	per	con	low	low	low	tg	ms	wh/0021.bmp
523.44	0.72	718	4	4	84	per	lib	low	mod	low	nt	fa	nh/0295_nh.bmp
524.16	0.72	719	6	2	37	mem	lib	mod	mod	mod	tg	ht	wh/0689.bmp
524.88	0.72	720	5	3	81	per	lib	mod	mod	mod	nt	cr	nh/0901_nh.bmp
525.60	0.72	721	5	1	50	per	lib	low	mod	low	nt	cr	nh/0523_nh.bmp
526.32	0.72	722	5	2	38	mem	lib	mod	mod	mod	nt	ht	nh/0895_nh.bmp
527.04	0.72	723	5	3	64	mem	con	mod	mod	mod	nt	ms	nh/0628_nh.bmp
527.76	0.72	724	1	2	74	mem	con	low	low	low	nt	ms	nh/0127_nh.bmp
528.48	0.72	725	1	2	68	mem	con	low	low	low	tg	ms	wh/0120.bmp
529.20	0.72	726	5	3	53	mem	con	mod	mod	mod	tg	ht	wh/0359.bmp
529.92	0.72	727	5	4	51	mem	con	mod	mod	low	nt	ht	nh/0302_nh.bmp
530.64	0.72	728	4	2	122	per	con	mod	mod	mod	nt	cr	nh/0861_nh.bmp
531.36	0.72	729	4	3	72	mem	lib	mod	mod	low	tg	ht	wh/0554.bmp
532.08	0.72	730	6	2	22	mem	con	mod	mod	mod	nt	ms	nh/0049_nh.bmp
532.80	0.72	731	5	4	64	mem	con	mod	mod	low	nt	ms	nh/0496_nh.bmp
533.52	0.72	732	5	3	60	mem	con	mod	mod	mod	tg	ht	wh/0097.bmp
534.24	0.72	733	1	4	117	mem	con	low	low	mod	nt	ms	nh/0854_nh.bmp
534.96	0.72	734	6	2	18	mem	con	mod	mod	mod	tg	ms	wh/0072.bmp
535.68	0.72	735	6	3	64	mem	con	mod	mod	mod	nt	ms	nh/0628_nh.bmp
536.40	0.72	736	5	1	81	mem	lib	mod	mod	low	tg	ht	wh/0081.bmp
537.12	0.72	737	4	4	92	per	lib	low	mod	low	tg	ht	wh/0791.bmp
537.84	0.72	738	5	4	92	per	lib	low	mod	low	tg	ht	wh/0791.bmp
538.56	0.72	739	5	4	57	mem	con	mod	mod	low	tg	ms	wh/0672.bmp
539.28	0.72	740	6	4	102	per	con	low	mod	low	tg	ms	wh/0386.bmp
540.00	0.72	741	4	4	63	mem	con	mod	mod	low	tg	ht	wh/0422.bmp
540.72	0.72	742	6	3	81	per	lib	mod	mod	mod	nt	cr	nh/0901_nh.bmp
541.44	0.72	743	6	3	75	mem	lib	mod	mod	low	nt	ht	nh/0412_nh.bmp
542.16	0.72	744	4	3	74	mem	lib	mod	mod	low	nt	ms	nh/0263_nh.bmp
542.88	0.72	745	4	4	12	per	con	mod	mod	mod	nt	cr	nh/0104_nh.bmp
543.60	0.72	746	6	2	40	mem	lib	mod	mod	mod	tg	ht	wh/0806.bmp
544.32	0.72	747	4	4	44	mem	lib	mod	mod	mod	tg	ht	wh/0665.bmp
545.04	0.72	748	5	2	61	per	lib	mod	mod	mod	tg	ht	wh/0445.bmp
545.76	0.72	749	5	2	62	per	lib	mod	mod	mod	nt	cr	nh/0705_nh.bmp
546.48	0.72	750	5	4	12	per	con	mod	mod	mod	nt	cr	nh/0104_nh.bmp
547.20	0.72	751	5	2	45	mem	lib	mod	mod	mod	nt	ht	nh/0664_nh.bmp
547.92	0.72	752	5	2	33	mem	lib	mod	mod	mod	tg	ht	wh/0592.bmp
548.64	0.72	753	5	4	62	mem	con	mod	mod	low	tg	ms	wh/0671.bmp
549.36	0.72	754	6	3	59	mem	con	mod	mod	mod	tg	ms	wh/0331.bmp
550.08	0.72	755	4	4	91	per	lib	low	mod	low	tg	ht	wh/0494.bmp
550.80	0.72	756	5	4	84	per	lib	low	mod	low	nt	fa	nh/0295_nh.bmp
551.52	0.72	757	6	1	52	per	lib	low	mod	low	nt	fa	nh/0131_nh.bmp
552.24	0.72	758	5	2	30	mem	con	mod	mod	mod	tg	ms	wh/0061.bmp
552.96	0.72	759	4	2	24	mem	con	mod	mod	mod	tg	ms	wh/0943.bmp
553.68	0.72	760	5	2	122	per	con	mod	mod	mod	nt	cr	nh/0861_nh.bmp
554.40	0.72	761	5	3	87	per	lib	mod	mod	mod	tg	ht	wh/1006.bmp
555.12	0.72	762	6	3	61	mem	con	mod	mod	mod	nt	ht	nh/0562_nh.bmp
555.84	0.72	763	1	1	44	per	con	mod	low	mod	nt	cr	nh/0230_nh.bmp
556.56	0.72	764	6	4	51	mem	con	mod	mod	low	nt	ht	nh/0302_nh.bmp
557.28	0.72	765	5	3	72	mem	lib	mod	mod	low	tg	ht	wh/0554.bmp
558.00	0.72	766	6	1	92	mem	lib	mod	mod	low	tg	ht	wh/0509.bmp
558.72	0.72	767	1	2	6	per	lib	low	low	low	nt	cr	nh/0877_nh.bmp
559.44	0.72	768	6	2	38	mem	lib	mod	mod	mod	nt	ht	nh/0895_nh.bmp
560.16	0.72	769	6	4	87	per	lib	low	mod	low	nt	fa	nh/0415_nh.bmp
560.88	0.72	770	5	4	110	per	con	low	mod	low	tg	ms	wh/0368.bmp
561.60	0.72	771	6	3	91	per	lib	mod	mod	mod	nt	cr	nh/0742_nh.bmp
562.32	0.72	772	5	4	63	mem	con	mod	mod	low	tg	ht	wh/0422.bmp
563.04	0.72	773	5	1	57	per	lib	low	mod	low	tg	ms	wh/0236.bmp
563.76	0.72	774	6	3	60	mem	con	mod	mod	mod	tg	ht	wh/0097.bmp
564.48	0.72	775	6	1	81	mem	lib	mod	mod	low	tg	ht	wh/0081.bmp
565.20	0.72	776	4	4	98	per	con	low	mod	low	nt	cr	nh/0661_nh.bmp
565.92	0.72	777	4	4	35	mem	lib	mod	mod	mod	nt	ht	nh/0796_nh.bmp
566.64	0.72	778	6	1	56	per	lib	low	mod	low	tg	ht	wh/0615.bmp
567.36	0.72	779	6	2	61	per	lib	mod	mod	mod	tg	ht	wh/0445.bmp
568.08	0.72	780	5	4	35	mem	lib	mod	mod	mod	nt	ht	nh/0796_nh.bmp
568.80	0.72	781	6	3	70	mem	lib	mod	mod	low	tg	ht	wh/0765.bmp
569.52	0.72	782	5	1	59	per	lib	low	mod	low	nt	cr	nh/0390_nh.bmp
570.24	0.72	783	5	4	112	per	con	low	mod	low	nt	cr	nh/0988_nh.bmp
570.96	0.72	784	6	4	35	mem	lib	mod	mod	mod	nt	ht	nh/0796_nh.bmp
571.68	0.72	785	1	3	45	per	con	mod	low	mod	nt	cr	nh/0470_nh.bmp
572.40	0.72	786	6	1	58	per	lib	low	mod	low	tg	ht	wh/0798.bmp
573.12	0.72	787	5	2	91	per	con	low	mod	low	tg	ms	wh/0067.bmp
573.84	0.72	788	6	1	85	mem	lib	mod	mod	low	nt	ht	nh/0166_nh.bmp
574.56	0.72	789	1	4	127	mem	con	low	low	mod	tg	ms	wh/0917.bmp
575.28	0.72	790	6	2	58	per	lib	mod	mod	mod	tg	ht	wh/0753.bmp
576.00	0.72	791	6	2	96	per	con	low	mod	low	nt	cr	nh/0976_nh.bmp
576.72	0.72	792	1	3	27	per	con	low	low	low	nt	cr	nh/0335_nh.bmp
577.44	0.72	793	6	2	31	mem	con	mod	mod	mod	tg	ms	wh/0427.bmp
578.16	0.72	794	6	4	1	per	con	mod	mod	mod	tg	ht	wh/0674.bmp
578.88	0.72	795	6	3	56	mem	con	mod	mod	mod	tg	ms	wh/0313.bmp
579.60	0.72	796	6	1	101	mem	con	mod	mod	low	tg	ms	wh/0283.bmp
580.32	0.72	797	5	2	24	mem	con	mod	mod	mod	tg	ms	wh/0943.bmp
581.04	0.72	798	6	3	77	mem	lib	mod	mod	low	nt	ht	nh/0293_nh.bmp
581.76	0.72	799	6	1	57	per	lib	low	mod	low	tg	ms	wh/0236.bmp
582.48	0.72	800	6	4	11	per	con	mod	mod	mod	nt	cr	nh/0761_nh.bmp
583.20	0.72	801	6	4	63	mem	con	mod	mod	low	tg	ht	wh/0422.bmp
583.92	0.72	802	6	2	45	mem	lib	mod	mod	mod	nt	ht	nh/0664_nh.bmp
584.64	0.72	803	5	4	41	mem	lib	mod	mod	mod	tg	ht	wh/0925.bmp
585.36	0.72	804	6	2	122	per	con	mod	mod	mod	nt	cr	nh/0861_nh.bmp
586.08	0.72	805	6	2	55	per	lib	mod	mod	mod	nt	cr	nh/0343_nh.bmp
586.80	0.72	806	6	3	53	mem	con	mod	mod	mod	tg	ht	wh/0359.bmp
587.52	0.72	807	6	2	50	per	lib	mod	mod	mod	nt	fa	nh/0151_nh.bmp
588.24	0.72	808	6	1	107	mem	con	mod	mod	low	nt	ht	nh/0641_nh.bmp
588.96	0.72	809	6	2	33	mem	lib	mod	mod	mod	tg	ht	wh/0592.bmp
589.68	0.72	810	1	3	128	per	lib	low	low	low	tg	ms	wh/0504.bmp
590.40	0.72	811	1	1	10	per	con	low	low	low	tg	ms	wh/0310.bmp
591.12	0.72	812	6	1	111	mem	con	mod	mod	low	nt	ms	nh/0454_nh.bmp
591.84	0.72	813	5	2	23	mem	con	mod	mod	mod	nt	ht	nh/0365_nh.bmp
592.56	0.72	814	6	1	84	mem	lib	mod	mod	low	nt	ht	nh/0030_nh.bmp
593.28	0.72	815	5	3	74	mem	lib	mod	mod	low	nt	ms	nh/0263_nh.bmp
594.00	0.72	816	1	1	68	mem	con	low	low	mod	nt	ms	nh/0557_nh.bmp
594.72	0.72	817	6	3	74	mem	lib	mod	mod	low	nt	ms	nh/0263_nh.bmp
595.44	0.72	818	5	2	29	mem	con	mod	mod	mod	nt	ms	nh/0931_nh.bmp
596.16	0.72	819	6	1	100	mem	con	mod	mod	low	tg	ht	wh/0400.bmp
596.88	0.72	820	6	4	33	mem	lib	mod	mod	mod	nt	ht	nh/0738_nh.bmp
597.60	0.72	821	6	4	57	mem	con	mod	mod	low	tg	ms	wh/0672.bmp
598.32	0.72	822	6	4	41	mem	lib	mod	mod	mod	tg	ht	wh/0925.bmp
599.04	0.72	823	6	4	110	per	con	low	mod	low	tg	ms	wh/0368.bmp
599.76	0.72	824	4	3	66	mem	lib	mod	mod	low	nt	ht	nh/0459_nh.bmp
600.48	0.72	825	1	1	80	mem	con	low	low	mod	tg	ms	wh/0539.bmp
601.20	0.72	826	5	3	52	mem	con	mod	mod	mod	nt	ht	nh/0799_nh.bmp
601.92	0.72	827	5	2	88	per	con	low	mod	low	nt	cr	nh/0792_nh.bmp
602.64	0.72	828	5	1	96	mem	lib	mod	mod	low	nt	ht	nh/0246_nh.bmp
603.36	0.72	829	6	2	56	per	lib	mod	mod	mod	nt	fa	nh/0538_nh.bmp
604.08	0.72	830	6	2	119	per	con	mod	mod	mod	tg	ht	wh/0834.bmp
604.80	0.72	831	6	3	95	per	lib	mod	mod	mod	tg	ht	wh/0576.bmp
605.52	0.72	832	6	4	64	mem	con	mod	mod	low	nt	ms	nh/0496_nh.bmp
606.24	0.72	833	6	3	92	per	lib	mod	mod	mod	tg	ht	wh/0487.bmp
606.96	0.72	834	6	4	12	per	con	mod	mod	mod	nt	cr	nh/0104_nh.bmp
607.68	0.72	835	6	4	112	per	con	low	mod	low	nt	cr	nh/0988_nh.bmp
608.40	0.72	836	1	1	18	per	lib	mod	low	mod	tg	ht	wh/0409.bmp
609.12	0.72	837	5	4	98	per	con	low	mod	low	nt	cr	nh/0661_nh.bmp
609.84	0.72	838	5	4	16	per	con	mod	mod	mod	tg	ht	wh/0583.bmp
610.56	0.72	839	6	2	29	mem	con	mod	mod	mod	nt	ms	nh/0931_nh.bmp
611.28	0.72	840	1	2	2	per	lib	low	low	low	tg	ms	wh/0500.bmp
612.00	0.72	841	6	1	59	per	lib	low	mod	low	nt	cr	nh/0390_nh.bmp
612.72	0.72	842	6	4	98	per	con	low	mod	low	nt	cr	nh/0661_nh.bmp
613.44	0.72	843	6	3	52	mem	con	mod	mod	mod	nt	ht	nh/0799_nh.bmp
614.16	0.72	844	5	1	104	mem	con	mod	mod	low	nt	ht	nh/0703_nh.bmp
614.88	0.72	845	6	2	128	per	con	mod	mod	mod	tg	ms	wh/0759.bmp
615.60	0.72	846	6	3	69	mem	lib	mod	mod	low	tg	ht	wh/0914.bmp
616.32	0.72	847	5	2	93	per	con	low	mod	low	nt	cr	nh/0512_nh.bmp
617.04	0.72	848	6	1	104	mem	con	mod	mod	low	nt	ht	nh/0703_nh.bmp
617.76	0.72	849	6	4	62	mem	con	mod	mod	low	tg	ms	wh/0671.bmp
618.48	0.72	850	6	3	72	mem	lib	mod	mod	low	tg	ht	wh/0554.bmp
619.20	0.72	851	6	1	102	mem	con	mod	mod	low	tg	ms	wh/0195.bmp
619.92	0.72	852	5	4	100	per	con	low	mod	low	nt	cr	nh/0511_nh.bmp
620.64	0.72	853	6	1	50	per	lib	low	mod	low	nt	cr	nh/0523_nh.bmp
621.36	0.72	854	6	2	93	per	con	low	mod	low	nt	cr	nh/0512_nh.bmp
622.08	0.72	855	6	1	54	per	lib	low	mod	low	tg	ht	wh/0424.bmp
622.80	0.72	856	5	4	56	mem	con	mod	mod	low	tg	ms	wh/0259.bmp
623.52	0.72	857	6	3	54	mem	con	mod	mod	mod	nt	ms	nh/0333_nh.bmp
624.24	0.72	858	6	4	3	per	con	mod	mod	mod	tg	ms	wh/0970.bmp
624.96	0.72	859	6	2	49	per	lib	mod	mod	mod	tg	ht	wh/0282.bmp
625.68	0.72	860	6	4	56	mem	con	mod	mod	low	tg	ms	wh/0259.bmp
626.40	0.72	861	6	4	100	per	con	low	mod	low	nt	cr	nh/0511_nh.bmp
627.12	0.72	862	1	3	24	per	con	low	low	low	nt	cr	nh/0327_nh.bmp
627.84	0.72	863	6	4	84	per	lib	low	mod	low	nt	fa	nh/0295_nh.bmp
628.56	0.72	864	5	3	66	mem	lib	mod	mod	low	nt	ht	nh/0459_nh.bmp
629.28	0.72	865	6	2	23	mem	con	mod	mod	mod	nt	ht	nh/0365_nh.bmp
630.00	0.72	866	6	2	127	per	con	mod	mod	mod	nt	cr	nh/0039_nh.bmp
630.72	0.72	867	6	2	91	per	con	low	mod	low	tg	ms	wh/0067.bmp
631.44	0.72	868	6	2	32	mem	con	mod	mod	mod	nt	ms	nh/0604_nh.bmp
632.16	0.72	869	6	4	92	per	lib	low	mod	low	tg	ht	wh/0791.bmp
632.88	0.72	870	5	4	91	per	lib	low	mod	low	tg	ht	wh/0494.bmp
633.60	0.72	871	1	3	124	per	lib	low	low	low	nt	fa	nh/0524_nh.bmp
634.32	0.72	872	6	2	24	mem	con	mod	mod	mod	tg	ms	wh/0943.bmp
635.04	0.72	873	6	4	16	per	con	mod	mod	mod	tg	ht	wh/0583.bmp
635.76	0.72	874	6	2	124	per	con	mod	mod	mod	tg	ms	wh/0344.bmp
636.48	0.72	875	6	1	86	mem	lib	mod	mod	low	tg	ht	wh/0315.bmp
637.20	0.72	876	5	4	44	mem	lib	mod	mod	mod	tg	ht	wh/0665.bmp
637.92	0.72	877	6	2	30	mem	con	mod	mod	mod	tg	ms	wh/0061.bmp
638.64	0.72	878	6	2	57	per	lib	mod	mod	mod	tg	ht	wh/0490.bmp
639.36	0.72	879	1	1	78	mem	con	low	low	mod	nt	ht	nh/0346_nh.bmp
640.08	0.72	880	1	3	8	mem	lib	low	low	mod	nt	ht	nh/0003_nh.bmp
640.80	0.72	881	1	4	66	mem	lib	low	low	low	nt	ht	nh/0989_nh.bmp
641.52	0.72	882	6	2	62	per	lib	mod	mod	mod	nt	cr	nh/0705_nh.bmp
642.24	0.72	883	6	4	103	per	con	low	mod	low	tg	ms	wh/0323.bmp
642.96	0.72	884	6	4	13	per	con	mod	mod	mod	tg	ms	wh/0348.bmp
643.68	0.72	885	6	4	44	mem	lib	mod	mod	mod	tg	ht	wh/0665.bmp
644.40	0.72	886	6	4	49	mem	con	mod	mod	low	nt	ms	nh/0212_nh.bmp
645.12	0.72	887	6	3	87	per	lib	mod	mod	mod	tg	ht	wh/1006.bmp
645.84	0.72	888	6	2	83	per	con	low	mod	low	nt	cr	nh/0683_nh.bmp
646.56	0.72	889	1	2	14	per	lib	low	low	low	tg	ms	wh/0171.bmp
647.28	0.72	890	1	2	7	per	lib	low	low	low	nt	cr	nh/0026_nh.bmp
648.00	0.72	891	6	1	96	mem	lib	mod	mod	low	nt	ht	nh/0246_nh.bmp
648.72	0.72	892	6	4	91	per	lib	low	mod	low	tg	ht	wh/0494.bmp
649.44	0.72	893	6	3	66	mem	lib	mod	mod	low	nt	ht	nh/0459_nh.bmp
650.16	0.72	894	6	4	45	mem	lib	mod	mod	mod	nt	ht	nh/0961_nh.bmp
650.88	0.72	895	1	2	97	mem	lib	low	low	mod	tg	ht	wh/0644.bmp
651.60	0.72	896	6	2	88	per	con	low	mod	low	nt	cr	nh/0792_nh.bmp
