onset	duration	trial	pres	ts_blk	ts_trl	task	crit	disc	mem_disc	per_disc	per_type	accuracy	stim_file
7.20	0.72	1	1	3	28	per	lib	mod	mod	mod	tg	ht	wh/0895.bmp
7.92	0.72	2	1	2	72	mem	con	mod	mod	mod	nt	ht	nh/0970_nh.bmp
8.64	0.72	3	1	1	49	mem	con	low	low	low	nt	ht	nh/0167_nh.bmp
9.36	0.72	4	1	1	48	per	lib	mod	mod	mod	tg	ms	wh/0796.bmp
10.08	0.72	5	1	4	51	per	lib	low	low	low	tg	ms	wh/0314.bmp
10.80	0.72	6	1	3	25	per	lib	mod	mod	mod	nt	cr	nh/0689_nh.bmp
11.52	0.72	7	1	4	26	mem	lib	mod	mod	low	nt	ht	nh/0236_nh.bmp
12.24	0.72	8	1	1	82	per	lib	low	mod	low	tg	ms	wh/0412.bmp
12.96	0.72	9	1	3	81	per	con	mod	low	mod	nt	cr	nh/0670_nh.bmp
13.68	0.72	10	1	1	122	mem	con	mod	mod	low	nt	ht	nh/0323_nh.bmp
14.40	0.72	11	1	1	36	per	lib	mod	mod	mod	nt	cr	nh/0645_nh.bmp
15.12	0.72	12	1	3	33	per	con	low	mod	low	tg	ms	wh/0641.bmp
15.84	0.72	13	1	3	99	per	lib	low	mod	low	nt	cr	nh/0081_nh.bmp
16.56	0.72	14	1	3	40	per	con	low	mod	low	nt	cr	nh/1000_nh.bmp
17.28	0.72	15	1	3	42	per	con	low	mod	low	tg	ms	wh/0703.bmp
18.00	0.72	16	1	1	118	mem	con	mod	mod	low	nt	ms	nh/0368_nh.bmp
18.72	0.72	17	1	1	95	per	lib	low	mod	low	nt	cr	nh/0438_nh.bmp
19.44	0.72	18	1	1	42	per	lib	mod	mod	mod	tg	ht	wh/0137.bmp
20.16	0.72	19	1	2	108	mem	lib	mod	mod	mod	nt	ms	nh/1006_nh.bmp
20.88	0.72	20	1	2	101	mem	lib	mod	mod	mod	nt	ht	nh/0576_nh.bmp
21.60	0.72	21	1	1	9	mem	lib	mod	mod	low	tg	ms	wh/0295.bmp
22.32	0.72	22	1	4	15	mem	con	mod	mod	low	tg	ms	wh/0683.bmp
23.04	0.72	23	1	1	123	mem	con	mod	mod	low	nt	ms	nh/0203_nh.bmp
23.76	0.72	24	1	2	110	mem	lib	mod	mod	mod	tg	ht	wh/0320.bmp
24.48	0.72	25	1	4	119	per	con	mod	mod	mod	tg	ms	wh/0049.bmp
25.20	0.72	26	1	1	60	mem	con	low	low	low	nt	ht	nh/0010_nh.bmp
25.92	0.72	27	1	3	66	mem	con	low	low	mod	tg	ht	wh/0004.bmp
26.64	0.72	28	1	1	11	mem	lib	mod	mod	low	tg	ms	wh/0415.bmp
27.36	0.72	29	1	3	69	mem	con	low	low	mod	nt	ht	nh/0894_nh.bmp
28.08	0.72	30	1	4	99	per	con	low	low	low	tg	ms	wh/0127.bmp
28.80	0.72	31	1	1	22	per	con	mod	low	mod	tg	ms	wh/0069.bmp
29.52	0.72	32	1	1	39	per	lib	mod	mod	mod	tg	ht	wh/0961.bmp
30.24	0.72	33	1	3	62	mem	lib	low	low	mod	nt	ms	nh/0085_nh.bmp
30.96	0.72	34	1	1	64	mem	con	low	low	low	tg	ms	wh/0327.bmp
31.68	0.72	35	1	1	12	mem	lib	mod	mod	low	nt	ht	nh/0494_nh.bmp
32.40	0.72	36	1	3	84	per	con	mod	low	mod	nt	cr	nh/0539_nh.bmp
33.12	0.72	37	2	2	72	mem	con	mod	mod	mod	nt	ht	nh/0970_nh.bmp
33.84	0.72	38	2	3	33	per	con	low	mod	low	tg	ms	wh/0641.bmp
34.56	0.72	39	1	3	114	mem	lib	mod	mod	mod	nt	ms	nh/0490_nh.bmp
35.28	0.72	40	1	3	101	per	lib	low	mod	low	nt	cr	nh/0315_nh.bmp
36.00	0.72	41	2	3	101	per	lib	low	mod	low	nt	cr	nh/0315_nh.bmp
36.72	0.72	42	1	2	76	mem	con	mod	mod	mod	tg	ms	wh/0413.bmp
37.44	0.72	43	1	2	109	mem	lib	mod	mod	mod	nt	ht	nh/0487_nh.bmp
38.16	0.72	44	1	1	121	mem	con	mod	mod	low	tg	ms	wh/0511.bmp
38.88	0.72	45	1	4	122	per	con	mod	mod	mod	tg	ms	wh/0604.bmp
39.60	0.72	46	1	3	125	mem	lib	mod	mod	mod	nt	ht	nh/0753_nh.bmp
40.32	0.72	47	1	2	66	mem	con	mod	mod	mod	nt	ht	nh/0583_nh.bmp
41.04	0.72	48	1	4	9	mem	con	mod	mod	low	nt	ht	nh/0174_nh.bmp
41.76	0.72	49	1	3	116	mem	lib	mod	mod	mod	tg	ht	wh/0705.bmp
42.48	0.72	50	1	1	79	mem	lib	low	low	mod	tg	ms	wh/0547.bmp
43.20	0.72	51	1	3	21	per	lib	mod	mod	mod	tg	ht	wh/0229.bmp
43.92	0.72	52	1	1	5	mem	lib	mod	mod	low	nt	ms	nh/0791_nh.bmp
44.64	0.72	53	1	2	118	per	con	mod	mod	mod	tg	ht	wh/0562.bmp
45.36	0.72	54	1	3	15	mem	con	mod	mod	mod	tg	ht	wh/0809.bmp
46.08	0.72	55	1	2	6	mem	con	low	low	mod	nt	ht	nh/0050_nh.bmp
46.80	0.72	56	1	3	13	mem	con	mod	mod	mod	nt	ms	nh/0358_nh.bmp
47.52	0.72	57	2	3	15	mem	con	mod	mod	mod	tg	ht	wh/0809.bmp
48.24	0.72	58	1	1	29	per	con	mod	low	mod	tg	ht	wh/0102.bmp
48.96	0.72	59	1	3	109	per	lib	low	mod	low	tg	ms	wh/0410.bmp
49.68	0.72	60	1	4	29	mem	lib	mod	mod	low	tg	ht	wh/0523.bmp
50.40	0.72	61	1	4	6	mem	con	mod	mod	low	tg	ht	wh/0512.bmp
51.12	0.72	62	2	2	101	mem	lib	mod	mod	mod	nt	ht	nh/0576_nh.bmp
51.84	0.72	63	1	3	20	per	lib	mod	mod	mod	nt	cr	nh/0806_nh.bmp
52.56	0.72	64	1	2	113	per	con	mod	mod	mod	tg	ht	wh/0799.bmp
53.28	0.72	65	2	3	116	mem	lib	mod	mod	mod	tg	ht	wh/0705.bmp
54.00	0.72	66	1	4	118	per	con	mod	mod	mod	tg	ht	wh/0931.bmp
54.72	0.72	67	2	3	125	mem	lib	mod	mod	mod	nt	ht	nh/0753_nh.bmp
55.44	0.72	68	1	3	38	per	con	low	mod	low	nt	cr	nh/0400_nh.bmp
56.16	0.72	69	1	3	123	mem	lib	mod	mod	mod	nt	ht	nh/0282_nh.bmp
56.88	0.72	70	3	3	101	per	lib	low	mod	low	nt	cr	nh/0315_nh.bmp
57.60	0.72	71	1	2	63	per	con	low	low	low	tg	n/a	wh/0184.bmp
58.32	0.72	72	1	2	128	per	con	mod	mod	mod	nt	n/a	nh/0331_nh.bmp
59.04	0.72	73	1	1	93	per	lib	low	mod	low	nt	cr	nh/0554_nh.bmp
59.76	0.72	74	1	3	127	mem	lib	mod	mod	mod	tg	ht	wh/0151.bmp
60.48	0.72	75	2	1	12	mem	lib	mod	mod	low	nt	ht	nh/0494_nh.bmp
61.20	0.72	76	2	4	6	mem	con	mod	mod	low	tg	ht	wh/0512.bmp
61.92	0.72	77	2	3	114	mem	lib	mod	mod	mod	nt	ms	nh/0490_nh.bmp
62.64	0.72	78	1	3	24	per	lib	mod	mod	mod	nt	cr	nh/0479_nh.bmp
63.36	0.72	79	1	1	128	mem	con	mod	mod	low	nt	ht	nh/0386_nh.bmp
64.08	0.72	80	1	3	2	mem	con	mod	mod	mod	tg	ht	wh/0477.bmp
64.80	0.72	81	3	4	6	mem	con	mod	mod	low	tg	ht	wh/0512.bmp
65.52	0.72	82	1	1	35	per	lib	mod	mod	mod	nt	fa	nh/0279_nh.bmp
66.24	0.72	83	1	1	127	mem	con	mod	mod	low	tg	ht	wh/0661.bmp
66.96	0.72	84	1	4	25	mem	lib	mod	mod	low	nt	ms	nh/0798_nh.bmp
67.68	0.72	85	1	4	127	per	con	mod	mod	mod	nt	cr	nh/0943_nh.bmp
68.40	0.72	86	1	4	47	mem	con	low	low	low	tg	ms	wh/0565.bmp
69.12	0.72	87	1	4	106	per	con	low	low	low	tg	ms	wh/0492.bmp
69.84	0.72	88	2	3	21	per	lib	mod	mod	mod	tg	ht	wh/0229.bmp
70.56	0.72	89	1	2	122	per	con	mod	mod	mod	tg	n/a	wh/0333.bmp
71.28	0.72	90	1	1	13	mem	lib	mod	mod	low	tg	ms	wh/0312.bmp
72.00	0.72	91	1	2	125	per	con	mod	mod	mod	tg	ht	wh/0628.bmp
72.72	0.72	92	1	1	1	mem	lib	mod	mod	low	nt	ms	nh/1013_nh.bmp
73.44	0.72	93	1	2	14	mem	con	low	low	mod	nt	ms	nh/0502_nh.bmp
74.16	0.72	94	1	4	24	mem	lib	mod	mod	low	tg	ms	wh/0390.bmp
74.88	0.72	95	1	2	83	per	lib	low	low	low	tg	ms	wh/0169.bmp
75.60	0.72	96	3	2	72	mem	con	mod	mod	mod	nt	ht	nh/0970_nh.bmp
76.32	0.72	97	1	1	8	mem	lib	mod	mod	low	tg	ht	wh/0444.bmp
77.04	0.72	98	1	3	108	per	lib	low	mod	low	nt	cr	nh/0575_nh.bmp
77.76	0.72	99	1	2	69	mem	con	mod	mod	mod	tg	ht	wh/0983.bmp
78.48	0.72	100	1	1	105	per	con	low	mod	low	tg	ms	wh/0212.bmp
79.20	0.72	101	1	2	16	mem	con	low	low	mod	tg	ms	wh/0470.bmp
79.92	0.72	102	2	1	123	mem	con	mod	mod	low	nt	ms	nh/0203_nh.bmp
80.64	0.72	103	1	1	2	mem	lib	mod	mod	low	nt	ht	nh/0007_nh.bmp
81.36	0.72	104	1	2	126	per	con	mod	mod	mod	nt	cr	nh/0359_nh.bmp
82.08	0.72	105	1	4	4	mem	con	mod	mod	low	nt	n/a	nh/0643_nh.bmp
82.80	0.72	106	1	4	104	per	con	low	low	low	nt	n/a	nh/0720_nh.bmp
83.52	0.72	107	2	4	4	mem	con	mod	mod	low	nt	n/a	nh/0643_nh.bmp
84.24	0.72	108	1	1	94	per	lib	low	mod	low	tg	ht	wh/0263.bmp
84.96	0.72	109	1	2	80	mem	con	mod	mod	mod	tg	ms	wh/0104.bmp
85.68	0.72	110	1	4	86	per	lib	mod	low	mod	nt	cr	nh/0826_nh.bmp
86.40	0.72	111	1	2	97	mem	lib	mod	mod	mod	tg	ht	wh/0901.bmp
87.12	0.72	112	1	1	116	mem	con	mod	mod	low	tg	ms	wh/0124.bmp
87.84	0.72	113	1	1	115	mem	con	mod	mod	low	tg	ht	wh/0988.bmp
88.56	0.72	114	2	1	8	mem	lib	mod	mod	low	tg	ht	wh/0444.bmp
89.28	0.72	115	1	3	35	per	con	low	mod	low	tg	ms	wh/0454.bmp
90.00	0.72	116	2	1	1	mem	lib	mod	mod	low	nt	ms	nh/1013_nh.bmp
90.72	0.72	117	2	2	118	per	con	mod	mod	mod	tg	ht	wh/0562.bmp
91.44	0.72	118	1	2	100	mem	lib	mod	mod	mod	tg	ht	wh/0071.bmp
92.16	0.72	119	1	4	20	mem	lib	mod	mod	low	nt	ht	nh/0424_nh.bmp
92.88	0.72	120	2	3	38	per	con	low	mod	low	nt	cr	nh/0400_nh.bmp
93.60	0.72	121	1	4	10	mem	con	mod	mod	low	tg	ms	wh/0976.bmp
94.32	0.72	122	1	4	96	per	lib	mod	low	mod	tg	ms	wh/0317.bmp
95.04	0.72	123	1	4	55	per	lib	low	low	low	nt	cr	nh/0743_nh.bmp
95.76	0.72	124	2	3	25	per	lib	mod	mod	mod	nt	cr	nh/0689_nh.bmp
96.48	0.72	125	3	1	8	mem	lib	mod	mod	low	tg	ht	wh/0444.bmp
97.20	0.72	126	1	1	44	per	lib	mod	mod	mod	nt	cr	nh/0925_nh.bmp
97.92	0.72	127	2	4	10	mem	con	mod	mod	low	tg	ms	wh/0976.bmp
98.64	0.72	128	1	3	6	mem	con	mod	mod	mod	nt	ms	nh/0759_nh.bmp
99.36	0.72	129	2	1	93	per	lib	low	mod	low	nt	cr	nh/0554_nh.bmp
100.08	0.72	130	2	3	127	mem	lib	mod	mod	mod	tg	ht	wh/0151.bmp
100.80	0.72	131	1	1	45	per	lib	mod	mod	mod	tg	ht	wh/0738.bmp
101.52	0.72	132	1	3	50	mem	lib	low	low	mod	tg	ht	wh/0620.bmp
102.24	0.72	133	1	3	118	mem	lib	mod	mod	mod	nt	ms	nh/0445_nh.bmp
102.96	0.72	134	2	3	118	mem	lib	mod	mod	mod	nt	ms	nh/0445_nh.bmp
103.68	0.72	135	2	3	20	per	lib	mod	mod	mod	nt	cr	nh/0806_nh.bmp
104.40	0.72	136	2	1	48	per	lib	mod	mod	mod	tg	ms	wh/0796.bmp
105.12	0.72	137	2	3	2	mem	con	mod	mod	mod	tg	ht	wh/0477.bmp
105.84	0.72	138	1	4	27	mem	lib	mod	mod	low	nt	ht	nh/0615_nh.bmp
106.56	0.72	139	2	4	24	mem	lib	mod	mod	low	tg	ms	wh/0390.bmp
107.28	0.72	140	2	4	127	per	con	mod	mod	mod	nt	cr	nh/0943_nh.bmp
108.00	0.72	141	2	1	128	mem	con	mod	mod	low	nt	ht	nh/0386_nh.bmp
108.72	0.72	142	1	3	56	mem	lib	low	low	mod	tg	ms	wh/0726.bmp
109.44	0.72	143	1	3	32	per	lib	mod	mod	mod	nt	cr	nh/0592_nh.bmp
110.16	0.72	144	1	4	16	mem	con	mod	mod	low	nt	ht	nh/0757_nh.bmp
110.88	0.72	145	2	2	66	mem	con	mod	mod	mod	nt	ht	nh/0583_nh.bmp
111.60	0.72	146	2	3	108	per	lib	low	mod	low	nt	cr	nh/0575_nh.bmp
112.32	0.72	147	1	3	31	per	lib	mod	mod	mod	tg	ht	wh/0664.bmp
113.04	0.72	148	2	2	110	mem	lib	mod	mod	mod	tg	ht	wh/0320.bmp
113.76	0.72	149	1	4	117	per	con	mod	mod	mod	nt	fa	nh/0072_nh.bmp
114.48	0.72	150	1	4	21	mem	lib	mod	mod	low	tg	ms	wh/0131.bmp
115.20	0.72	151	2	1	118	mem	con	mod	mod	low	nt	ms	nh/0368_nh.bmp
115.92	0.72	152	3	4	24	mem	lib	mod	mod	low	tg	ms	wh/0390.bmp
116.64	0.72	153	3	1	1	mem	lib	mod	mod	low	nt	ms	nh/1013_nh.bmp
117.36	0.72	154	1	1	96	per	lib	low	mod	low	tg	ht	wh/0459.bmp
118.08	0.72	155	2	4	29	mem	lib	mod	mod	low	tg	ht	wh/0523.bmp
118.80	0.72	156	2	1	35	per	lib	mod	mod	mod	nt	fa	nh/0279_nh.bmp
119.52	0.72	157	2	1	94	per	lib	low	mod	low	tg	ht	wh/0263.bmp
120.24	0.72	158	1	1	76	mem	lib	low	low	mod	nt	ms	nh/0858_nh.bmp
120.96	0.72	159	1	4	75	mem	lib	low	low	low	tg	ms	wh/0242.bmp
121.68	0.72	160	1	3	105	per	lib	low	mod	low	tg	ht	wh/0030.bmp
122.40	0.72	161	2	3	6	mem	con	mod	mod	mod	nt	ms	nh/0759_nh.bmp
123.12	0.72	162	2	4	16	mem	con	mod	mod	low	nt	ht	nh/0757_nh.bmp
123.84	0.72	163	1	4	126	per	con	mod	mod	mod	nt	cr	nh/0061_nh.bmp
124.56	0.72	164	1	1	110	per	con	low	mod	low	nt	cr	nh/0671_nh.bmp
125.28	0.72	165	3	3	2	mem	con	mod	mod	mod	tg	ht	wh/0477.bmp
126.00	0.72	166	1	2	75	mem	con	mod	mod	mod	nt	ms	nh/0674_nh.bmp
126.72	0.72	167	2	4	117	per	con	mod	mod	mod	nt	fa	nh/0072_nh.bmp
127.44	0.72	168	1	4	33	mem	con	low	low	low	tg	ms	wh/0632.bmp
128.16	0.72	169	1	1	46	per	lib	mod	mod	mod	nt	cr	nh/0665_nh.bmp
128.88	0.72	170	1	1	75	mem	lib	low	low	mod	tg	ms	wh/0944.bmp
129.60	0.72	171	3	3	114	mem	lib	mod	mod	mod	nt	ms	nh/0490_nh.bmp
130.32	0.72	172	1	4	115	per	con	mod	mod	mod	tg	ms	wh/0365.bmp
131.04	0.72	173	2	3	123	mem	lib	mod	mod	mod	nt	ht	nh/0282_nh.bmp
131.76	0.72	174	2	1	127	mem	con	mod	mod	low	tg	ht	wh/0661.bmp
132.48	0.72	175	3	3	21	per	lib	mod	mod	mod	tg	ht	wh/0229.bmp
133.20	0.72	176	2	3	28	per	lib	mod	mod	mod	tg	ht	wh/0895.bmp
133.92	0.72	177	2	4	20	mem	lib	mod	mod	low	nt	ht	nh/0424_nh.bmp
134.64	0.72	178	1	3	77	mem	con	low	low	mod	tg	ht	wh/0230.bmp
135.36	0.72	179	2	1	122	mem	con	mod	mod	low	nt	ht	nh/0323_nh.bmp
136.08	0.72	180	3	4	16	mem	con	mod	mod	low	nt	ht	nh/0757_nh.bmp
136.80	0.72	181	2	1	5	mem	lib	mod	mod	low	nt	ms	nh/0791_nh.bmp
137.52	0.72	182	3	4	20	mem	lib	mod	mod	low	nt	ht	nh/0424_nh.bmp
138.24	0.72	183	3	1	122	mem	con	mod	mod	low	nt	ht	nh/0323_nh.bmp
138.96	0.72	184	3	3	33	per	con	low	mod	low	tg	ms	wh/0641.bmp
139.68	0.72	185	1	2	91	per	lib	low	low	low	tg	ms	wh/0916.bmp
140.40	0.72	186	2	4	26	mem	lib	mod	mod	low	nt	ht	nh/0236_nh.bmp
141.12	0.72	187	1	3	5	mem	con	mod	mod	mod	tg	ht	wh/0039.bmp
141.84	0.72	188	1	2	81	per	lib	low	low	low	nt	cr	nh/0535_nh.bmp
142.56	0.72	189	1	1	86	per	lib	low	mod	low	nt	cr	nh/0765_nh.bmp
143.28	0.72	190	1	3	39	per	con	low	mod	low	nt	cr	nh/0283_nh.bmp
144.00	0.72	191	2	1	96	per	lib	low	mod	low	tg	ht	wh/0459.bmp
144.72	0.72	192	1	1	98	per	con	low	mod	low	tg	ms	wh/0302.bmp
145.44	0.72	193	2	2	109	mem	lib	mod	mod	mod	nt	ht	nh/0487_nh.bmp
146.16	0.72	194	2	1	105	per	con	low	mod	low	tg	ms	wh/0212.bmp
146.88	0.72	195	3	4	4	mem	con	mod	mod	low	nt	n/a	nh/0643_nh.bmp
147.60	0.72	196	2	3	40	per	con	low	mod	low	nt	cr	nh/1000_nh.bmp
148.32	0.72	197	1	1	103	per	con	low	mod	low	nt	fa	nh/0672_nh.bmp
149.04	0.72	198	2	4	9	mem	con	mod	mod	low	nt	ht	nh/0174_nh.bmp
149.76	0.72	199	3	1	123	mem	con	mod	mod	low	nt	ms	nh/0203_nh.bmp
150.48	0.72	200	1	2	114	per	con	mod	mod	mod	nt	cr	nh/0097_nh.bmp
151.20	0.72	201	2	4	119	per	con	mod	mod	mod	tg	ms	wh/0049.bmp
151.92	0.72	202	2	2	80	mem	con	mod	mod	mod	tg	ms	wh/0104.bmp
152.64	0.72	203	3	3	108	per	lib	low	mod	low	nt	cr	nh/0575_nh.bmp
153.36	0.72	204	3	3	25	per	lib	mod	mod	mod	nt	cr	nh/0689_nh.bmp
154.08	0.72	205	1	3	45	per	con	low	mod	low	nt	cr	nh/0195_nh.bmp
154.80	0.72	206	2	1	44	per	lib	mod	mod	mod	nt	cr	nh/0925_nh.bmp
155.52	0.72	207	3	3	38	per	con	low	mod	low	nt	cr	nh/0400_nh.bmp
156.24	0.72	208	4	4	6	mem	con	mod	mod	low	tg	ht	wh/0512.bmp
156.96	0.72	209	4	1	8	mem	lib	mod	mod	low	tg	ht	wh/0444.bmp
157.68	0.72	210	4	3	114	mem	lib	mod	mod	mod	nt	ms	nh/0490_nh.bmp
158.40	0.72	211	2	1	86	per	lib	low	mod	low	nt	cr	nh/0765_nh.bmp
159.12	0.72	212	2	1	121	mem	con	mod	mod	low	tg	ms	wh/0511.bmp
159.84	0.72	213	3	4	9	mem	con	mod	mod	low	nt	ht	nh/0174_nh.bmp
160.56	0.72	214	3	2	109	mem	lib	mod	mod	mod	nt	ht	nh/0487_nh.bmp
161.28	0.72	215	2	2	75	mem	con	mod	mod	mod	nt	ms	nh/0674_nh.bmp
162.00	0.72	216	1	1	21	per	con	mod	low	mod	tg	ms	wh/0723.bmp
162.72	0.72	217	1	1	107	per	con	low	mod	low	nt	cr	nh/0422_nh.bmp
163.44	0.72	218	2	3	24	per	lib	mod	mod	mod	nt	cr	nh/0479_nh.bmp
164.16	0.72	219	2	2	108	mem	lib	mod	mod	mod	nt	ms	nh/1006_nh.bmp
164.88	0.72	220	2	1	11	mem	lib	mod	mod	low	tg	ms	wh/0415.bmp
165.60	0.72	221	2	1	36	per	lib	mod	mod	mod	nt	cr	nh/0645_nh.bmp
166.32	0.72	222	5	4	6	mem	con	mod	mod	low	tg	ht	wh/0512.bmp
167.04	0.72	223	4	1	122	mem	con	mod	mod	low	nt	ht	nh/0323_nh.bmp
167.76	0.72	224	1	3	16	mem	con	mod	mod	mod	nt	ms	nh/0834_nh.bmp
168.48	0.72	225	1	4	5	mem	con	mod	mod	low	tg	ms	wh/0792.bmp
169.20	0.72	226	1	2	46	mem	lib	low	low	low	nt	ms	nh/0107_nh.bmp
169.92	0.72	227	2	3	105	per	lib	low	mod	low	tg	ht	wh/0030.bmp
170.64	0.72	228	2	3	45	per	con	low	mod	low	nt	cr	nh/0195_nh.bmp
171.36	0.72	229	2	1	116	mem	con	mod	mod	low	tg	ms	wh/0124.bmp
172.08	0.72	230	2	3	32	per	lib	mod	mod	mod	nt	cr	nh/0592_nh.bmp
172.80	0.72	231	3	3	6	mem	con	mod	mod	mod	nt	ms	nh/0759_nh.bmp
173.52	0.72	232	1	4	18	mem	lib	mod	mod	low	tg	ht	wh/0291.bmp
174.24	0.72	233	1	3	14	mem	con	mod	mod	mod	nt	ht	nh/0344_nh.bmp
174.96	0.72	234	2	1	110	per	con	low	mod	low	nt	cr	nh/0671_nh.bmp
175.68	0.72	235	1	1	92	per	lib	low	mod	low	nt	cr	nh/0914_nh.bmp
176.40	0.72	236	2	3	31	per	lib	mod	mod	mod	tg	ht	wh/0664.bmp
177.12	0.72	237	3	4	10	mem	con	mod	mod	low	tg	ms	wh/0976.bmp
177.84	0.72	238	1	1	74	mem	lib	low	low	mod	nt	ms	nh/0719_nh.bmp
178.56	0.72	239	2	3	109	per	lib	low	mod	low	tg	ms	wh/0410.bmp
179.28	0.72	240	1	1	81	per	lib	low	mod	low	tg	ht	wh/0293.bmp
180.00	0.72	241	2	4	25	mem	lib	mod	mod	low	nt	ms	nh/0798_nh.bmp
180.72	0.72	242	4	1	123	mem	con	mod	mod	low	nt	ms	nh/0203_nh.bmp
181.44	0.72	243	2	4	118	per	con	mod	mod	mod	tg	ht	wh/0931.bmp
182.16	0.72	244	1	1	99	per	con	low	mod	low	nt	cr	nh/0259_nh.bmp
182.88	0.72	245	3	4	118	per	con	mod	mod	mod	tg	ht	wh/0931.bmp
183.60	0.72	246	1	3	107	per	lib	low	mod	low	tg	ht	wh/0246.bmp
184.32	0.72	247	2	4	18	mem	lib	mod	mod	low	tg	ht	wh/0291.bmp
185.04	0.72	248	2	1	82	per	lib	low	mod	low	tg	ms	wh/0412.bmp
185.76	0.72	249	1	3	100	per	lib	low	mod	low	tg	ms	wh/0166.bmp
186.48	0.72	250	1	4	84	per	lib	mod	low	mod	nt	cr	nh/0498_nh.bmp
187.20	0.72	251	3	1	96	per	lib	low	mod	low	tg	ht	wh/0459.bmp
187.92	0.72	252	1	4	68	mem	lib	low	low	low	nt	ms	nh/0500_nh.bmp
188.64	0.72	253	3	1	35	per	lib	mod	mod	mod	nt	fa	nh/0279_nh.bmp
189.36	0.72	254	1	2	121	per	con	mod	mod	mod	nt	cr	nh/0313_nh.bmp
190.08	0.72	255	2	1	45	per	lib	mod	mod	mod	tg	ht	wh/0738.bmp
190.80	0.72	256	3	1	118	mem	con	mod	mod	low	nt	ms	nh/0368_nh.bmp
191.52	0.72	257	2	1	46	per	lib	mod	mod	mod	nt	cr	nh/0665_nh.bmp
192.24	0.72	258	3	1	110	per	con	low	mod	low	nt	cr	nh/0671_nh.bmp
192.96	0.72	259	2	2	97	mem	lib	mod	mod	mod	tg	ht	wh/0901.bmp
193.68	0.72	260	2	1	13	mem	lib	mod	mod	low	tg	ms	wh/0312.bmp
194.40	0.72	261	3	3	109	per	lib	low	mod	low	tg	ms	wh/0410.bmp
195.12	0.72	262	2	2	128	per	con	mod	mod	mod	nt	n/a	nh/0331_nh.bmp
195.84	0.72	263	3	1	105	per	con	low	mod	low	tg	ms	wh/0212.bmp
196.56	0.72	264	1	4	79	mem	lib	low	low	low	tg	ht	wh/0877.bmp
197.28	0.72	265	1	4	36	mem	con	low	low	low	tg	ms	wh/0264.bmp
198.00	0.72	266	3	1	36	per	lib	mod	mod	mod	nt	cr	nh/0645_nh.bmp
198.72	0.72	267	1	2	78	mem	con	mod	mod	mod	nt	ht	nh/0348_nh.bmp
199.44	0.72	268	3	1	128	mem	con	mod	mod	low	nt	ht	nh/0386_nh.bmp
200.16	0.72	269	3	3	32	per	lib	mod	mod	mod	nt	cr	nh/0592_nh.bmp
200.88	0.72	270	3	3	45	per	con	low	mod	low	nt	cr	nh/0195_nh.bmp
201.60	0.72	271	3	1	12	mem	lib	mod	mod	low	nt	ht	nh/0494_nh.bmp
202.32	0.72	272	2	1	2	mem	lib	mod	mod	low	nt	ht	nh/0007_nh.bmp
203.04	0.72	273	4	3	32	per	lib	mod	mod	mod	nt	cr	nh/0592_nh.bmp
203.76	0.72	274	2	3	16	mem	con	mod	mod	mod	nt	ms	nh/0834_nh.bmp
204.48	0.72	275	1	3	26	per	lib	mod	mod	mod	tg	ht	wh/0448.bmp
205.20	0.72	276	1	3	70	mem	con	low	low	mod	nt	ms	nh/0214_nh.bmp
205.92	0.72	277	2	1	81	per	lib	low	mod	low	tg	ht	wh/0293.bmp
206.64	0.72	278	4	4	24	mem	lib	mod	mod	low	tg	ms	wh/0390.bmp
207.36	0.72	279	5	1	123	mem	con	mod	mod	low	nt	ms	nh/0203_nh.bmp
208.08	0.72	280	1	4	65	mem	lib	low	low	low	nt	ms	nh/0171_nh.bmp
208.80	0.72	281	3	3	105	per	lib	low	mod	low	tg	ht	wh/0030.bmp
209.52	0.72	282	2	1	115	mem	con	mod	mod	low	tg	ht	wh/0988.bmp
210.24	0.72	283	2	3	42	per	con	low	mod	low	tg	ms	wh/0703.bmp
210.96	0.72	284	1	4	121	per	con	mod	mod	mod	nt	cr	nh/0427_nh.bmp
211.68	0.72	285	2	4	122	per	con	mod	mod	mod	tg	ms	wh/0604.bmp
212.40	0.72	286	1	3	113	mem	lib	mod	mod	mod	tg	ht	wh/0538.bmp
213.12	0.72	287	1	3	103	per	lib	low	mod	low	nt	cr	nh/0509_nh.bmp
213.84	0.72	288	3	3	20	per	lib	mod	mod	mod	nt	cr	nh/0806_nh.bmp
214.56	0.72	289	2	4	21	mem	lib	mod	mod	low	tg	ms	wh/0131.bmp
215.28	0.72	290	1	3	74	mem	con	low	low	mod	tg	ht	wh/0707.bmp
216.00	0.72	291	2	4	5	mem	con	mod	mod	low	tg	ms	wh/0792.bmp
216.72	0.72	292	4	3	2	mem	con	mod	mod	mod	tg	ht	wh/0477.bmp
217.44	0.72	293	1	2	89	per	lib	low	low	low	nt	cr	nh/0078_nh.bmp
218.16	0.72	294	4	3	25	per	lib	mod	mod	mod	nt	cr	nh/0689_nh.bmp
218.88	0.72	295	3	1	5	mem	lib	mod	mod	low	nt	ms	nh/0791_nh.bmp
219.60	0.72	296	3	1	45	per	lib	mod	mod	mod	tg	ht	wh/0738.bmp
220.32	0.72	297	2	1	99	per	con	low	mod	low	nt	cr	nh/0259_nh.bmp
221.04	0.72	298	2	3	39	per	con	low	mod	low	nt	cr	nh/0283_nh.bmp
221.76	0.72	299	4	3	21	per	lib	mod	mod	mod	tg	ht	wh/0229.bmp
222.48	0.72	300	2	3	100	per	lib	low	mod	low	tg	ms	wh/0166.bmp
223.20	0.72	301	2	1	107	per	con	low	mod	low	nt	cr	nh/0422_nh.bmp
223.92	0.72	302	1	2	67	mem	con	mod	mod	mod	tg	ms	wh/0761.bmp
224.64	0.72	303	4	1	96	per	lib	low	mod	low	tg	ht	wh/0459.bmp
225.36	0.72	304	4	2	72	mem	con	mod	mod	mod	nt	ht	nh/0970_nh.bmp
226.08	0.72	305	4	1	45	per	lib	mod	mod	mod	tg	ht	wh/0738.bmp
226.80	0.72	306	3	1	2	mem	lib	mod	mod	low	nt	ht	nh/0007_nh.bmp
227.52	0.72	307	3	4	127	per	con	mod	mod	mod	nt	cr	nh/0943_nh.bmp
228.24	0.72	308	1	2	112	mem	lib	mod	mod	mod	tg	ht	wh/0742.bmp
228.96	0.72	309	3	1	93	per	lib	low	mod	low	nt	cr	nh/0554_nh.bmp
229.68	0.72	310	3	3	125	mem	lib	mod	mod	mod	nt	ht	nh/0753_nh.bmp
230.40	0.72	311	1	4	2	mem	con	mod	mod	low	nt	n/a	nh/0067_nh.bmp
231.12	0.72	312	2	1	39	per	lib	mod	mod	mod	tg	ht	wh/0961.bmp
231.84	0.72	313	1	3	96	per	con	mod	low	mod	tg	ms	wh/0606.bmp
232.56	0.72	314	1	3	117	mem	lib	mod	mod	mod	tg	ms	wh/0343.bmp
233.28	0.72	315	2	1	95	per	lib	low	mod	low	nt	cr	nh/0438_nh.bmp
234.00	0.72	316	1	3	36	per	con	low	mod	low	tg	ms	wh/0132.bmp
234.72	0.72	317	5	1	45	per	lib	mod	mod	mod	tg	ht	wh/0738.bmp
235.44	0.72	318	2	2	76	mem	con	mod	mod	mod	tg	ms	wh/0413.bmp
236.16	0.72	319	4	3	20	per	lib	mod	mod	mod	nt	cr	nh/0806_nh.bmp
236.88	0.72	320	3	4	18	mem	lib	mod	mod	low	tg	ht	wh/0291.bmp
237.60	0.72	321	3	2	118	per	con	mod	mod	mod	tg	ht	wh/0562.bmp
238.32	0.72	322	3	3	116	mem	lib	mod	mod	mod	tg	ht	wh/0705.bmp
239.04	0.72	323	2	3	99	per	lib	low	mod	low	nt	cr	nh/0081_nh.bmp
239.76	0.72	324	2	2	125	per	con	mod	mod	mod	tg	ht	wh/0628.bmp
240.48	0.72	325	2	1	42	per	lib	mod	mod	mod	tg	ht	wh/0137.bmp
241.20	0.72	326	3	1	116	mem	con	mod	mod	low	tg	ms	wh/0124.bmp
241.92	0.72	327	2	2	67	mem	con	mod	mod	mod	tg	ms	wh/0761.bmp
242.64	0.72	328	2	4	15	mem	con	mod	mod	low	tg	ms	wh/0683.bmp
243.36	0.72	329	4	1	116	mem	con	mod	mod	low	tg	ms	wh/0124.bmp
244.08	0.72	330	1	2	21	per	lib	mod	low	mod	nt	cr	nh/0891_nh.bmp
244.80	0.72	331	3	4	117	per	con	mod	mod	mod	nt	fa	nh/0072_nh.bmp
245.52	0.72	332	3	3	15	mem	con	mod	mod	mod	tg	ht	wh/0809.bmp
246.24	0.72	333	5	3	114	mem	lib	mod	mod	mod	nt	ms	nh/0490_nh.bmp
246.96	0.72	334	3	1	13	mem	lib	mod	mod	low	tg	ms	wh/0312.bmp
247.68	0.72	335	3	4	21	mem	lib	mod	mod	low	tg	ms	wh/0131.bmp
248.40	0.72	336	4	4	21	mem	lib	mod	mod	low	tg	ms	wh/0131.bmp
249.12	0.72	337	2	4	27	mem	lib	mod	mod	low	nt	ht	nh/0615_nh.bmp
249.84	0.72	338	3	4	27	mem	lib	mod	mod	low	nt	ht	nh/0615_nh.bmp
250.56	0.72	339	5	2	72	mem	con	mod	mod	mod	nt	ht	nh/0970_nh.bmp
251.28	0.72	340	2	1	92	per	lib	low	mod	low	nt	cr	nh/0914_nh.bmp
252.00	0.72	341	3	3	28	per	lib	mod	mod	mod	tg	ht	wh/0895.bmp
252.72	0.72	342	2	3	113	mem	lib	mod	mod	mod	tg	ht	wh/0538.bmp
253.44	0.72	343	4	4	127	per	con	mod	mod	mod	nt	cr	nh/0943_nh.bmp
254.16	0.72	344	5	3	20	per	lib	mod	mod	mod	nt	cr	nh/0806_nh.bmp
254.88	0.72	345	2	1	9	mem	lib	mod	mod	low	tg	ms	wh/0295.bmp
255.60	0.72	346	4	3	105	per	lib	low	mod	low	tg	ht	wh/0030.bmp
256.32	0.72	347	5	1	116	mem	con	mod	mod	low	tg	ms	wh/0124.bmp
257.04	0.72	348	3	1	39	per	lib	mod	mod	mod	tg	ht	wh/0961.bmp
257.76	0.72	349	3	1	92	per	lib	low	mod	low	nt	cr	nh/0914_nh.bmp
258.48	0.72	350	3	3	118	mem	lib	mod	mod	mod	nt	ms	nh/0445_nh.bmp
259.20	0.72	351	1	3	11	mem	con	mod	mod	mod	tg	ht	wh/0861.bmp
259.92	0.72	352	2	2	121	per	con	mod	mod	mod	nt	cr	nh/0313_nh.bmp
260.64	0.72	353	3	4	26	mem	lib	mod	mod	low	nt	ht	nh/0236_nh.bmp
261.36	0.72	354	3	1	94	per	lib	low	mod	low	tg	ht	wh/0263.bmp
262.08	0.72	355	4	3	45	per	con	low	mod	low	nt	cr	nh/0195_nh.bmp
262.80	0.72	356	2	3	107	per	lib	low	mod	low	tg	ht	wh/0246.bmp
263.52	0.72	357	2	2	100	mem	lib	mod	mod	mod	tg	ht	wh/0071.bmp
264.24	0.72	358	5	3	32	per	lib	mod	mod	mod	nt	cr	nh/0592_nh.bmp
264.96	0.72	359	2	3	11	mem	con	mod	mod	mod	tg	ht	wh/0861.bmp
265.68	0.72	360	3	2	76	mem	con	mod	mod	mod	tg	ms	wh/0413.bmp
266.40	0.72	361	1	2	19	per	lib	mod	low	mod	tg	ht	wh/0003.bmp
267.12	0.72	362	1	1	68	mem	lib	low	low	mod	tg	ht	wh/0950.bmp
267.84	0.72	363	1	2	102	mem	lib	mod	mod	mod	nt	ht	nh/1010_nh.bmp
268.56	0.72	364	2	4	2	mem	con	mod	mod	low	nt	n/a	nh/0067_nh.bmp
269.28	0.72	365	2	3	35	per	con	low	mod	low	tg	ms	wh/0454.bmp
270.00	0.72	366	3	4	119	per	con	mod	mod	mod	tg	ms	wh/0049.bmp
270.72	0.72	367	3	3	113	mem	lib	mod	mod	mod	tg	ht	wh/0538.bmp
271.44	0.72	368	2	4	126	per	con	mod	mod	mod	nt	cr	nh/0061_nh.bmp
272.16	0.72	369	3	2	128	per	con	mod	mod	mod	nt	n/a	nh/0331_nh.bmp
272.88	0.72	370	3	4	25	mem	lib	mod	mod	low	nt	ms	nh/0798_nh.bmp
273.60	0.72	371	1	1	63	mem	con	low	low	low	nt	ms	nh/0161_nh.bmp
274.32	0.72	372	2	2	122	per	con	mod	mod	mod	tg	n/a	wh/0333.bmp
275.04	0.72	373	2	2	112	mem	lib	mod	mod	mod	tg	ht	wh/0742.bmp
275.76	0.72	374	2	2	102	mem	lib	mod	mod	mod	nt	ht	nh/1010_nh.bmp
276.48	0.72	375	4	1	12	mem	lib	mod	mod	low	nt	ht	nh/0494_nh.bmp
277.20	0.72	376	4	3	28	per	lib	mod	mod	mod	tg	ht	wh/0895.bmp
277.92	0.72	377	3	4	2	mem	con	mod	mod	low	nt	n/a	nh/0067_nh.bmp
278.64	0.72	378	1	1	51	mem	con	low	low	low	tg	ms	wh/0783.bmp
279.36	0.72	379	3	3	11	mem	con	mod	mod	mod	tg	ht	wh/0861.bmp
280.08	0.72	380	4	1	2	mem	lib	mod	mod	low	nt	ht	nh/0007_nh.bmp
280.80	0.72	381	3	3	24	per	lib	mod	mod	mod	nt	cr	nh/0479_nh.bmp
281.52	0.72	382	3	2	75	mem	con	mod	mod	mod	nt	ms	nh/0674_nh.bmp
282.24	0.72	383	3	3	39	per	con	low	mod	low	nt	cr	nh/0283_nh.bmp
282.96	0.72	384	2	3	14	mem	con	mod	mod	mod	nt	ht	nh/0344_nh.bmp
283.68	0.72	385	3	3	40	per	con	low	mod	low	nt	cr	nh/1000_nh.bmp
284.40	0.72	386	3	2	108	mem	lib	mod	mod	mod	nt	ms	nh/1006_nh.bmp
285.12	0.72	387	5	4	127	per	con	mod	mod	mod	nt	cr	nh/0943_nh.bmp
285.84	0.72	388	4	4	10	mem	con	mod	mod	low	tg	ms	wh/0976.bmp
286.56	0.72	389	3	2	112	mem	lib	mod	mod	mod	tg	ht	wh/0742.bmp
287.28	0.72	390	4	3	113	mem	lib	mod	mod	mod	tg	ht	wh/0538.bmp
288.00	0.72	391	3	2	110	mem	lib	mod	mod	mod	tg	ht	wh/0320.bmp
288.72	0.72	392	1	1	112	per	con	low	mod	low	tg	ms	wh/0882.bmp
289.44	0.72	393	3	1	107	per	con	low	mod	low	nt	cr	nh/0422_nh.bmp
290.16	0.72	394	3	3	31	per	lib	mod	mod	mod	tg	ht	wh/0664.bmp
290.88	0.72	395	4	1	128	mem	con	mod	mod	low	nt	ht	nh/0386_nh.bmp
291.60	0.72	396	2	3	5	mem	con	mod	mod	mod	tg	ht	wh/0039.bmp
292.32	0.72	397	3	3	107	per	lib	low	mod	low	tg	ht	wh/0246.bmp
293.04	0.72	398	2	2	113	per	con	mod	mod	mod	tg	ht	wh/0799.bmp
293.76	0.72	399	4	4	27	mem	lib	mod	mod	low	nt	ht	nh/0615_nh.bmp
294.48	0.72	400	3	1	11	mem	lib	mod	mod	low	tg	ms	wh/0415.bmp
295.20	0.72	401	4	3	118	mem	lib	mod	mod	mod	nt	ms	nh/0445_nh.bmp
295.92	0.72	402	3	3	123	mem	lib	mod	mod	mod	nt	ht	nh/0282_nh.bmp
296.64	0.72	403	4	2	110	mem	lib	mod	mod	mod	tg	ht	wh/0320.bmp
297.36	0.72	404	1	1	57	mem	con	low	low	low	tg	ms	wh/0110.bmp
298.08	0.72	405	3	1	82	per	lib	low	mod	low	tg	ms	wh/0412.bmp
298.80	0.72	406	5	4	10	mem	con	mod	mod	low	tg	ms	wh/0976.bmp
299.52	0.72	407	3	3	14	mem	con	mod	mod	mod	nt	ht	nh/0344_nh.bmp
300.24	0.72	408	3	2	121	per	con	mod	mod	mod	nt	cr	nh/0313_nh.bmp
300.96	0.72	409	1	2	86	per	lib	low	low	low	tg	ms	wh/0989.bmp
301.68	0.72	410	4	2	75	mem	con	mod	mod	mod	nt	ms	nh/0674_nh.bmp
302.40	0.72	411	1	4	34	mem	con	low	low	low	nt	ms	nh/0021_nh.bmp
303.12	0.72	412	4	4	2	mem	con	mod	mod	low	nt	n/a	nh/0067_nh.bmp
303.84	0.72	413	1	2	54	per	con	low	low	low	tg	ms	wh/0471.bmp
304.56	0.72	414	5	3	28	per	lib	mod	mod	mod	tg	ht	wh/0895.bmp
305.28	0.72	415	1	2	85	per	lib	low	low	low	nt	cr	nh/0250_nh.bmp
306.00	0.72	416	3	1	44	per	lib	mod	mod	mod	nt	cr	nh/0925_nh.bmp
306.72	0.72	417	4	4	119	per	con	mod	mod	mod	tg	ms	wh/0049.bmp
307.44	0.72	418	2	2	69	mem	con	mod	mod	mod	tg	ht	wh/0983.bmp
308.16	0.72	419	3	3	127	mem	lib	mod	mod	mod	tg	ht	wh/0151.bmp
308.88	0.72	420	4	4	18	mem	lib	mod	mod	low	tg	ht	wh/0291.bmp
309.60	0.72	421	2	3	117	mem	lib	mod	mod	mod	tg	ms	wh/0343.bmp
310.32	0.72	422	5	4	119	per	con	mod	mod	mod	tg	ms	wh/0049.bmp
311.04	0.72	423	2	4	121	per	con	mod	mod	mod	nt	cr	nh/0427_nh.bmp
311.76	0.72	424	3	4	122	per	con	mod	mod	mod	tg	ms	wh/0604.bmp
312.48	0.72	425	1	2	23	per	lib	mod	low	mod	tg	ms	wh/0062.bmp
313.20	0.72	426	5	4	27	mem	lib	mod	mod	low	nt	ht	nh/0615_nh.bmp
313.92	0.72	427	3	1	86	per	lib	low	mod	low	nt	cr	nh/0765_nh.bmp
314.64	0.72	428	1	4	39	mem	con	low	low	low	nt	ht	nh/0252_nh.bmp
315.36	0.72	429	4	3	11	mem	con	mod	mod	mod	tg	ht	wh/0861.bmp
316.08	0.72	430	4	3	24	per	lib	mod	mod	mod	nt	cr	nh/0479_nh.bmp
316.80	0.72	431	4	2	76	mem	con	mod	mod	mod	tg	ms	wh/0413.bmp
317.52	0.72	432	3	4	29	mem	lib	mod	mod	low	tg	ht	wh/0523.bmp
318.24	0.72	433	2	1	103	per	con	low	mod	low	nt	fa	nh/0672_nh.bmp
318.96	0.72	434	1	3	79	mem	con	low	low	mod	nt	ms	nh/0872_nh.bmp
319.68	0.72	435	4	2	128	per	con	mod	mod	mod	nt	n/a	nh/0331_nh.bmp
320.40	0.72	436	1	3	72	mem	con	low	low	mod	tg	ht	wh/0192.bmp
321.12	0.72	437	4	1	11	mem	lib	mod	mod	low	tg	ms	wh/0415.bmp
321.84	0.72	438	4	1	5	mem	lib	mod	mod	low	nt	ms	nh/0791_nh.bmp
322.56	0.72	439	1	1	24	per	con	mod	low	mod	nt	cr	nh/0917_nh.bmp
323.28	0.72	440	2	2	78	mem	con	mod	mod	mod	nt	ht	nh/0348_nh.bmp
324.00	0.72	441	5	2	110	mem	lib	mod	mod	mod	tg	ht	wh/0320.bmp
324.72	0.72	442	6	3	32	per	lib	mod	mod	mod	nt	cr	nh/0592_nh.bmp
325.44	0.72	443	4	3	116	mem	lib	mod	mod	mod	tg	ht	wh/0705.bmp
326.16	0.72	444	4	4	117	per	con	mod	mod	mod	nt	fa	nh/0072_nh.bmp
326.88	0.72	445	3	1	99	per	con	low	mod	low	nt	cr	nh/0259_nh.bmp
327.60	0.72	446	2	2	114	per	con	mod	mod	mod	nt	cr	nh/0097_nh.bmp
328.32	0.72	447	4	4	122	per	con	mod	mod	mod	tg	ms	wh/0604.bmp
329.04	0.72	448	4	3	109	per	lib	low	mod	low	tg	ms	wh/0410.bmp
329.76	0.72	449	1	1	106	per	con	low	mod	low	tg	ms	wh/0496.bmp
330.48	0.72	450	1	2	51	per	con	low	low	low	nt	cr	nh/0505_nh.bmp
331.20	0.72	451	5	3	109	per	lib	low	mod	low	tg	ms	wh/0410.bmp
331.92	0.72	452	3	1	127	mem	con	mod	mod	low	tg	ht	wh/0661.bmp
332.64	0.72	453	5	4	2	mem	con	mod	mod	low	nt	n/a	nh/0067_nh.bmp
333.36	0.72	454	1	3	85	per	con	mod	low	mod	tg	ht	wh/0557.bmp
334.08	0.72	455	3	1	9	mem	lib	mod	mod	low	tg	ms	wh/0295.bmp
334.80	0.72	456	4	3	127	mem	lib	mod	mod	mod	tg	ht	wh/0151.bmp
335.52	0.72	457	3	3	5	mem	con	mod	mod	mod	tg	ht	wh/0039.bmp
336.24	0.72	458	3	1	48	per	lib	mod	mod	mod	tg	ms	wh/0796.bmp
336.96	0.72	459	4	1	13	mem	lib	mod	mod	low	tg	ms	wh/0312.bmp
337.68	0.72	460	2	3	36	per	con	low	mod	low	tg	ms	wh/0132.bmp
338.40	0.72	461	4	3	40	per	con	low	mod	low	nt	cr	nh/1000_nh.bmp
339.12	0.72	462	2	3	26	per	lib	mod	mod	mod	tg	ht	wh/0448.bmp
339.84	0.72	463	3	3	42	per	con	low	mod	low	tg	ms	wh/0703.bmp
340.56	0.72	464	4	3	125	mem	lib	mod	mod	mod	nt	ht	nh/0753_nh.bmp
341.28	0.72	465	5	1	5	mem	lib	mod	mod	low	nt	ms	nh/0791_nh.bmp
342.00	0.72	466	4	1	82	per	lib	low	mod	low	tg	ms	wh/0412.bmp
342.72	0.72	467	5	3	127	mem	lib	mod	mod	mod	tg	ht	wh/0151.bmp
343.44	0.72	468	3	3	16	mem	con	mod	mod	mod	nt	ms	nh/0834_nh.bmp
344.16	0.72	469	5	2	76	mem	con	mod	mod	mod	tg	ms	wh/0413.bmp
344.88	0.72	470	1	2	20	per	lib	mod	low	mod	nt	cr	nh/0567_nh.bmp
345.60	0.72	471	4	4	26	mem	lib	mod	mod	low	nt	ht	nh/0236_nh.bmp
346.32	0.72	472	3	3	99	per	lib	low	mod	low	nt	cr	nh/0081_nh.bmp
347.04	0.72	473	3	1	95	per	lib	low	mod	low	nt	cr	nh/0438_nh.bmp
347.76	0.72	474	1	3	90	per	con	mod	low	mod	nt	cr	nh/1020_nh.bmp
348.48	0.72	475	4	1	118	mem	con	mod	mod	low	nt	ms	nh/0368_nh.bmp
349.20	0.72	476	3	3	117	mem	lib	mod	mod	mod	tg	ms	wh/0343.bmp
349.92	0.72	477	4	3	33	per	con	low	mod	low	tg	ms	wh/0641.bmp
350.64	0.72	478	3	2	113	per	con	mod	mod	mod	tg	ht	wh/0799.bmp
351.36	0.72	479	1	2	29	per	lib	mod	low	mod	nt	cr	nh/0616_nh.bmp
352.08	0.72	480	3	2	78	mem	con	mod	mod	mod	nt	ht	nh/0348_nh.bmp
352.80	0.72	481	1	3	51	mem	lib	low	low	mod	nt	ms	nh/0474_nh.bmp
353.52	0.72	482	1	4	91	per	lib	mod	low	mod	nt	cr	nh/0595_nh.bmp
354.24	0.72	483	4	3	31	per	lib	mod	mod	mod	tg	ht	wh/0664.bmp
354.96	0.72	484	3	2	114	per	con	mod	mod	mod	nt	cr	nh/0097_nh.bmp
355.68	0.72	485	1	2	8	mem	con	low	low	mod	nt	ht	nh/0555_nh.bmp
356.40	0.72	486	5	1	122	mem	con	mod	mod	low	nt	ht	nh/0323_nh.bmp
357.12	0.72	487	6	3	20	per	lib	mod	mod	mod	nt	cr	nh/0806_nh.bmp
357.84	0.72	488	1	2	59	per	con	low	low	low	tg	ms	wh/0011.bmp
358.56	0.72	489	4	1	1	mem	lib	mod	mod	low	nt	ms	nh/1013_nh.bmp
359.28	0.72	490	4	4	16	mem	con	mod	mod	low	nt	ht	nh/0757_nh.bmp
360.00	0.72	491	6	1	45	per	lib	mod	mod	mod	tg	ht	wh/0738.bmp
360.72	0.72	492	2	1	98	per	con	low	mod	low	tg	ms	wh/0302.bmp
361.44	0.72	493	1	1	53	mem	con	low	low	low	nt	ms	nh/0369_nh.bmp
362.16	0.72	494	5	1	96	per	lib	low	mod	low	tg	ht	wh/0459.bmp
362.88	0.72	495	3	1	115	mem	con	mod	mod	low	tg	ht	wh/0988.bmp
363.60	0.72	496	6	4	27	mem	lib	mod	mod	low	nt	ht	nh/0615_nh.bmp
364.32	0.72	497	1	2	10	mem	con	low	low	mod	nt	ms	nh/0813_nh.bmp
365.04	0.72	498	2	2	126	per	con	mod	mod	mod	nt	cr	nh/0359_nh.bmp
365.76	0.72	499	4	3	6	mem	con	mod	mod	mod	nt	ms	nh/0759_nh.bmp
366.48	0.72	500	4	1	95	per	lib	low	mod	low	nt	cr	nh/0438_nh.bmp
367.20	0.72	501	3	4	121	per	con	mod	mod	mod	nt	cr	nh/0427_nh.bmp
367.92	0.72	502	1	2	40	mem	lib	low	low	low	tg	ms	wh/0211.bmp
368.64	0.72	503	4	3	117	mem	lib	mod	mod	mod	tg	ms	wh/0343.bmp
369.36	0.72	504	3	1	46	per	lib	mod	mod	mod	nt	cr	nh/0665_nh.bmp
370.08	0.72	505	3	4	126	per	con	mod	mod	mod	nt	cr	nh/0061_nh.bmp
370.80	0.72	506	5	4	26	mem	lib	mod	mod	low	nt	ht	nh/0236_nh.bmp
371.52	0.72	507	3	2	66	mem	con	mod	mod	mod	nt	ht	nh/0583_nh.bmp
372.24	0.72	508	4	4	20	mem	lib	mod	mod	low	nt	ht	nh/0424_nh.bmp
372.96	0.72	509	4	3	38	per	con	low	mod	low	nt	cr	nh/0400_nh.bmp
373.68	0.72	510	3	2	122	per	con	mod	mod	mod	tg	n/a	wh/0333.bmp
374.40	0.72	511	4	1	39	per	lib	mod	mod	mod	tg	ht	wh/0961.bmp
375.12	0.72	512	3	3	36	per	con	low	mod	low	tg	ms	wh/0132.bmp
375.84	0.72	513	2	1	106	per	con	low	mod	low	tg	ms	wh/0496.bmp
376.56	0.72	514	1	2	4	mem	con	low	low	mod	tg	ht	wh/0467.bmp
377.28	0.72	515	4	2	113	per	con	mod	mod	mod	tg	ht	wh/0799.bmp
378.00	0.72	516	4	3	15	mem	con	mod	mod	mod	tg	ht	wh/0809.bmp
378.72	0.72	517	2	4	115	per	con	mod	mod	mod	tg	ms	wh/0365.bmp
379.44	0.72	518	5	4	122	per	con	mod	mod	mod	tg	ms	wh/0604.bmp
380.16	0.72	519	3	3	26	per	lib	mod	mod	mod	tg	ht	wh/0448.bmp
380.88	0.72	520	5	3	31	per	lib	mod	mod	mod	tg	ht	wh/0664.bmp
381.60	0.72	521	3	1	103	per	con	low	mod	low	nt	fa	nh/0672_nh.bmp
382.32	0.72	522	4	4	118	per	con	mod	mod	mod	tg	ht	wh/0931.bmp
383.04	0.72	523	4	1	35	per	lib	mod	mod	mod	nt	fa	nh/0279_nh.bmp
383.76	0.72	524	1	2	1	mem	con	low	low	mod	tg	ms	wh/0208.bmp
384.48	0.72	525	4	1	93	per	lib	low	mod	low	nt	cr	nh/0554_nh.bmp
385.20	0.72	526	3	3	100	per	lib	low	mod	low	tg	ms	wh/0166.bmp
385.92	0.72	527	1	3	53	mem	lib	low	low	mod	nt	ms	nh/0409_nh.bmp
386.64	0.72	528	3	2	101	mem	lib	mod	mod	mod	nt	ht	nh/0576_nh.bmp
387.36	0.72	529	5	1	93	per	lib	low	mod	low	nt	cr	nh/0554_nh.bmp
388.08	0.72	530	1	4	64	per	lib	low	low	low	nt	cr	nh/0819_nh.bmp
388.80	0.72	531	4	3	14	mem	con	mod	mod	mod	nt	ht	nh/0344_nh.bmp
389.52	0.72	532	2	3	103	per	lib	low	mod	low	nt	cr	nh/0509_nh.bmp
390.24	0.72	533	4	3	36	per	con	low	mod	low	tg	ms	wh/0132.bmp
390.96	0.72	534	4	1	36	per	lib	mod	mod	mod	nt	cr	nh/0645_nh.bmp
391.68	0.72	535	5	3	21	per	lib	mod	mod	mod	tg	ht	wh/0229.bmp
392.40	0.72	536	3	1	42	per	lib	mod	mod	mod	tg	ht	wh/0137.bmp
393.12	0.72	537	4	2	66	mem	con	mod	mod	mod	nt	ht	nh/0583_nh.bmp
393.84	0.72	538	2	3	13	mem	con	mod	mod	mod	nt	ms	nh/0358_nh.bmp
394.56	0.72	539	1	2	18	per	lib	mod	low	mod	tg	ms	wh/0630.bmp
395.28	0.72	540	3	4	15	mem	con	mod	mod	low	tg	ms	wh/0683.bmp
396.00	0.72	541	4	4	4	mem	con	mod	mod	low	nt	n/a	nh/0643_nh.bmp
396.72	0.72	542	3	1	121	mem	con	mod	mod	low	tg	ms	wh/0511.bmp
397.44	0.72	543	5	4	117	per	con	mod	mod	mod	nt	fa	nh/0072_nh.bmp
398.16	0.72	544	4	1	99	per	con	low	mod	low	nt	cr	nh/0259_nh.bmp
398.88	0.72	545	3	2	100	mem	lib	mod	mod	mod	tg	ht	wh/0071.bmp
399.60	0.72	546	2	1	112	per	con	low	mod	low	tg	ms	wh/0882.bmp
400.32	0.72	547	5	4	24	mem	lib	mod	mod	low	tg	ms	wh/0390.bmp
401.04	0.72	548	5	3	33	per	con	low	mod	low	tg	ms	wh/0641.bmp
401.76	0.72	549	4	1	115	mem	con	mod	mod	low	tg	ht	wh/0988.bmp
402.48	0.72	550	6	3	127	mem	lib	mod	mod	mod	tg	ht	wh/0151.bmp
403.20	0.72	551	3	2	126	per	con	mod	mod	mod	nt	cr	nh/0359_nh.bmp
403.92	0.72	552	4	4	29	mem	lib	mod	mod	low	tg	ht	wh/0523.bmp
404.64	0.72	553	3	1	106	per	con	low	mod	low	tg	ms	wh/0496.bmp
405.36	0.72	554	5	1	115	mem	con	mod	mod	low	tg	ht	wh/0988.bmp
406.08	0.72	555	4	1	86	per	lib	low	mod	low	nt	cr	nh/0765_nh.bmp
406.80	0.72	556	3	3	35	per	con	low	mod	low	tg	ms	wh/0454.bmp
407.52	0.72	557	1	3	65	mem	con	low	low	mod	nt	ms	nh/0304_nh.bmp
408.24	0.72	558	5	2	75	mem	con	mod	mod	mod	nt	ms	nh/0674_nh.bmp
408.96	0.72	559	4	3	5	mem	con	mod	mod	mod	tg	ht	wh/0039.bmp
409.68	0.72	560	4	2	112	mem	lib	mod	mod	mod	tg	ht	wh/0742.bmp
410.40	0.72	561	1	4	77	mem	lib	low	low	low	nt	ms	nh/0653_nh.bmp
411.12	0.72	562	3	4	115	per	con	mod	mod	mod	tg	ms	wh/0365.bmp
411.84	0.72	563	3	2	80	mem	con	mod	mod	mod	tg	ms	wh/0104.bmp
412.56	0.72	564	6	4	122	per	con	mod	mod	mod	tg	ms	wh/0604.bmp
413.28	0.72	565	5	4	118	per	con	mod	mod	mod	tg	ht	wh/0931.bmp
414.00	0.72	566	1	4	59	per	lib	low	low	low	tg	ms	wh/1003.bmp
414.72	0.72	567	3	1	81	per	lib	low	mod	low	tg	ht	wh/0293.bmp
415.44	0.72	568	3	2	102	mem	lib	mod	mod	mod	nt	ht	nh/1010_nh.bmp
416.16	0.72	569	6	4	117	per	con	mod	mod	mod	nt	fa	nh/0072_nh.bmp
416.88	0.72	570	1	4	56	per	lib	low	low	low	tg	ms	wh/0356.bmp
417.60	0.72	571	5	3	116	mem	lib	mod	mod	mod	tg	ht	wh/0705.bmp
418.32	0.72	572	1	2	35	mem	lib	low	low	low	tg	ht	wh/0363.bmp
419.04	0.72	573	4	1	44	per	lib	mod	mod	mod	nt	cr	nh/0925_nh.bmp
419.76	0.72	574	1	3	59	mem	lib	low	low	mod	tg	ht	wh/0457.bmp
420.48	0.72	575	6	2	110	mem	lib	mod	mod	mod	tg	ht	wh/0320.bmp
421.20	0.72	576	5	1	1	mem	lib	mod	mod	low	nt	ms	nh/1013_nh.bmp
421.92	0.72	577	4	2	108	mem	lib	mod	mod	mod	nt	ms	nh/1006_nh.bmp
422.64	0.72	578	4	2	102	mem	lib	mod	mod	mod	nt	ht	nh/1010_nh.bmp
423.36	0.72	579	1	3	92	per	con	mod	low	mod	tg	ht	wh/0993.bmp
424.08	0.72	580	3	1	98	per	con	low	mod	low	tg	ms	wh/0302.bmp
424.80	0.72	581	1	2	45	mem	lib	low	low	low	nt	ms	nh/0908_nh.bmp
425.52	0.72	582	3	1	112	per	con	low	mod	low	tg	ms	wh/0882.bmp
426.24	0.72	583	4	4	121	per	con	mod	mod	mod	nt	cr	nh/0427_nh.bmp
426.96	0.72	584	4	1	110	per	con	low	mod	low	nt	cr	nh/0671_nh.bmp
427.68	0.72	585	1	3	52	mem	lib	low	low	mod	nt	ms	nh/0201_nh.bmp
428.40	0.72	586	4	2	122	per	con	mod	mod	mod	tg	n/a	wh/0333.bmp
429.12	0.72	587	6	1	116	mem	con	mod	mod	low	tg	ms	wh/0124.bmp
429.84	0.72	588	5	1	118	mem	con	mod	mod	low	nt	ms	nh/0368_nh.bmp
430.56	0.72	589	3	2	97	mem	lib	mod	mod	mod	tg	ht	wh/0901.bmp
431.28	0.72	590	5	1	44	per	lib	mod	mod	mod	nt	cr	nh/0925_nh.bmp
432.00	0.72	591	3	4	5	mem	con	mod	mod	low	tg	ms	wh/0792.bmp
432.72	0.72	592	6	3	114	mem	lib	mod	mod	mod	nt	ms	nh/0490_nh.bmp
433.44	0.72	593	6	3	109	per	lib	low	mod	low	tg	ms	wh/0410.bmp
434.16	0.72	594	5	3	117	mem	lib	mod	mod	mod	tg	ms	wh/0343.bmp
434.88	0.72	595	4	1	9	mem	lib	mod	mod	low	tg	ms	wh/0295.bmp
435.60	0.72	596	1	2	55	per	con	low	low	low	nt	cr	nh/0911_nh.bmp
436.32	0.72	597	5	2	102	mem	lib	mod	mod	mod	nt	ht	nh/1010_nh.bmp
437.04	0.72	598	4	4	15	mem	con	mod	mod	low	tg	ms	wh/0683.bmp
437.76	0.72	599	4	2	80	mem	con	mod	mod	mod	tg	ms	wh/0104.bmp
438.48	0.72	600	1	4	58	per	lib	low	low	low	tg	ht	wh/0824.bmp
439.20	0.72	601	4	1	42	per	lib	mod	mod	mod	tg	ht	wh/0137.bmp
439.92	0.72	602	3	3	103	per	lib	low	mod	low	nt	cr	nh/0509_nh.bmp
440.64	0.72	603	1	4	44	mem	con	low	low	low	nt	ms	nh/0271_nh.bmp
441.36	0.72	604	1	3	55	mem	lib	low	low	mod	tg	ht	wh/0969.bmp
442.08	0.72	605	1	4	93	per	lib	mod	low	mod	tg	ht	wh/0052.bmp
442.80	0.72	606	5	1	39	per	lib	mod	mod	mod	tg	ht	wh/0961.bmp
443.52	0.72	607	1	2	58	per	con	low	low	low	nt	cr	nh/0375_nh.bmp
444.24	0.72	608	3	3	13	mem	con	mod	mod	mod	nt	ms	nh/0358_nh.bmp
444.96	0.72	609	6	1	1	mem	lib	mod	mod	low	nt	ms	nh/1013_nh.bmp
445.68	0.72	610	4	1	103	per	con	low	mod	low	nt	fa	nh/0672_nh.bmp
446.40	0.72	611	4	4	5	mem	con	mod	mod	low	tg	ms	wh/0792.bmp
447.12	0.72	612	3	2	125	per	con	mod	mod	mod	tg	ht	wh/0628.bmp
447.84	0.72	613	5	3	118	mem	lib	mod	mod	mod	nt	ms	nh/0445_nh.bmp
448.56	0.72	614	4	1	81	per	lib	low	mod	low	tg	ht	wh/0293.bmp
449.28	0.72	615	4	2	118	per	con	mod	mod	mod	tg	ht	wh/0562.bmp
450.00	0.72	616	5	4	18	mem	lib	mod	mod	low	tg	ht	wh/0291.bmp
450.72	0.72	617	5	1	81	per	lib	low	mod	low	tg	ht	wh/0293.bmp
451.44	0.72	618	6	3	116	mem	lib	mod	mod	mod	tg	ht	wh/0705.bmp
452.16	0.72	619	4	2	109	mem	lib	mod	mod	mod	nt	ht	nh/0487_nh.bmp
452.88	0.72	620	1	4	90	per	lib	mod	low	mod	tg	ht	wh/0985.bmp
453.60	0.72	621	5	3	45	per	con	low	mod	low	nt	cr	nh/0195_nh.bmp
454.32	0.72	622	4	3	35	per	con	low	mod	low	tg	ms	wh/0454.bmp
455.04	0.72	623	5	1	86	per	lib	low	mod	low	nt	cr	nh/0765_nh.bmp
455.76	0.72	624	5	1	36	per	lib	mod	mod	mod	nt	cr	nh/0645_nh.bmp
456.48	0.72	625	1	4	54	per	lib	low	low	low	nt	cr	nh/0243_nh.bmp
457.20	0.72	626	5	2	66	mem	con	mod	mod	mod	nt	ht	nh/0583_nh.bmp
457.92	0.72	627	3	2	67	mem	con	mod	mod	mod	tg	ms	wh/0761.bmp
458.64	0.72	628	3	2	69	mem	con	mod	mod	mod	tg	ht	wh/0983.bmp
459.36	0.72	629	5	3	125	mem	lib	mod	mod	mod	nt	ht	nh/0753_nh.bmp
460.08	0.72	630	4	3	123	mem	lib	mod	mod	mod	nt	ht	nh/0282_nh.bmp
460.80	0.72	631	1	2	3	mem	con	low	low	mod	tg	ht	wh/0913.bmp
461.52	0.72	632	5	4	29	mem	lib	mod	mod	low	tg	ht	wh/0523.bmp
462.24	0.72	633	6	3	28	per	lib	mod	mod	mod	tg	ht	wh/0895.bmp
462.96	0.72	634	4	1	106	per	con	low	mod	low	tg	ms	wh/0496.bmp
463.68	0.72	635	5	3	15	mem	con	mod	mod	mod	tg	ht	wh/0809.bmp
464.40	0.72	636	4	1	46	per	lib	mod	mod	mod	nt	cr	nh/0665_nh.bmp
465.12	0.72	637	4	2	125	per	con	mod	mod	mod	tg	ht	wh/0628.bmp
465.84	0.72	638	6	4	118	per	con	mod	mod	mod	tg	ht	wh/0931.bmp
466.56	0.72	639	4	3	108	per	lib	low	mod	low	nt	cr	nh/0575_nh.bmp
467.28	0.72	640	5	1	13	mem	lib	mod	mod	low	tg	ms	wh/0312.bmp
468.00	0.72	641	4	3	107	per	lib	low	mod	low	tg	ht	wh/0246.bmp
468.72	0.72	642	4	1	92	per	lib	low	mod	low	nt	cr	nh/0914_nh.bmp
469.44	0.72	643	5	2	109	mem	lib	mod	mod	mod	nt	ht	nh/0487_nh.bmp
470.16	0.72	644	1	4	76	mem	lib	low	low	low	nt	ht	nh/0713_nh.bmp
470.88	0.72	645	6	3	21	per	lib	mod	mod	mod	tg	ht	wh/0229.bmp
471.60	0.72	646	5	3	113	mem	lib	mod	mod	mod	tg	ht	wh/0538.bmp
472.32	0.72	647	4	2	97	mem	lib	mod	mod	mod	tg	ht	wh/0901.bmp
473.04	0.72	648	1	4	66	mem	lib	low	low	low	tg	ms	wh/0026.bmp
473.76	0.72	649	5	3	105	per	lib	low	mod	low	tg	ht	wh/0030.bmp
474.48	0.72	650	5	1	46	per	lib	mod	mod	mod	nt	cr	nh/0665_nh.bmp
475.20	0.72	651	5	1	12	mem	lib	mod	mod	low	nt	ht	nh/0494_nh.bmp
475.92	0.72	652	4	4	126	per	con	mod	mod	mod	nt	cr	nh/0061_nh.bmp
476.64	0.72	653	4	3	101	per	lib	low	mod	low	nt	cr	nh/0315_nh.bmp
477.36	0.72	654	5	1	103	per	con	low	mod	low	nt	fa	nh/0672_nh.bmp
478.08	0.72	655	5	2	97	mem	lib	mod	mod	mod	tg	ht	wh/0901.bmp
478.80	0.72	656	4	4	115	per	con	mod	mod	mod	tg	ms	wh/0365.bmp
479.52	0.72	657	5	2	122	per	con	mod	mod	mod	tg	n/a	wh/0333.bmp
480.24	0.72	658	5	4	4	mem	con	mod	mod	low	nt	n/a	nh/0643_nh.bmp
480.96	0.72	659	6	3	45	per	con	low	mod	low	nt	cr	nh/0195_nh.bmp
481.68	0.72	660	6	1	44	per	lib	mod	mod	mod	nt	cr	nh/0925_nh.bmp
482.40	0.72	661	4	3	99	per	lib	low	mod	low	nt	cr	nh/0081_nh.bmp
483.12	0.72	662	5	3	5	mem	con	mod	mod	mod	tg	ht	wh/0039.bmp
483.84	0.72	663	4	2	114	per	con	mod	mod	mod	nt	cr	nh/0097_nh.bmp
484.56	0.72	664	1	2	32	per	lib	mod	low	mod	tg	ms	wh/0033.bmp
485.28	0.72	665	4	3	13	mem	con	mod	mod	mod	nt	ms	nh/0358_nh.bmp
486.00	0.72	666	4	4	9	mem	con	mod	mod	low	nt	ht	nh/0174_nh.bmp
486.72	0.72	667	6	1	39	per	lib	mod	mod	mod	tg	ht	wh/0961.bmp
487.44	0.72	668	4	2	101	mem	lib	mod	mod	mod	nt	ht	nh/0576_nh.bmp
488.16	0.72	669	5	1	92	per	lib	low	mod	low	nt	cr	nh/0914_nh.bmp
488.88	0.72	670	4	2	100	mem	lib	mod	mod	mod	tg	ht	wh/0071.bmp
489.60	0.72	671	5	1	8	mem	lib	mod	mod	low	tg	ht	wh/0444.bmp
490.32	0.72	672	1	1	17	per	con	mod	low	mod	nt	cr	nh/0773_nh.bmp
491.04	0.72	673	6	1	123	mem	con	mod	mod	low	nt	ms	nh/0203_nh.bmp
491.76	0.72	674	4	1	94	per	lib	low	mod	low	tg	ht	wh/0263.bmp
492.48	0.72	675	5	3	36	per	con	low	mod	low	tg	ms	wh/0132.bmp
493.20	0.72	676	1	4	42	mem	con	low	low	low	nt	ms	nh/0310_nh.bmp
493.92	0.72	677	6	2	75	mem	con	mod	mod	mod	nt	ms	nh/0674_nh.bmp
494.64	0.72	678	1	4	110	per	con	low	low	low	tg	ms	wh/0808.bmp
495.36	0.72	679	5	3	40	per	con	low	mod	low	nt	cr	nh/1000_nh.bmp
496.08	0.72	680	6	4	4	mem	con	mod	mod	low	nt	n/a	nh/0643_nh.bmp
496.80	0.72	681	5	4	126	per	con	mod	mod	mod	nt	cr	nh/0061_nh.bmp
497.52	0.72	682	5	1	99	per	con	low	mod	low	nt	cr	nh/0259_nh.bmp
498.24	0.72	683	6	1	46	per	lib	mod	mod	mod	nt	cr	nh/0665_nh.bmp
498.96	0.72	684	4	3	42	per	con	low	mod	low	tg	ms	wh/0703.bmp
499.68	0.72	685	4	1	105	per	con	low	mod	low	tg	ms	wh/0212.bmp
500.40	0.72	686	5	3	101	per	lib	low	mod	low	nt	cr	nh/0315_nh.bmp
501.12	0.72	687	4	2	126	per	con	mod	mod	mod	nt	cr	nh/0359_nh.bmp
501.84	0.72	688	5	4	5	mem	con	mod	mod	low	tg	ms	wh/0792.bmp
502.56	0.72	689	5	2	114	per	con	mod	mod	mod	nt	cr	nh/0097_nh.bmp
503.28	0.72	690	5	2	112	mem	lib	mod	mod	mod	tg	ht	wh/0742.bmp
504.00	0.72	691	1	1	66	mem	lib	low	low	mod	nt	n/a	nh/0440_nh.bmp
504.72	0.72	692	5	4	115	per	con	mod	mod	mod	tg	ms	wh/0365.bmp
505.44	0.72	693	4	1	127	mem	con	mod	mod	low	tg	ht	wh/0661.bmp
506.16	0.72	694	6	1	92	per	lib	low	mod	low	nt	cr	nh/0914_nh.bmp
506.88	0.72	695	5	3	107	per	lib	low	mod	low	tg	ht	wh/0246.bmp
507.60	0.72	696	4	3	100	per	lib	low	mod	low	tg	ms	wh/0166.bmp
508.32	0.72	697	5	3	6	mem	con	mod	mod	mod	nt	ms	nh/0759_nh.bmp
509.04	0.72	698	1	1	73	mem	lib	low	low	mod	nt	ht	nh/0886_nh.bmp
509.76	0.72	699	6	4	2	mem	con	mod	mod	low	nt	n/a	nh/0067_nh.bmp
510.48	0.72	700	1	2	33	mem	lib	low	low	low	tg	ms	wh/0524.bmp
511.20	0.72	701	4	2	67	mem	con	mod	mod	mod	tg	ms	wh/0761.bmp
511.92	0.72	702	1	4	50	per	lib	low	low	low	nt	cr	nh/0276_nh.bmp
512.64	0.72	703	1	1	32	per	con	mod	low	mod	nt	cr	nh/0517_nh.bmp
513.36	0.72	704	4	1	107	per	con	low	mod	low	nt	cr	nh/0422_nh.bmp
514.08	0.72	705	6	3	6	mem	con	mod	mod	mod	nt	ms	nh/0759_nh.bmp
514.80	0.72	706	6	1	115	mem	con	mod	mod	low	tg	ht	wh/0988.bmp
515.52	0.72	707	6	3	36	per	con	low	mod	low	tg	ms	wh/0132.bmp
516.24	0.72	708	6	1	5	mem	lib	mod	mod	low	nt	ms	nh/0791_nh.bmp
516.96	0.72	709	5	1	127	mem	con	mod	mod	low	tg	ht	wh/0661.bmp
517.68	0.72	710	5	3	108	per	lib	low	mod	low	nt	cr	nh/0575_nh.bmp
518.40	0.72	711	5	3	14	mem	con	mod	mod	mod	nt	ht	nh/0344_nh.bmp
519.12	0.72	712	5	3	11	mem	con	mod	mod	mod	tg	ht	wh/0861.bmp
519.84	0.72	713	5	4	20	mem	lib	mod	mod	low	nt	ht	nh/0424_nh.bmp
520.56	0.72	714	6	4	119	per	con	mod	mod	mod	tg	ms	wh/0049.bmp
521.28	0.72	715	6	4	127	per	con	mod	mod	mod	nt	cr	nh/0943_nh.bmp
522.00	0.72	716	4	3	26	per	lib	mod	mod	mod	tg	ht	wh/0448.bmp
522.72	0.72	717	4	3	16	mem	con	mod	mod	mod	nt	ms	nh/0834_nh.bmp
523.44	0.72	718	5	2	118	per	con	mod	mod	mod	tg	ht	wh/0562.bmp
524.16	0.72	719	5	2	128	per	con	mod	mod	mod	nt	n/a	nh/0331_nh.bmp
524.88	0.72	720	6	3	105	per	lib	low	mod	low	tg	ht	wh/0030.bmp
525.60	0.72	721	6	1	99	per	con	low	mod	low	nt	cr	nh/0259_nh.bmp
526.32	0.72	722	4	1	98	per	con	low	mod	low	tg	ms	wh/0302.bmp
527.04	0.72	723	4	2	121	per	con	mod	mod	mod	nt	cr	nh/0313_nh.bmp
527.76	0.72	724	5	3	26	per	lib	mod	mod	mod	tg	ht	wh/0448.bmp
528.48	0.72	725	1	1	58	mem	con	low	low	low	tg	ms	wh/0335.bmp
529.20	0.72	726	1	3	91	per	con	mod	low	mod	nt	fa	nh/0667_nh.bmp
529.92	0.72	727	4	1	121	mem	con	mod	mod	low	tg	ms	wh/0511.bmp
530.64	0.72	728	6	3	125	mem	lib	mod	mod	mod	nt	ht	nh/0753_nh.bmp
531.36	0.72	729	6	3	31	per	lib	mod	mod	mod	tg	ht	wh/0664.bmp
532.08	0.72	730	5	2	113	per	con	mod	mod	mod	tg	ht	wh/0799.bmp
532.80	0.72	731	4	1	48	per	lib	mod	mod	mod	tg	ms	wh/0796.bmp
533.52	0.72	732	6	1	96	per	lib	low	mod	low	tg	ht	wh/0459.bmp
534.24	0.72	733	5	1	42	per	lib	mod	mod	mod	tg	ht	wh/0137.bmp
534.96	0.72	734	1	2	42	mem	lib	low	low	low	tg	ms	wh/0245.bmp
535.68	0.72	735	5	2	101	mem	lib	mod	mod	mod	nt	ht	nh/0576_nh.bmp
536.40	0.72	736	5	2	125	per	con	mod	mod	mod	tg	ht	wh/0628.bmp
537.12	0.72	737	5	1	121	mem	con	mod	mod	low	tg	ms	wh/0511.bmp
537.84	0.72	738	6	2	72	mem	con	mod	mod	mod	nt	ht	nh/0970_nh.bmp
538.56	0.72	739	4	2	78	mem	con	mod	mod	mod	nt	ht	nh/0348_nh.bmp
539.28	0.72	740	1	4	88	per	lib	mod	low	mod	tg	ht	wh/0937.bmp
540.00	0.72	741	1	4	87	per	lib	mod	low	mod	nt	cr	nh/0644_nh.bmp
540.72	0.72	742	6	3	101	per	lib	low	mod	low	nt	cr	nh/0315_nh.bmp
541.44	0.72	743	1	2	49	per	con	low	low	low	nt	fa	nh/0309_nh.bmp
542.16	0.72	744	5	4	15	mem	con	mod	mod	low	tg	ms	wh/0683.bmp
542.88	0.72	745	6	1	36	per	lib	mod	mod	mod	nt	cr	nh/0645_nh.bmp
543.60	0.72	746	5	1	107	per	con	low	mod	low	nt	cr	nh/0422_nh.bmp
544.32	0.72	747	6	4	5	mem	con	mod	mod	low	tg	ms	wh/0792.bmp
545.04	0.72	748	5	3	13	mem	con	mod	mod	mod	nt	ms	nh/0358_nh.bmp
545.76	0.72	749	5	2	80	mem	con	mod	mod	mod	tg	ms	wh/0104.bmp
546.48	0.72	750	1	4	112	per	con	low	low	low	nt	cr	nh/0120_nh.bmp
547.20	0.72	751	1	4	67	mem	lib	low	low	low	tg	ms	wh/0117.bmp
547.92	0.72	752	5	2	108	mem	lib	mod	mod	mod	nt	ms	nh/1006_nh.bmp
548.64	0.72	753	1	4	43	mem	con	low	low	low	tg	ms	wh/0484.bmp
549.36	0.72	754	5	2	100	mem	lib	mod	mod	mod	tg	ht	wh/0071.bmp
550.08	0.72	755	5	2	78	mem	con	mod	mod	mod	nt	ht	nh/0348_nh.bmp
550.80	0.72	756	1	3	95	per	con	mod	low	mod	tg	ms	wh/0346.bmp
551.52	0.72	757	5	1	110	per	con	low	mod	low	nt	cr	nh/0671_nh.bmp
552.24	0.72	758	6	1	121	mem	con	mod	mod	low	tg	ms	wh/0511.bmp
552.96	0.72	759	5	2	126	per	con	mod	mod	mod	nt	cr	nh/0359_nh.bmp
553.68	0.72	760	5	1	105	per	con	low	mod	low	tg	ms	wh/0212.bmp
554.40	0.72	761	6	1	110	per	con	low	mod	low	nt	cr	nh/0671_nh.bmp
555.12	0.72	762	1	2	47	mem	lib	low	low	low	nt	ms	nh/0828_nh.bmp
555.84	0.72	763	5	1	9	mem	lib	mod	mod	low	tg	ms	wh/0295.bmp
556.56	0.72	764	6	2	128	per	con	mod	mod	mod	nt	n/a	nh/0331_nh.bmp
557.28	0.72	765	6	1	12	mem	lib	mod	mod	low	nt	ht	nh/0494_nh.bmp
558.00	0.72	766	6	3	118	mem	lib	mod	mod	mod	nt	ms	nh/0445_nh.bmp
558.72	0.72	767	6	2	80	mem	con	mod	mod	mod	tg	ms	wh/0104.bmp
559.44	0.72	768	6	1	8	mem	lib	mod	mod	low	tg	ht	wh/0444.bmp
560.16	0.72	769	6	4	126	per	con	mod	mod	mod	nt	cr	nh/0061_nh.bmp
560.88	0.72	770	6	4	24	mem	lib	mod	mod	low	tg	ms	wh/0390.bmp
561.60	0.72	771	1	2	25	per	lib	mod	low	mod	nt	fa	nh/0754_nh.bmp
562.32	0.72	772	5	4	16	mem	con	mod	mod	low	nt	ht	nh/0757_nh.bmp
563.04	0.72	773	6	2	122	per	con	mod	mod	mod	tg	n/a	wh/0333.bmp
563.76	0.72	774	6	4	20	mem	lib	mod	mod	low	nt	ht	nh/0424_nh.bmp
564.48	0.72	775	5	1	94	per	lib	low	mod	low	tg	ht	wh/0263.bmp
565.20	0.72	776	6	2	100	mem	lib	mod	mod	mod	tg	ht	wh/0071.bmp
565.92	0.72	777	6	2	126	per	con	mod	mod	mod	nt	cr	nh/0359_nh.bmp
566.64	0.72	778	6	2	112	mem	lib	mod	mod	mod	tg	ht	wh/0742.bmp
567.36	0.72	779	6	1	81	per	lib	low	mod	low	tg	ht	wh/0293.bmp
568.08	0.72	780	6	3	40	per	con	low	mod	low	nt	cr	nh/1000_nh.bmp
568.80	0.72	781	6	2	118	per	con	mod	mod	mod	tg	ht	wh/0562.bmp
569.52	0.72	782	5	3	35	per	con	low	mod	low	tg	ms	wh/0454.bmp
570.24	0.72	783	4	3	103	per	lib	low	mod	low	nt	cr	nh/0509_nh.bmp
570.96	0.72	784	6	3	14	mem	con	mod	mod	mod	nt	ht	nh/0344_nh.bmp
571.68	0.72	785	5	3	99	per	lib	low	mod	low	nt	cr	nh/0081_nh.bmp
572.40	0.72	786	6	1	103	per	con	low	mod	low	nt	fa	nh/0672_nh.bmp
573.12	0.72	787	6	3	13	mem	con	mod	mod	mod	nt	ms	nh/0358_nh.bmp
573.84	0.72	788	5	1	98	per	con	low	mod	low	tg	ms	wh/0302.bmp
574.56	0.72	789	6	2	113	per	con	mod	mod	mod	tg	ht	wh/0799.bmp
575.28	0.72	790	4	1	112	per	con	low	mod	low	tg	ms	wh/0882.bmp
576.00	0.72	791	6	1	86	per	lib	low	mod	low	nt	cr	nh/0765_nh.bmp
576.72	0.72	792	5	3	123	mem	lib	mod	mod	mod	nt	ht	nh/0282_nh.bmp
577.44	0.72	793	5	1	48	per	lib	mod	mod	mod	tg	ms	wh/0796.bmp
578.16	0.72	794	4	3	39	per	con	low	mod	low	nt	cr	nh/0283_nh.bmp
578.88	0.72	795	4	2	69	mem	con	mod	mod	mod	tg	ht	wh/0983.bmp
579.60	0.72	796	6	1	107	per	con	low	mod	low	nt	cr	nh/0422_nh.bmp
580.32	0.72	797	6	3	99	per	lib	low	mod	low	nt	cr	nh/0081_nh.bmp
581.04	0.72	798	5	1	112	per	con	low	mod	low	tg	ms	wh/0882.bmp
581.76	0.72	799	5	4	9	mem	con	mod	mod	low	nt	ht	nh/0174_nh.bmp
582.48	0.72	800	5	1	128	mem	con	mod	mod	low	nt	ht	nh/0386_nh.bmp
583.20	0.72	801	6	1	9	mem	lib	mod	mod	low	tg	ms	wh/0295.bmp
583.92	0.72	802	5	3	39	per	con	low	mod	low	nt	cr	nh/0283_nh.bmp
584.64	0.72	803	6	4	26	mem	lib	mod	mod	low	nt	ht	nh/0236_nh.bmp
585.36	0.72	804	6	4	16	mem	con	mod	mod	low	nt	ht	nh/0757_nh.bmp
586.08	0.72	805	4	4	25	mem	lib	mod	mod	low	nt	ms	nh/0798_nh.bmp
586.80	0.72	806	1	2	87	per	lib	low	low	low	nt	cr	nh/0160_nh.bmp
587.52	0.72	807	6	1	128	mem	con	mod	mod	low	nt	ht	nh/0386_nh.bmp
588.24	0.72	808	6	3	117	mem	lib	mod	mod	mod	tg	ms	wh/0343.bmp
588.96	0.72	809	1	4	101	per	con	low	low	low	nt	cr	nh/0430_nh.bmp
589.68	0.72	810	1	2	56	per	con	low	low	low	tg	ms	wh/0987.bmp
590.40	0.72	811	6	3	15	mem	con	mod	mod	mod	tg	ht	wh/0809.bmp
591.12	0.72	812	5	1	11	mem	lib	mod	mod	low	tg	ms	wh/0415.bmp
591.84	0.72	813	5	3	100	per	lib	low	mod	low	tg	ms	wh/0166.bmp
592.56	0.72	814	6	2	114	per	con	mod	mod	mod	nt	cr	nh/0097_nh.bmp
593.28	0.72	815	5	1	35	per	lib	mod	mod	mod	nt	fa	nh/0279_nh.bmp
594.00	0.72	816	5	3	38	per	con	low	mod	low	nt	cr	nh/0400_nh.bmp
594.72	0.72	817	6	4	6	mem	con	mod	mod	low	tg	ht	wh/0512.bmp
595.44	0.72	818	6	4	9	mem	con	mod	mod	low	nt	ht	nh/0174_nh.bmp
596.16	0.72	819	6	2	109	mem	lib	mod	mod	mod	nt	ht	nh/0487_nh.bmp
596.88	0.72	820	6	1	118	mem	con	mod	mod	low	nt	ms	nh/0368_nh.bmp
597.60	0.72	821	5	2	121	per	con	mod	mod	mod	nt	cr	nh/0313_nh.bmp
598.32	0.72	822	6	2	76	mem	con	mod	mod	mod	tg	ms	wh/0413.bmp
599.04	0.72	823	6	2	121	per	con	mod	mod	mod	nt	cr	nh/0313_nh.bmp
599.76	0.72	824	6	4	15	mem	con	mod	mod	low	tg	ms	wh/0683.bmp
600.48	0.72	825	1	2	43	mem	lib	low	low	low	nt	ms	nh/0504_nh.bmp
601.20	0.72	826	5	1	82	per	lib	low	mod	low	tg	ms	wh/0412.bmp
601.92	0.72	827	1	1	80	mem	lib	low	low	mod	tg	ms	wh/0991.bmp
602.64	0.72	828	5	3	103	per	lib	low	mod	low	nt	cr	nh/0509_nh.bmp
603.36	0.72	829	5	3	42	per	con	low	mod	low	tg	ms	wh/0703.bmp
604.08	0.72	830	5	2	69	mem	con	mod	mod	mod	tg	ht	wh/0983.bmp
604.80	0.72	831	6	1	93	per	lib	low	mod	low	nt	cr	nh/0554_nh.bmp
605.52	0.72	832	6	2	125	per	con	mod	mod	mod	tg	ht	wh/0628.bmp
606.24	0.72	833	1	2	94	per	lib	low	low	low	tg	ht	wh/0357.bmp
606.96	0.72	834	6	2	101	mem	lib	mod	mod	mod	nt	ht	nh/0576_nh.bmp
607.68	0.72	835	5	3	24	per	lib	mod	mod	mod	nt	cr	nh/0479_nh.bmp
608.40	0.72	836	6	2	78	mem	con	mod	mod	mod	nt	ht	nh/0348_nh.bmp
609.12	0.72	837	6	3	11	mem	con	mod	mod	mod	tg	ht	wh/0861.bmp
609.84	0.72	838	6	4	10	mem	con	mod	mod	low	tg	ms	wh/0976.bmp
610.56	0.72	839	6	1	122	mem	con	mod	mod	low	nt	ht	nh/0323_nh.bmp
611.28	0.72	840	5	3	25	per	lib	mod	mod	mod	nt	cr	nh/0689_nh.bmp
612.00	0.72	841	6	2	97	mem	lib	mod	mod	mod	tg	ht	wh/0901.bmp
612.72	0.72	842	6	3	25	per	lib	mod	mod	mod	nt	cr	nh/0689_nh.bmp
613.44	0.72	843	6	1	13	mem	lib	mod	mod	low	tg	ms	wh/0312.bmp
614.16	0.72	844	6	3	108	per	lib	low	mod	low	nt	cr	nh/0575_nh.bmp
614.88	0.72	845	1	1	20	per	con	mod	low	mod	nt	cr	nh/0811_nh.bmp
615.60	0.72	846	6	3	107	per	lib	low	mod	low	tg	ht	wh/0246.bmp
616.32	0.72	847	5	4	25	mem	lib	mod	mod	low	nt	ms	nh/0798_nh.bmp
617.04	0.72	848	1	4	100	per	con	low	low	low	tg	ms	wh/0607.bmp
617.76	0.72	849	6	4	18	mem	lib	mod	mod	low	tg	ht	wh/0291.bmp
618.48	0.72	850	5	3	2	mem	con	mod	mod	mod	tg	ht	wh/0477.bmp
619.20	0.72	851	6	1	11	mem	lib	mod	mod	low	tg	ms	wh/0415.bmp
619.92	0.72	852	1	4	111	per	con	low	low	low	nt	fa	nh/0130_nh.bmp
620.64	0.72	853	5	4	121	per	con	mod	mod	mod	nt	cr	nh/0427_nh.bmp
621.36	0.72	854	6	3	42	per	con	low	mod	low	tg	ms	wh/0703.bmp
622.08	0.72	855	5	1	95	per	lib	low	mod	low	nt	cr	nh/0438_nh.bmp
622.80	0.72	856	6	1	95	per	lib	low	mod	low	nt	cr	nh/0438_nh.bmp
623.52	0.72	857	6	1	82	per	lib	low	mod	low	tg	ms	wh/0412.bmp
624.24	0.72	858	6	2	102	mem	lib	mod	mod	mod	nt	ht	nh/1010_nh.bmp
624.96	0.72	859	6	1	48	per	lib	mod	mod	mod	tg	ms	wh/0796.bmp
625.68	0.72	860	5	1	106	per	con	low	mod	low	tg	ms	wh/0496.bmp
626.40	0.72	861	5	2	67	mem	con	mod	mod	mod	tg	ms	wh/0761.bmp
627.12	0.72	862	6	1	42	per	lib	mod	mod	mod	tg	ht	wh/0137.bmp
627.84	0.72	863	6	4	25	mem	lib	mod	mod	low	nt	ms	nh/0798_nh.bmp
628.56	0.72	864	6	1	105	per	con	low	mod	low	tg	ms	wh/0212.bmp
629.28	0.72	865	1	1	18	per	con	mod	low	mod	tg	ht	wh/0854.bmp
630.00	0.72	866	6	3	26	per	lib	mod	mod	mod	tg	ht	wh/0448.bmp
630.72	0.72	867	5	1	2	mem	lib	mod	mod	low	nt	ht	nh/0007_nh.bmp
631.44	0.72	868	6	3	39	per	con	low	mod	low	nt	cr	nh/0283_nh.bmp
632.16	0.72	869	6	4	115	per	con	mod	mod	mod	tg	ms	wh/0365.bmp
632.88	0.72	870	6	3	38	per	con	low	mod	low	nt	cr	nh/0400_nh.bmp
633.60	0.72	871	6	3	33	per	con	low	mod	low	tg	ms	wh/0641.bmp
634.32	0.72	872	6	1	106	per	con	low	mod	low	tg	ms	wh/0496.bmp
635.04	0.72	873	6	3	123	mem	lib	mod	mod	mod	nt	ht	nh/0282_nh.bmp
635.76	0.72	874	5	4	21	mem	lib	mod	mod	low	tg	ms	wh/0131.bmp
636.48	0.72	875	6	3	5	mem	con	mod	mod	mod	tg	ht	wh/0039.bmp
637.20	0.72	876	6	3	35	per	con	low	mod	low	tg	ms	wh/0454.bmp
637.92	0.72	877	5	3	16	mem	con	mod	mod	mod	nt	ms	nh/0834_nh.bmp
638.64	0.72	878	6	3	16	mem	con	mod	mod	mod	nt	ms	nh/0834_nh.bmp
639.36	0.72	879	6	1	127	mem	con	mod	mod	low	tg	ht	wh/0661.bmp
640.08	0.72	880	6	1	112	per	con	low	mod	low	tg	ms	wh/0882.bmp
640.80	0.72	881	6	1	2	mem	lib	mod	mod	low	nt	ht	nh/0007_nh.bmp
641.52	0.72	882	6	2	66	mem	con	mod	mod	mod	nt	ht	nh/0583_nh.bmp
642.24	0.72	883	6	1	98	per	con	low	mod	low	tg	ms	wh/0302.bmp
642.96	0.72	884	6	4	29	mem	lib	mod	mod	low	tg	ht	wh/0523.bmp
643.68	0.72	885	6	4	21	mem	lib	mod	mod	low	tg	ms	wh/0131.bmp
644.40	0.72	886	6	3	24	per	lib	mod	mod	mod	nt	cr	nh/0479_nh.bmp
645.12	0.72	887	6	1	94	per	lib	low	mod	low	tg	ht	wh/0263.bmp
645.84	0.72	888	6	1	35	per	lib	mod	mod	mod	nt	fa	nh/0279_nh.bmp
646.56	0.72	889	6	2	108	mem	lib	mod	mod	mod	nt	ms	nh/1006_nh.bmp
647.28	0.72	890	6	3	113	mem	lib	mod	mod	mod	tg	ht	wh/0538.bmp
648.00	0.72	891	6	4	121	per	con	mod	mod	mod	nt	cr	nh/0427_nh.bmp
648.72	0.72	892	6	3	103	per	lib	low	mod	low	nt	cr	nh/0509_nh.bmp
649.44	0.72	893	6	3	2	mem	con	mod	mod	mod	tg	ht	wh/0477.bmp
650.16	0.72	894	6	2	67	mem	con	mod	mod	mod	tg	ms	wh/0761.bmp
650.88	0.72	895	6	2	69	mem	con	mod	mod	mod	tg	ht	wh/0983.bmp
651.60	0.72	896	6	3	100	per	lib	low	mod	low	tg	ms	wh/0166.bmp
