onset	duration	trial	pres	ts_blk	ts_trl	task	crit	disc	mem_disc	per_disc	per_type	accuracy	stim_file
7.20	0.72	1	1	7	69	mem	con	mod	mod	low	nt	ht	nh/0190_nh.bmp
7.92	0.72	2	1	7	45	per	lib	mod	mod	mod	nt	fa	nh/0543_nh.bmp
8.64	0.72	3	1	7	68	mem	con	mod	mod	low	tg	ht	wh/0125.bmp
9.36	0.72	4	1	7	67	mem	con	mod	mod	low	nt	ht	nh/0074_nh.bmp
10.08	0.72	5	1	5	107	per	con	low	mod	low	nt	fa	nh/0299_nh.bmp
10.80	0.72	6	1	6	37	per	con	mod	low	mod	tg	ms	wh/0936.bmp
11.52	0.72	7	1	7	86	per	con	mod	mod	mod	tg	ht	wh/0199.bmp
12.24	0.72	8	1	8	103	per	con	mod	low	mod	tg	ht	wh/0278.bmp
12.96	0.72	9	1	6	112	per	con	low	low	low	nt	cr	nh/0513_nh.bmp
13.68	0.72	10	1	8	5	per	lib	mod	low	mod	nt	cr	nh/0870_nh.bmp
14.40	0.72	11	1	5	102	per	con	low	mod	low	nt	cr	nh/0329_nh.bmp
15.12	0.72	12	1	6	81	per	lib	mod	mod	mod	nt	cr	nh/0540_nh.bmp
15.84	0.72	13	1	7	36	per	lib	mod	mod	mod	nt	cr	nh/0594_nh.bmp
16.56	0.72	14	2	7	86	per	con	mod	mod	mod	tg	ht	wh/0199.bmp
17.28	0.72	15	1	5	42	mem	lib	low	low	low	nt	ht	nh/0431_nh.bmp
18.00	0.72	16	1	5	98	per	con	low	mod	low	tg	ht	wh/0134.bmp
18.72	0.72	17	1	8	28	per	lib	low	mod	low	nt	fa	nh/0646_nh.bmp
19.44	0.72	18	1	8	90	per	con	low	mod	low	nt	cr	nh/0758_nh.bmp
20.16	0.72	19	1	7	48	per	lib	mod	mod	mod	tg	ht	wh/0196.bmp
20.88	0.72	20	1	8	87	per	con	low	mod	low	tg	ms	wh/0730.bmp
21.60	0.72	21	1	6	73	mem	lib	mod	mod	mod	nt	ht	nh/0350_nh.bmp
22.32	0.72	22	1	7	83	per	con	mod	mod	mod	nt	cr	nh/0094_nh.bmp
23.04	0.72	23	1	6	62	mem	con	mod	mod	mod	tg	ms	wh/0447.bmp
23.76	0.72	24	1	8	50	mem	lib	mod	mod	mod	nt	ms	nh/0591_nh.bmp
24.48	0.72	25	1	6	126	per	lib	low	mod	low	tg	ht	wh/0690.bmp
25.20	0.72	26	1	5	8	per	lib	low	low	low	nt	fa	nh/0090_nh.bmp
25.92	0.72	27	1	6	88	per	lib	mod	mod	mod	tg	ht	wh/0803.bmp
26.64	0.72	28	1	8	72	mem	con	mod	mod	mod	nt	ms	nh/0095_nh.bmp
27.36	0.72	29	1	5	106	per	con	low	mod	low	tg	ms	wh/0510.bmp
28.08	0.72	30	2	6	73	mem	lib	mod	mod	mod	nt	ht	nh/0350_nh.bmp
28.80	0.72	31	1	7	91	per	con	mod	mod	mod	nt	cr	nh/0855_nh.bmp
29.52	0.72	32	1	8	99	per	con	mod	low	mod	tg	ht	wh/0927.bmp
30.24	0.72	33	1	5	20	mem	lib	mod	mod	low	tg	ht	wh/0802.bmp
30.96	0.72	34	2	7	67	mem	con	mod	mod	low	nt	ht	nh/0074_nh.bmp
31.68	0.72	35	1	6	114	per	lib	low	mod	low	nt	cr	nh/0077_nh.bmp
32.40	0.72	36	1	8	51	mem	lib	mod	mod	mod	nt	ms	nh/0398_nh.bmp
33.12	0.72	37	1	5	78	mem	con	mod	mod	low	tg	ht	wh/0508.bmp
33.84	0.72	38	1	5	92	per	con	mod	mod	mod	nt	cr	nh/0810_nh.bmp
34.56	0.72	39	1	7	34	per	lib	mod	mod	mod	tg	ht	wh/0099.bmp
35.28	0.72	40	1	7	32	mem	lib	low	low	low	nt	ht	nh/0158_nh.bmp
36.00	0.72	41	1	6	125	per	lib	low	mod	low	tg	ms	wh/0760.bmp
36.72	0.72	42	1	6	121	per	lib	low	mod	low	nt	fa	nh/0036_nh.bmp
37.44	0.72	43	1	5	24	mem	lib	mod	mod	low	nt	ht	nh/0336_nh.bmp
38.16	0.72	44	1	5	122	per	lib	mod	low	mod	tg	ht	wh/1024.bmp
38.88	0.72	45	2	6	88	per	lib	mod	mod	mod	tg	ht	wh/0803.bmp
39.60	0.72	46	1	5	45	mem	lib	low	low	low	tg	ms	wh/0488.bmp
40.32	0.72	47	1	8	14	per	lib	mod	low	mod	tg	ms	wh/0277.bmp
41.04	0.72	48	1	8	81	per	con	low	mod	low	nt	cr	nh/0256_nh.bmp
41.76	0.72	49	1	6	72	mem	lib	mod	mod	mod	nt	ht	nh/0558_nh.bmp
42.48	0.72	50	2	6	62	mem	con	mod	mod	mod	tg	ms	wh/0447.bmp
43.20	0.72	51	1	5	96	per	con	mod	mod	mod	nt	fa	nh/0904_nh.bmp
43.92	0.72	52	1	8	119	mem	con	low	low	low	tg	ms	wh/0483.bmp
44.64	0.72	53	1	7	85	per	con	mod	mod	mod	nt	cr	nh/0187_nh.bmp
45.36	0.72	54	1	6	51	mem	con	mod	mod	mod	nt	ms	nh/0397_nh.bmp
46.08	0.72	55	1	6	124	per	lib	low	mod	low	nt	cr	nh/0818_nh.bmp
46.80	0.72	56	1	5	17	mem	lib	mod	mod	low	nt	ht	nh/0079_nh.bmp
47.52	0.72	57	1	8	75	mem	con	mod	mod	mod	tg	ht	wh/0497.bmp
48.24	0.72	58	1	5	23	mem	lib	mod	mod	low	tg	ht	wh/0613.bmp
48.96	0.72	59	1	6	15	mem	lib	low	low	mod	nt	ht	nh/0469_nh.bmp
49.68	0.72	60	1	8	59	mem	lib	mod	mod	mod	nt	ht	nh/0902_nh.bmp
50.40	0.72	61	2	7	48	per	lib	mod	mod	mod	tg	ht	wh/0196.bmp
51.12	0.72	62	1	8	66	mem	con	mod	mod	mod	nt	ht	nh/0697_nh.bmp
51.84	0.72	63	1	7	73	mem	con	mod	mod	low	tg	ht	wh/0238.bmp
52.56	0.72	64	1	6	55	mem	con	mod	mod	mod	nt	ms	nh/0947_nh.bmp
53.28	0.72	65	1	5	32	mem	lib	mod	mod	low	tg	ht	wh/0153.bmp
54.00	0.72	66	2	6	55	mem	con	mod	mod	mod	nt	ms	nh/0947_nh.bmp
54.72	0.72	67	1	5	89	per	con	mod	mod	mod	tg	ht	wh/0209.bmp
55.44	0.72	68	1	6	123	per	lib	low	mod	low	tg	ms	wh/0361.bmp
56.16	0.72	69	2	5	23	mem	lib	mod	mod	low	tg	ht	wh/0613.bmp
56.88	0.72	70	1	5	9	per	lib	low	low	low	nt	cr	nh/0053_nh.bmp
57.60	0.72	71	1	6	59	mem	con	mod	mod	mod	tg	ht	wh/0548.bmp
58.32	0.72	72	2	6	126	per	lib	low	mod	low	tg	ht	wh/0690.bmp
59.04	0.72	73	1	8	114	mem	con	low	low	low	nt	ms	nh/0113_nh.bmp
59.76	0.72	74	1	7	118	mem	lib	mod	mod	low	nt	ms	nh/0635_nh.bmp
60.48	0.72	75	1	5	70	mem	con	mod	mod	low	nt	ht	nh/0489_nh.bmp
61.20	0.72	76	2	5	78	mem	con	mod	mod	low	tg	ht	wh/0508.bmp
61.92	0.72	77	1	8	85	per	con	low	mod	low	tg	ms	wh/0404.bmp
62.64	0.72	78	2	6	59	mem	con	mod	mod	mod	tg	ht	wh/0548.bmp
63.36	0.72	79	1	8	32	per	lib	low	mod	low	tg	ms	wh/0035.bmp
64.08	0.72	80	1	6	17	mem	con	low	low	mod	tg	ht	wh/0316.bmp
64.80	0.72	81	2	8	72	mem	con	mod	mod	mod	nt	ms	nh/0095_nh.bmp
65.52	0.72	82	2	5	107	per	con	low	mod	low	nt	fa	nh/0299_nh.bmp
66.24	0.72	83	1	6	89	per	lib	mod	mod	mod	tg	ht	wh/0909.bmp
66.96	0.72	84	1	5	90	per	con	mod	mod	mod	tg	ht	wh/0273.bmp
67.68	0.72	85	1	8	69	mem	con	mod	mod	mod	nt	ms	nh/0876_nh.bmp
68.40	0.72	86	1	8	88	per	con	low	mod	low	nt	cr	nh/0364_nh.bmp
69.12	0.72	87	2	8	81	per	con	low	mod	low	nt	cr	nh/0256_nh.bmp
69.84	0.72	88	1	7	90	per	con	mod	mod	mod	tg	ms	wh/0222.bmp
70.56	0.72	89	2	5	20	mem	lib	mod	mod	low	tg	ht	wh/0802.bmp
71.28	0.72	90	1	7	75	mem	con	mod	mod	low	nt	ms	nh/0075_nh.bmp
72.00	0.72	91	1	8	94	per	con	low	mod	low	tg	ht	wh/0355.bmp
72.72	0.72	92	1	5	80	mem	con	mod	mod	low	tg	ms	wh/0503.bmp
73.44	0.72	93	3	7	67	mem	con	mod	mod	low	nt	ht	nh/0074_nh.bmp
74.16	0.72	94	1	8	96	per	con	low	mod	low	tg	ms	wh/0744.bmp
74.88	0.72	95	1	7	76	mem	con	mod	mod	low	tg	ms	wh/0383.bmp
75.60	0.72	96	1	6	67	mem	lib	mod	mod	mod	tg	ht	wh/0946.bmp
76.32	0.72	97	1	7	3	per	con	low	low	low	tg	ms	wh/0956.bmp
77.04	0.72	98	1	8	58	mem	lib	mod	mod	mod	tg	ht	wh/0684.bmp
77.76	0.72	99	1	5	28	mem	lib	mod	mod	low	tg	ht	wh/0417.bmp
78.48	0.72	100	3	6	126	per	lib	low	mod	low	tg	ht	wh/0690.bmp
79.20	0.72	101	1	5	108	per	con	low	mod	low	tg	ms	wh/0338.bmp
79.92	0.72	102	1	8	116	mem	con	low	low	low	nt	ms	nh/0571_nh.bmp
80.64	0.72	103	1	6	27	mem	con	low	low	mod	tg	ht	wh/0708.bmp
81.36	0.72	104	1	6	57	mem	con	mod	mod	mod	tg	ht	wh/0563.bmp
82.08	0.72	105	1	8	68	mem	con	mod	mod	mod	tg	ht	wh/0588.bmp
82.80	0.72	106	1	7	41	per	lib	mod	mod	mod	tg	ms	wh/0446.bmp
83.52	0.72	107	2	8	87	per	con	low	mod	low	tg	ms	wh/0730.bmp
84.24	0.72	108	1	8	31	per	lib	low	mod	low	tg	ht	wh/0660.bmp
84.96	0.72	109	1	6	82	per	lib	mod	mod	mod	tg	ht	wh/0928.bmp
85.68	0.72	110	2	6	51	mem	con	mod	mod	mod	nt	ms	nh/0397_nh.bmp
86.40	0.72	111	1	5	66	mem	con	mod	mod	low	nt	ht	nh/0029_nh.bmp
87.12	0.72	112	1	5	18	mem	lib	mod	mod	low	nt	ht	nh/0451_nh.bmp
87.84	0.72	113	1	7	65	mem	con	mod	mod	low	tg	ht	wh/0465.bmp
88.56	0.72	114	1	8	48	mem	lib	low	low	mod	nt	ht	nh/0426_nh.bmp
89.28	0.72	115	2	6	67	mem	lib	mod	mod	mod	tg	ht	wh/0946.bmp
90.00	0.72	116	1	8	74	mem	con	mod	mod	mod	tg	ht	wh/0843.bmp
90.72	0.72	117	2	6	123	per	lib	low	mod	low	tg	ms	wh/0361.bmp
91.44	0.72	118	1	5	93	per	con	mod	mod	mod	nt	fa	nh/0650_nh.bmp
92.16	0.72	119	1	7	97	per	lib	low	low	low	nt	cr	nh/0013_nh.bmp
92.88	0.72	120	1	7	123	mem	lib	mod	mod	low	nt	ms	nh/0964_nh.bmp
93.60	0.72	121	1	7	96	per	con	mod	mod	mod	tg	ht	wh/0874.bmp
94.32	0.72	122	3	6	88	per	lib	mod	mod	mod	tg	ht	wh/0803.bmp
95.04	0.72	123	1	5	40	mem	lib	low	low	low	tg	ht	wh/0215.bmp
95.76	0.72	124	1	7	127	mem	lib	mod	mod	low	tg	ms	wh/0123.bmp
96.48	0.72	125	2	5	80	mem	con	mod	mod	low	tg	ms	wh/0503.bmp
97.20	0.72	126	1	7	120	mem	lib	mod	mod	low	tg	ht	wh/1023.bmp
97.92	0.72	127	1	6	64	mem	con	mod	mod	mod	nt	ht	nh/0973_nh.bmp
98.64	0.72	128	1	7	116	mem	lib	mod	mod	low	tg	ht	wh/0493.bmp
99.36	0.72	129	2	5	106	per	con	low	mod	low	tg	ms	wh/0510.bmp
100.08	0.72	130	2	8	88	per	con	low	mod	low	nt	cr	nh/0364_nh.bmp
100.80	0.72	131	3	6	123	per	lib	low	mod	low	tg	ms	wh/0361.bmp
101.52	0.72	132	1	6	49	mem	con	mod	mod	mod	nt	ms	nh/0462_nh.bmp
102.24	0.72	133	3	5	106	per	con	low	mod	low	tg	ms	wh/0510.bmp
102.96	0.72	134	3	6	55	mem	con	mod	mod	mod	nt	ms	nh/0947_nh.bmp
103.68	0.72	135	1	6	83	per	lib	mod	mod	mod	nt	cr	nh/0772_nh.bmp
104.40	0.72	136	3	8	87	per	con	low	mod	low	tg	ms	wh/0730.bmp
105.12	0.72	137	2	8	69	mem	con	mod	mod	mod	nt	ms	nh/0876_nh.bmp
105.84	0.72	138	1	8	18	per	lib	low	mod	low	nt	fa	nh/0940_nh.bmp
106.56	0.72	139	2	5	24	mem	lib	mod	mod	low	nt	ht	nh/0336_nh.bmp
107.28	0.72	140	1	5	77	mem	con	mod	mod	low	nt	ht	nh/0893_nh.bmp
108.00	0.72	141	1	7	23	mem	lib	low	low	low	tg	ht	wh/0691.bmp
108.72	0.72	142	1	6	101	per	con	low	low	low	nt	cr	nh/0845_nh.bmp
109.44	0.72	143	1	6	98	per	con	low	low	low	tg	ms	wh/0261.bmp
110.16	0.72	144	2	7	65	mem	con	mod	mod	low	tg	ht	wh/0465.bmp
110.88	0.72	145	2	8	32	per	lib	low	mod	low	tg	ms	wh/0035.bmp
111.60	0.72	146	1	5	31	mem	lib	mod	mod	low	nt	ms	nh/0150_nh.bmp
112.32	0.72	147	1	5	124	per	lib	mod	low	mod	tg	ms	wh/0849.bmp
113.04	0.72	148	1	8	64	mem	lib	mod	mod	mod	tg	ht	wh/0795.bmp
113.76	0.72	149	2	6	81	per	lib	mod	mod	mod	nt	cr	nh/0540_nh.bmp
114.48	0.72	150	3	7	65	mem	con	mod	mod	low	tg	ht	wh/0465.bmp
115.20	0.72	151	2	6	89	per	lib	mod	mod	mod	tg	ht	wh/0909.bmp
115.92	0.72	152	1	6	128	per	lib	low	mod	low	nt	cr	nh/0232_nh.bmp
116.64	0.72	153	1	7	44	per	lib	mod	mod	mod	tg	ht	wh/0714.bmp
117.36	0.72	154	3	5	80	mem	con	mod	mod	low	tg	ms	wh/0503.bmp
118.08	0.72	155	2	5	102	per	con	low	mod	low	nt	cr	nh/0329_nh.bmp
118.80	0.72	156	1	7	79	mem	con	mod	mod	low	nt	ht	nh/0967_nh.bmp
119.52	0.72	157	1	8	73	mem	con	mod	mod	mod	tg	ht	wh/0396.bmp
120.24	0.72	158	1	7	124	mem	lib	mod	mod	low	nt	ms	nh/0608_nh.bmp
120.96	0.72	159	1	5	86	per	con	mod	mod	mod	nt	cr	nh/0182_nh.bmp
121.68	0.72	160	3	5	24	mem	lib	mod	mod	low	nt	ht	nh/0336_nh.bmp
122.40	0.72	161	1	8	29	per	lib	low	mod	low	tg	ms	wh/0194.bmp
123.12	0.72	162	2	7	75	mem	con	mod	mod	low	nt	ms	nh/0075_nh.bmp
123.84	0.72	163	2	7	116	mem	lib	mod	mod	low	tg	ht	wh/0493.bmp
124.56	0.72	164	2	8	94	per	con	low	mod	low	tg	ht	wh/0355.bmp
125.28	0.72	165	2	8	66	mem	con	mod	mod	mod	nt	ht	nh/0697_nh.bmp
126.00	0.72	166	2	8	90	per	con	low	mod	low	nt	cr	nh/0758_nh.bmp
126.72	0.72	167	1	6	39	per	con	mod	low	mod	tg	n/a	wh/0531.bmp
127.44	0.72	168	2	7	79	mem	con	mod	mod	low	nt	ht	nh/0967_nh.bmp
128.16	0.72	169	2	8	29	per	lib	low	mod	low	tg	ms	wh/0194.bmp
128.88	0.72	170	1	6	91	per	lib	mod	mod	mod	tg	ms	wh/0371.bmp
129.60	0.72	171	2	7	41	per	lib	mod	mod	mod	tg	ms	wh/0446.bmp
130.32	0.72	172	1	8	63	mem	lib	mod	mod	mod	tg	ms	wh/0380.bmp
131.04	0.72	173	3	6	67	mem	lib	mod	mod	mod	tg	ht	wh/0946.bmp
131.76	0.72	174	1	6	22	mem	con	low	low	mod	nt	ms	nh/0059_nh.bmp
132.48	0.72	175	3	8	32	per	lib	low	mod	low	tg	ms	wh/0035.bmp
133.20	0.72	176	2	7	83	per	con	mod	mod	mod	nt	cr	nh/0094_nh.bmp
133.92	0.72	177	1	8	55	mem	lib	mod	mod	mod	tg	ms	wh/0442.bmp
134.64	0.72	178	2	6	114	per	lib	low	mod	low	nt	cr	nh/0077_nh.bmp
135.36	0.72	179	4	6	67	mem	lib	mod	mod	mod	tg	ht	wh/0946.bmp
136.08	0.72	180	2	8	31	per	lib	low	mod	low	tg	ht	wh/0660.bmp
136.80	0.72	181	3	8	90	per	con	low	mod	low	nt	cr	nh/0758_nh.bmp
137.52	0.72	182	3	8	81	per	con	low	mod	low	nt	cr	nh/0256_nh.bmp
138.24	0.72	183	1	6	68	mem	lib	mod	mod	mod	tg	ht	wh/0962.bmp
138.96	0.72	184	1	8	22	per	lib	low	mod	low	nt	cr	nh/0080_nh.bmp
139.68	0.72	185	3	6	89	per	lib	mod	mod	mod	tg	ht	wh/0909.bmp
140.40	0.72	186	2	5	92	per	con	mod	mod	mod	nt	cr	nh/0810_nh.bmp
141.12	0.72	187	3	7	75	mem	con	mod	mod	low	nt	ms	nh/0075_nh.bmp
141.84	0.72	188	1	8	126	mem	con	low	low	low	nt	ms	nh/0710_nh.bmp
142.56	0.72	189	3	6	73	mem	lib	mod	mod	mod	nt	ht	nh/0350_nh.bmp
143.28	0.72	190	1	6	107	per	con	low	low	low	tg	ms	wh/0055.bmp
144.00	0.72	191	2	5	93	per	con	mod	mod	mod	nt	fa	nh/0650_nh.bmp
144.72	0.72	192	3	5	20	mem	lib	mod	mod	low	tg	ht	wh/0802.bmp
145.44	0.72	193	2	8	73	mem	con	mod	mod	mod	tg	ht	wh/0396.bmp
146.16	0.72	194	2	8	28	per	lib	low	mod	low	nt	fa	nh/0646_nh.bmp
146.88	0.72	195	2	7	91	per	con	mod	mod	mod	nt	cr	nh/0855_nh.bmp
147.60	0.72	196	2	8	50	mem	lib	mod	mod	mod	nt	ms	nh/0591_nh.bmp
148.32	0.72	197	1	7	43	per	lib	mod	mod	mod	nt	cr	nh/0542_nh.bmp
149.04	0.72	198	1	6	31	mem	con	low	low	mod	tg	ht	wh/0782.bmp
149.76	0.72	199	1	8	6	per	lib	mod	low	mod	nt	cr	nh/0025_nh.bmp
150.48	0.72	200	2	5	28	mem	lib	mod	mod	low	tg	ht	wh/0417.bmp
151.20	0.72	201	4	5	80	mem	con	mod	mod	low	tg	ms	wh/0503.bmp
151.92	0.72	202	1	8	54	mem	lib	mod	mod	mod	nt	ht	nh/0328_nh.bmp
152.64	0.72	203	2	8	64	mem	lib	mod	mod	mod	tg	ht	wh/0795.bmp
153.36	0.72	204	2	5	86	per	con	mod	mod	mod	nt	cr	nh/0182_nh.bmp
154.08	0.72	205	2	6	72	mem	lib	mod	mod	mod	nt	ht	nh/0558_nh.bmp
154.80	0.72	206	4	5	20	mem	lib	mod	mod	low	tg	ht	wh/0802.bmp
155.52	0.72	207	2	7	76	mem	con	mod	mod	low	tg	ms	wh/0383.bmp
156.24	0.72	208	4	5	106	per	con	low	mod	low	tg	ms	wh/0510.bmp
156.96	0.72	209	1	7	37	per	lib	mod	mod	mod	nt	cr	nh/0680_nh.bmp
157.68	0.72	210	1	7	63	mem	con	low	low	mod	tg	ms	wh/0652.bmp
158.40	0.72	211	2	5	17	mem	lib	mod	mod	low	nt	ht	nh/0079_nh.bmp
159.12	0.72	212	3	5	107	per	con	low	mod	low	nt	fa	nh/0299_nh.bmp
159.84	0.72	213	1	7	113	mem	lib	mod	mod	low	tg	ht	wh/0934.bmp
160.56	0.72	214	1	5	112	per	con	low	mod	low	nt	cr	nh/0382_nh.bmp
161.28	0.72	215	5	6	67	mem	lib	mod	mod	mod	tg	ht	wh/0946.bmp
162.00	0.72	216	3	5	102	per	con	low	mod	low	nt	cr	nh/0329_nh.bmp
162.72	0.72	217	4	6	126	per	lib	low	mod	low	tg	ht	wh/0690.bmp
163.44	0.72	218	3	8	31	per	lib	low	mod	low	tg	ht	wh/0660.bmp
164.16	0.72	219	1	8	91	per	con	low	mod	low	nt	cr	nh/0351_nh.bmp
164.88	0.72	220	1	6	85	per	lib	mod	mod	mod	nt	cr	nh/0807_nh.bmp
165.60	0.72	221	3	5	28	mem	lib	mod	mod	low	tg	ht	wh/0417.bmp
166.32	0.72	222	2	8	85	per	con	low	mod	low	tg	ms	wh/0404.bmp
167.04	0.72	223	2	7	37	per	lib	mod	mod	mod	nt	cr	nh/0680_nh.bmp
167.76	0.72	224	2	7	69	mem	con	mod	mod	low	nt	ht	nh/0190_nh.bmp
168.48	0.72	225	2	7	120	mem	lib	mod	mod	low	tg	ht	wh/1023.bmp
169.20	0.72	226	1	5	110	per	con	low	mod	low	nt	fa	nh/0284_nh.bmp
169.92	0.72	227	4	7	65	mem	con	mod	mod	low	tg	ht	wh/0465.bmp
170.64	0.72	228	3	7	41	per	lib	mod	mod	mod	tg	ms	wh/0446.bmp
171.36	0.72	229	1	8	43	mem	lib	low	low	mod	tg	ms	wh/0693.bmp
172.08	0.72	230	2	8	63	mem	lib	mod	mod	mod	tg	ms	wh/0380.bmp
172.80	0.72	231	2	7	43	per	lib	mod	mod	mod	nt	cr	nh/0542_nh.bmp
173.52	0.72	232	2	7	127	mem	lib	mod	mod	low	tg	ms	wh/0123.bmp
174.24	0.72	233	4	5	102	per	con	low	mod	low	nt	cr	nh/0329_nh.bmp
174.96	0.72	234	2	7	36	per	lib	mod	mod	mod	nt	cr	nh/0594_nh.bmp
175.68	0.72	235	2	8	54	mem	lib	mod	mod	mod	nt	ht	nh/0328_nh.bmp
176.40	0.72	236	3	7	76	mem	con	mod	mod	low	tg	ms	wh/0383.bmp
177.12	0.72	237	3	5	23	mem	lib	mod	mod	low	tg	ht	wh/0613.bmp
177.84	0.72	238	2	7	85	per	con	mod	mod	mod	nt	cr	nh/0187_nh.bmp
178.56	0.72	239	2	5	32	mem	lib	mod	mod	low	tg	ht	wh/0153.bmp
179.28	0.72	240	2	6	121	per	lib	low	mod	low	nt	fa	nh/0036_nh.bmp
180.00	0.72	241	1	5	109	per	con	low	mod	low	tg	ms	wh/0345.bmp
180.72	0.72	242	2	8	96	per	con	low	mod	low	tg	ms	wh/0744.bmp
181.44	0.72	243	2	5	108	per	con	low	mod	low	tg	ms	wh/0338.bmp
182.16	0.72	244	4	6	89	per	lib	mod	mod	mod	tg	ht	wh/0909.bmp
182.88	0.72	245	3	8	94	per	con	low	mod	low	tg	ht	wh/0355.bmp
183.60	0.72	246	2	8	75	mem	con	mod	mod	mod	tg	ht	wh/0497.bmp
184.32	0.72	247	4	6	88	per	lib	mod	mod	mod	tg	ht	wh/0803.bmp
185.04	0.72	248	3	6	59	mem	con	mod	mod	mod	tg	ht	wh/0548.bmp
185.76	0.72	249	2	8	55	mem	lib	mod	mod	mod	tg	ms	wh/0442.bmp
186.48	0.72	250	2	5	98	per	con	low	mod	low	tg	ht	wh/0134.bmp
187.20	0.72	251	4	8	32	per	lib	low	mod	low	tg	ms	wh/0035.bmp
187.92	0.72	252	3	8	85	per	con	low	mod	low	tg	ms	wh/0404.bmp
188.64	0.72	253	2	7	118	mem	lib	mod	mod	low	nt	ms	nh/0635_nh.bmp
189.36	0.72	254	2	5	96	per	con	mod	mod	mod	nt	fa	nh/0904_nh.bmp
190.08	0.72	255	2	6	64	mem	con	mod	mod	mod	nt	ht	nh/0973_nh.bmp
190.80	0.72	256	2	8	58	mem	lib	mod	mod	mod	tg	ht	wh/0684.bmp
191.52	0.72	257	1	6	74	mem	lib	mod	mod	mod	nt	ms	nh/0593_nh.bmp
192.24	0.72	258	1	6	84	per	lib	mod	mod	mod	nt	cr	nh/0716_nh.bmp
192.96	0.72	259	1	5	72	mem	con	mod	mod	low	tg	ht	wh/0577.bmp
193.68	0.72	260	3	7	83	per	con	mod	mod	mod	nt	cr	nh/0094_nh.bmp
194.40	0.72	261	1	5	120	per	lib	mod	low	mod	nt	cr	nh/0736_nh.bmp
195.12	0.72	262	3	7	116	mem	lib	mod	mod	low	tg	ht	wh/0493.bmp
195.84	0.72	263	1	7	55	mem	con	low	low	mod	nt	ht	nh/0900_nh.bmp
196.56	0.72	264	3	8	28	per	lib	low	mod	low	nt	fa	nh/0646_nh.bmp
197.28	0.72	265	3	6	62	mem	con	mod	mod	mod	tg	ms	wh/0447.bmp
198.00	0.72	266	1	7	121	mem	lib	mod	mod	low	nt	ms	nh/0082_nh.bmp
198.72	0.72	267	5	6	88	per	lib	mod	mod	mod	tg	ht	wh/0803.bmp
199.44	0.72	268	1	8	2	per	lib	mod	low	mod	nt	fa	nh/0699_nh.bmp
200.16	0.72	269	5	5	106	per	con	low	mod	low	tg	ms	wh/0510.bmp
200.88	0.72	270	3	7	36	per	lib	mod	mod	mod	nt	cr	nh/0594_nh.bmp
201.60	0.72	271	1	8	104	per	con	mod	low	mod	nt	cr	nh/0890_nh.bmp
202.32	0.72	272	2	7	90	per	con	mod	mod	mod	tg	ms	wh/0222.bmp
203.04	0.72	273	3	7	120	mem	lib	mod	mod	low	tg	ht	wh/1023.bmp
203.76	0.72	274	1	5	15	per	lib	low	low	low	tg	ms	wh/0292.bmp
204.48	0.72	275	4	8	87	per	con	low	mod	low	tg	ms	wh/0730.bmp
205.20	0.72	276	3	8	55	mem	lib	mod	mod	mod	tg	ms	wh/0442.bmp
205.92	0.72	277	1	6	69	mem	lib	mod	mod	mod	nt	ms	nh/0339_nh.bmp
206.64	0.72	278	2	5	70	mem	con	mod	mod	low	nt	ht	nh/0489_nh.bmp
207.36	0.72	279	3	7	90	per	con	mod	mod	mod	tg	ms	wh/0222.bmp
208.08	0.72	280	1	8	44	mem	lib	low	low	mod	tg	ht	wh/0729.bmp
208.80	0.72	281	4	6	59	mem	con	mod	mod	mod	tg	ht	wh/0548.bmp
209.52	0.72	282	1	5	87	per	con	mod	mod	mod	tg	ht	wh/0805.bmp
210.24	0.72	283	3	8	54	mem	lib	mod	mod	mod	nt	ht	nh/0328_nh.bmp
210.96	0.72	284	2	5	90	per	con	mod	mod	mod	tg	ht	wh/0273.bmp
211.68	0.72	285	3	6	64	mem	con	mod	mod	mod	nt	ht	nh/0973_nh.bmp
212.40	0.72	286	4	7	75	mem	con	mod	mod	low	nt	ms	nh/0075_nh.bmp
213.12	0.72	287	2	7	121	mem	lib	mod	mod	low	nt	ms	nh/0082_nh.bmp
213.84	0.72	288	2	5	87	per	con	mod	mod	mod	tg	ht	wh/0805.bmp
214.56	0.72	289	1	5	95	per	con	mod	mod	mod	tg	ht	wh/0428.bmp
215.28	0.72	290	4	7	36	per	lib	mod	mod	mod	nt	cr	nh/0594_nh.bmp
216.00	0.72	291	2	6	83	per	lib	mod	mod	mod	nt	cr	nh/0772_nh.bmp
216.72	0.72	292	4	8	28	per	lib	low	mod	low	nt	fa	nh/0646_nh.bmp
217.44	0.72	293	2	6	68	mem	lib	mod	mod	mod	tg	ht	wh/0962.bmp
218.16	0.72	294	2	5	89	per	con	mod	mod	mod	tg	ht	wh/0209.bmp
218.88	0.72	295	2	5	112	per	con	low	mod	low	nt	cr	nh/0382_nh.bmp
219.60	0.72	296	2	6	74	mem	lib	mod	mod	mod	nt	ms	nh/0593_nh.bmp
220.32	0.72	297	1	5	63	mem	con	low	low	low	nt	ht	nh/0789_nh.bmp
221.04	0.72	298	3	5	108	per	con	low	mod	low	tg	ms	wh/0338.bmp
221.76	0.72	299	2	7	124	mem	lib	mod	mod	low	nt	ms	nh/0608_nh.bmp
222.48	0.72	300	1	7	82	per	con	mod	mod	mod	nt	fa	nh/0319_nh.bmp
223.20	0.72	301	2	5	77	mem	con	mod	mod	low	nt	ht	nh/0893_nh.bmp
223.92	0.72	302	2	8	68	mem	con	mod	mod	mod	tg	ht	wh/0588.bmp
224.64	0.72	303	4	5	107	per	con	low	mod	low	nt	fa	nh/0299_nh.bmp
225.36	0.72	304	1	6	54	mem	con	mod	mod	mod	tg	ms	wh/0784.bmp
226.08	0.72	305	2	7	113	mem	lib	mod	mod	low	tg	ht	wh/0934.bmp
226.80	0.72	306	2	7	82	per	con	mod	mod	mod	nt	fa	nh/0319_nh.bmp
227.52	0.72	307	3	7	118	mem	lib	mod	mod	low	nt	ms	nh/0635_nh.bmp
228.24	0.72	308	2	8	51	mem	lib	mod	mod	mod	nt	ms	nh/0398_nh.bmp
228.96	0.72	309	1	7	88	per	con	mod	mod	mod	tg	ms	wh/0941.bmp
229.68	0.72	310	2	6	128	per	lib	low	mod	low	nt	cr	nh/0232_nh.bmp
230.40	0.72	311	1	6	79	mem	lib	mod	mod	mod	tg	ms	wh/0957.bmp
231.12	0.72	312	1	5	79	mem	con	mod	mod	low	tg	ms	wh/0568.bmp
231.84	0.72	313	5	7	75	mem	con	mod	mod	low	nt	ms	nh/0075_nh.bmp
232.56	0.72	314	1	5	52	mem	con	low	low	low	tg	ms	wh/0930.bmp
233.28	0.72	315	1	6	14	mem	lib	low	low	mod	nt	ht	nh/0419_nh.bmp
234.00	0.72	316	2	6	91	per	lib	mod	mod	mod	tg	ms	wh/0371.bmp
234.72	0.72	317	2	6	54	mem	con	mod	mod	mod	tg	ms	wh/0784.bmp
235.44	0.72	318	2	5	72	mem	con	mod	mod	low	tg	ht	wh/0577.bmp
236.16	0.72	319	2	6	85	per	lib	mod	mod	mod	nt	cr	nh/0807_nh.bmp
236.88	0.72	320	3	7	82	per	con	mod	mod	mod	nt	fa	nh/0319_nh.bmp
237.60	0.72	321	2	7	44	per	lib	mod	mod	mod	tg	ht	wh/0714.bmp
238.32	0.72	322	4	6	64	mem	con	mod	mod	mod	nt	ht	nh/0973_nh.bmp
239.04	0.72	323	3	5	98	per	con	low	mod	low	tg	ht	wh/0134.bmp
239.76	0.72	324	2	7	96	per	con	mod	mod	mod	tg	ht	wh/0874.bmp
240.48	0.72	325	5	6	89	per	lib	mod	mod	mod	tg	ht	wh/0909.bmp
241.20	0.72	326	5	6	64	mem	con	mod	mod	mod	nt	ht	nh/0973_nh.bmp
241.92	0.72	327	2	6	49	mem	con	mod	mod	mod	nt	ms	nh/0462_nh.bmp
242.64	0.72	328	3	5	89	per	con	mod	mod	mod	tg	ht	wh/0209.bmp
243.36	0.72	329	1	8	21	per	lib	low	mod	low	tg	ms	wh/0963.bmp
244.08	0.72	330	1	8	117	mem	con	low	low	low	tg	ht	wh/0146.bmp
244.80	0.72	331	1	8	20	per	lib	low	mod	low	nt	cr	nh/0032_nh.bmp
245.52	0.72	332	2	8	20	per	lib	low	mod	low	nt	cr	nh/0032_nh.bmp
246.24	0.72	333	3	7	113	mem	lib	mod	mod	low	tg	ht	wh/0934.bmp
246.96	0.72	334	3	8	64	mem	lib	mod	mod	mod	tg	ht	wh/0795.bmp
247.68	0.72	335	1	6	24	mem	con	low	low	mod	nt	ms	nh/0598_nh.bmp
248.40	0.72	336	6	6	89	per	lib	mod	mod	mod	tg	ht	wh/0909.bmp
249.12	0.72	337	2	6	124	per	lib	low	mod	low	nt	cr	nh/0818_nh.bmp
249.84	0.72	338	2	7	73	mem	con	mod	mod	low	tg	ht	wh/0238.bmp
250.56	0.72	339	3	6	72	mem	lib	mod	mod	mod	nt	ht	nh/0558_nh.bmp
251.28	0.72	340	1	8	127	mem	con	low	low	low	tg	ms	wh/0452.bmp
252.00	0.72	341	2	6	57	mem	con	mod	mod	mod	tg	ht	wh/0563.bmp
252.72	0.72	342	1	6	77	mem	lib	mod	mod	mod	tg	ms	wh/0748.bmp
253.44	0.72	343	6	6	88	per	lib	mod	mod	mod	tg	ht	wh/0803.bmp
254.16	0.72	344	3	6	57	mem	con	mod	mod	mod	tg	ht	wh/0563.bmp
254.88	0.72	345	2	7	88	per	con	mod	mod	mod	tg	ms	wh/0941.bmp
255.60	0.72	346	4	7	116	mem	lib	mod	mod	low	tg	ht	wh/0493.bmp
256.32	0.72	347	3	8	75	mem	con	mod	mod	mod	tg	ht	wh/0497.bmp
257.04	0.72	348	3	6	81	per	lib	mod	mod	mod	nt	cr	nh/0540_nh.bmp
257.76	0.72	349	6	5	106	per	con	low	mod	low	tg	ms	wh/0510.bmp
258.48	0.72	350	3	8	88	per	con	low	mod	low	nt	cr	nh/0364_nh.bmp
259.20	0.72	351	1	6	104	per	con	low	low	low	tg	ms	wh/0768.bmp
259.92	0.72	352	4	7	41	per	lib	mod	mod	mod	tg	ms	wh/0446.bmp
260.64	0.72	353	3	6	83	per	lib	mod	mod	mod	nt	cr	nh/0772_nh.bmp
261.36	0.72	354	4	8	81	per	con	low	mod	low	nt	cr	nh/0256_nh.bmp
262.08	0.72	355	3	6	124	per	lib	low	mod	low	nt	cr	nh/0818_nh.bmp
262.80	0.72	356	2	7	123	mem	lib	mod	mod	low	nt	ms	nh/0964_nh.bmp
263.52	0.72	357	1	7	10	per	con	low	low	low	tg	ms	wh/0384.bmp
264.24	0.72	358	5	5	107	per	con	low	mod	low	nt	fa	nh/0299_nh.bmp
264.96	0.72	359	3	8	58	mem	lib	mod	mod	mod	tg	ht	wh/0684.bmp
265.68	0.72	360	4	5	98	per	con	low	mod	low	tg	ht	wh/0134.bmp
266.40	0.72	361	1	6	43	per	con	mod	low	mod	nt	cr	nh/0584_nh.bmp
267.12	0.72	362	3	5	32	mem	lib	mod	mod	low	tg	ht	wh/0153.bmp
267.84	0.72	363	4	6	83	per	lib	mod	mod	mod	nt	cr	nh/0772_nh.bmp
268.56	0.72	364	2	8	59	mem	lib	mod	mod	mod	nt	ht	nh/0902_nh.bmp
269.28	0.72	365	4	6	57	mem	con	mod	mod	mod	tg	ht	wh/0563.bmp
270.00	0.72	366	3	8	29	per	lib	low	mod	low	tg	ms	wh/0194.bmp
270.72	0.72	367	4	6	124	per	lib	low	mod	low	nt	cr	nh/0818_nh.bmp
271.44	0.72	368	4	8	75	mem	con	mod	mod	mod	tg	ht	wh/0497.bmp
272.16	0.72	369	2	6	82	per	lib	mod	mod	mod	tg	ht	wh/0928.bmp
272.88	0.72	370	5	5	102	per	con	low	mod	low	nt	cr	nh/0329_nh.bmp
273.60	0.72	371	3	5	93	per	con	mod	mod	mod	nt	fa	nh/0650_nh.bmp
274.32	0.72	372	1	6	20	mem	con	low	low	mod	nt	ht	nh/0290_nh.bmp
275.04	0.72	373	1	7	51	mem	con	low	low	mod	tg	ms	wh/0721.bmp
275.76	0.72	374	2	6	79	mem	lib	mod	mod	mod	tg	ms	wh/0957.bmp
276.48	0.72	375	3	7	123	mem	lib	mod	mod	low	nt	ms	nh/0964_nh.bmp
277.20	0.72	376	2	5	110	per	con	low	mod	low	nt	fa	nh/0284_nh.bmp
277.92	0.72	377	3	5	72	mem	con	mod	mod	low	tg	ht	wh/0577.bmp
278.64	0.72	378	3	6	114	per	lib	low	mod	low	nt	cr	nh/0077_nh.bmp
279.36	0.72	379	3	5	77	mem	con	mod	mod	low	nt	ht	nh/0893_nh.bmp
280.08	0.72	380	4	7	113	mem	lib	mod	mod	low	tg	ht	wh/0934.bmp
280.80	0.72	381	1	6	8	mem	lib	low	low	mod	tg	ht	wh/0992.bmp
281.52	0.72	382	6	5	107	per	con	low	mod	low	nt	fa	nh/0299_nh.bmp
282.24	0.72	383	2	7	45	per	lib	mod	mod	mod	nt	fa	nh/0543_nh.bmp
282.96	0.72	384	2	5	109	per	con	low	mod	low	tg	ms	wh/0345.bmp
283.68	0.72	385	5	6	59	mem	con	mod	mod	mod	tg	ht	wh/0548.bmp
284.40	0.72	386	1	6	36	per	con	mod	low	mod	nt	cr	nh/0860_nh.bmp
285.12	0.72	387	1	8	122	mem	con	low	low	low	tg	ms	wh/0206.bmp
285.84	0.72	388	2	6	125	per	lib	low	mod	low	tg	ms	wh/0760.bmp
286.56	0.72	389	5	5	80	mem	con	mod	mod	low	tg	ms	wh/0503.bmp
287.28	0.72	390	1	5	55	mem	con	low	low	low	tg	ht	wh/0370.bmp
288.00	0.72	391	3	7	79	mem	con	mod	mod	low	nt	ht	nh/0967_nh.bmp
288.72	0.72	392	1	6	32	mem	con	low	low	mod	tg	ht	wh/0340.bmp
289.44	0.72	393	4	7	82	per	con	mod	mod	mod	nt	fa	nh/0319_nh.bmp
290.16	0.72	394	4	7	118	mem	lib	mod	mod	low	nt	ms	nh/0635_nh.bmp
290.88	0.72	395	4	6	72	mem	lib	mod	mod	mod	nt	ht	nh/0558_nh.bmp
291.60	0.72	396	3	7	85	per	con	mod	mod	mod	nt	cr	nh/0187_nh.bmp
292.32	0.72	397	3	6	54	mem	con	mod	mod	mod	tg	ms	wh/0784.bmp
293.04	0.72	398	1	6	4	mem	lib	low	low	mod	tg	ms	wh/0048.bmp
293.76	0.72	399	1	7	14	per	con	low	low	low	nt	cr	nh/0633_nh.bmp
294.48	0.72	400	4	5	89	per	con	mod	mod	mod	tg	ht	wh/0209.bmp
295.20	0.72	401	3	8	51	mem	lib	mod	mod	mod	nt	ms	nh/0398_nh.bmp
295.92	0.72	402	4	5	32	mem	lib	mod	mod	low	tg	ht	wh/0153.bmp
296.64	0.72	403	5	5	32	mem	lib	mod	mod	low	tg	ht	wh/0153.bmp
297.36	0.72	404	3	8	68	mem	con	mod	mod	mod	tg	ht	wh/0588.bmp
298.08	0.72	405	4	8	29	per	lib	low	mod	low	tg	ms	wh/0194.bmp
298.80	0.72	406	3	5	110	per	con	low	mod	low	nt	fa	nh/0284_nh.bmp
299.52	0.72	407	1	6	109	per	con	low	low	low	nt	cr	nh/0706_nh.bmp
300.24	0.72	408	4	7	67	mem	con	mod	mod	low	nt	ht	nh/0074_nh.bmp
300.96	0.72	409	3	7	91	per	con	mod	mod	mod	nt	cr	nh/0855_nh.bmp
301.68	0.72	410	1	5	43	mem	lib	low	low	low	nt	ms	nh/0112_nh.bmp
302.40	0.72	411	2	5	79	mem	con	mod	mod	low	tg	ms	wh/0568.bmp
303.12	0.72	412	3	5	79	mem	con	mod	mod	low	tg	ms	wh/0568.bmp
303.84	0.72	413	3	6	128	per	lib	low	mod	low	nt	cr	nh/0232_nh.bmp
304.56	0.72	414	4	6	62	mem	con	mod	mod	mod	tg	ms	wh/0447.bmp
305.28	0.72	415	1	8	109	per	con	mod	low	mod	nt	fa	nh/0129_nh.bmp
306.00	0.72	416	4	5	72	mem	con	mod	mod	low	tg	ht	wh/0577.bmp
306.72	0.72	417	3	8	59	mem	lib	mod	mod	mod	nt	ht	nh/0902_nh.bmp
307.44	0.72	418	2	6	84	per	lib	mod	mod	mod	nt	cr	nh/0716_nh.bmp
308.16	0.72	419	1	8	33	mem	lib	low	low	mod	nt	n/a	nh/0626_nh.bmp
308.88	0.72	420	3	5	17	mem	lib	mod	mod	low	nt	ht	nh/0079_nh.bmp
309.60	0.72	421	1	7	52	mem	con	low	low	mod	tg	ms	wh/0846.bmp
310.32	0.72	422	2	8	18	per	lib	low	mod	low	nt	fa	nh/0940_nh.bmp
311.04	0.72	423	4	8	59	mem	lib	mod	mod	mod	nt	ht	nh/0902_nh.bmp
311.76	0.72	424	4	7	83	per	con	mod	mod	mod	nt	cr	nh/0094_nh.bmp
312.48	0.72	425	4	5	17	mem	lib	mod	mod	low	nt	ht	nh/0079_nh.bmp
313.20	0.72	426	3	6	91	per	lib	mod	mod	mod	tg	ms	wh/0371.bmp
313.92	0.72	427	4	7	90	per	con	mod	mod	mod	tg	ms	wh/0222.bmp
314.64	0.72	428	3	6	125	per	lib	low	mod	low	tg	ms	wh/0760.bmp
315.36	0.72	429	4	5	77	mem	con	mod	mod	low	nt	ht	nh/0893_nh.bmp
316.08	0.72	430	3	6	74	mem	lib	mod	mod	mod	nt	ms	nh/0593_nh.bmp
316.80	0.72	431	3	5	112	per	con	low	mod	low	nt	cr	nh/0382_nh.bmp
317.52	0.72	432	3	6	82	per	lib	mod	mod	mod	tg	ht	wh/0928.bmp
318.24	0.72	433	3	7	124	mem	lib	mod	mod	low	nt	ms	nh/0608_nh.bmp
318.96	0.72	434	1	6	33	per	con	mod	low	mod	nt	fa	nh/0581_nh.bmp
319.68	0.72	435	4	7	120	mem	lib	mod	mod	low	tg	ht	wh/1023.bmp
320.40	0.72	436	3	8	18	per	lib	low	mod	low	nt	fa	nh/0940_nh.bmp
321.12	0.72	437	5	5	72	mem	con	mod	mod	low	tg	ht	wh/0577.bmp
321.84	0.72	438	4	5	93	per	con	mod	mod	mod	nt	fa	nh/0650_nh.bmp
322.56	0.72	439	4	8	90	per	con	low	mod	low	nt	cr	nh/0758_nh.bmp
323.28	0.72	440	6	6	59	mem	con	mod	mod	mod	tg	ht	wh/0548.bmp
324.00	0.72	441	2	8	91	per	con	low	mod	low	nt	cr	nh/0351_nh.bmp
324.72	0.72	442	1	8	46	mem	lib	low	low	mod	tg	ht	wh/0044.bmp
325.44	0.72	443	6	5	102	per	con	low	mod	low	nt	cr	nh/0329_nh.bmp
326.16	0.72	444	5	8	28	per	lib	low	mod	low	nt	fa	nh/0646_nh.bmp
326.88	0.72	445	4	6	73	mem	lib	mod	mod	mod	nt	ht	nh/0350_nh.bmp
327.60	0.72	446	3	6	85	per	lib	mod	mod	mod	nt	cr	nh/0807_nh.bmp
328.32	0.72	447	3	5	96	per	con	mod	mod	mod	nt	fa	nh/0904_nh.bmp
329.04	0.72	448	4	8	31	per	lib	low	mod	low	tg	ht	wh/0660.bmp
329.76	0.72	449	5	7	82	per	con	mod	mod	mod	nt	fa	nh/0319_nh.bmp
330.48	0.72	450	4	5	96	per	con	mod	mod	mod	nt	fa	nh/0904_nh.bmp
331.20	0.72	451	2	8	21	per	lib	low	mod	low	tg	ms	wh/0963.bmp
331.92	0.72	452	2	8	74	mem	con	mod	mod	mod	tg	ht	wh/0843.bmp
332.64	0.72	453	3	7	127	mem	lib	mod	mod	low	tg	ms	wh/0123.bmp
333.36	0.72	454	2	5	95	per	con	mod	mod	mod	tg	ht	wh/0428.bmp
334.08	0.72	455	1	7	62	mem	con	low	low	mod	nt	ms	nh/0933_nh.bmp
334.80	0.72	456	3	8	91	per	con	low	mod	low	nt	cr	nh/0351_nh.bmp
335.52	0.72	457	2	7	68	mem	con	mod	mod	low	tg	ht	wh/0125.bmp
336.24	0.72	458	4	6	74	mem	lib	mod	mod	mod	nt	ms	nh/0593_nh.bmp
336.96	0.72	459	3	5	95	per	con	mod	mod	mod	tg	ht	wh/0428.bmp
337.68	0.72	460	1	8	9	per	lib	mod	low	mod	tg	ht	wh/0267.bmp
338.40	0.72	461	5	7	120	mem	lib	mod	mod	low	tg	ht	wh/1023.bmp
339.12	0.72	462	4	8	18	per	lib	low	mod	low	nt	fa	nh/0940_nh.bmp
339.84	0.72	463	3	8	20	per	lib	low	mod	low	nt	cr	nh/0032_nh.bmp
340.56	0.72	464	3	6	121	per	lib	low	mod	low	nt	fa	nh/0036_nh.bmp
341.28	0.72	465	5	7	65	mem	con	mod	mod	low	tg	ht	wh/0465.bmp
342.00	0.72	466	5	7	118	mem	lib	mod	mod	low	nt	ms	nh/0635_nh.bmp
342.72	0.72	467	4	5	95	per	con	mod	mod	mod	tg	ht	wh/0428.bmp
343.44	0.72	468	6	6	64	mem	con	mod	mod	mod	nt	ht	nh/0973_nh.bmp
344.16	0.72	469	2	6	77	mem	lib	mod	mod	mod	tg	ms	wh/0748.bmp
344.88	0.72	470	3	7	121	mem	lib	mod	mod	low	nt	ms	nh/0082_nh.bmp
345.60	0.72	471	5	8	32	per	lib	low	mod	low	tg	ms	wh/0035.bmp
346.32	0.72	472	4	7	123	mem	lib	mod	mod	low	nt	ms	nh/0964_nh.bmp
347.04	0.72	473	4	7	127	mem	lib	mod	mod	low	tg	ms	wh/0123.bmp
347.76	0.72	474	3	6	51	mem	con	mod	mod	mod	nt	ms	nh/0397_nh.bmp
348.48	0.72	475	3	5	87	per	con	mod	mod	mod	tg	ht	wh/0805.bmp
349.20	0.72	476	3	5	70	mem	con	mod	mod	low	nt	ht	nh/0489_nh.bmp
349.92	0.72	477	1	5	58	mem	con	low	low	low	nt	ht	nh/0579_nh.bmp
350.64	0.72	478	1	7	20	mem	lib	low	low	low	nt	ms	nh/0266_nh.bmp
351.36	0.72	479	4	6	91	per	lib	mod	mod	mod	tg	ms	wh/0371.bmp
352.08	0.72	480	4	6	81	per	lib	mod	mod	mod	nt	cr	nh/0540_nh.bmp
352.80	0.72	481	5	7	116	mem	lib	mod	mod	low	tg	ht	wh/0493.bmp
353.52	0.72	482	2	5	66	mem	con	mod	mod	low	nt	ht	nh/0029_nh.bmp
354.24	0.72	483	4	7	76	mem	con	mod	mod	low	tg	ms	wh/0383.bmp
354.96	0.72	484	4	5	24	mem	lib	mod	mod	low	nt	ht	nh/0336_nh.bmp
355.68	0.72	485	5	7	83	per	con	mod	mod	mod	nt	cr	nh/0094_nh.bmp
356.40	0.72	486	4	8	58	mem	lib	mod	mod	mod	tg	ht	wh/0684.bmp
357.12	0.72	487	1	6	127	per	lib	low	mod	low	tg	ms	wh/0443.bmp
357.84	0.72	488	1	7	7	per	con	low	low	low	nt	cr	nh/0998_nh.bmp
358.56	0.72	489	1	6	103	per	con	low	low	low	tg	ms	wh/0433.bmp
359.28	0.72	490	3	5	92	per	con	mod	mod	mod	nt	cr	nh/0810_nh.bmp
360.00	0.72	491	4	5	110	per	con	low	mod	low	nt	fa	nh/0284_nh.bmp
360.72	0.72	492	3	5	78	mem	con	mod	mod	low	tg	ht	wh/0508.bmp
361.44	0.72	493	1	7	102	per	lib	low	low	low	nt	cr	nh/0881_nh.bmp
362.16	0.72	494	1	8	1	per	lib	mod	low	mod	tg	ht	wh/0092.bmp
362.88	0.72	495	5	6	91	per	lib	mod	mod	mod	tg	ms	wh/0371.bmp
363.60	0.72	496	5	5	89	per	con	mod	mod	mod	tg	ht	wh/0209.bmp
364.32	0.72	497	5	8	81	per	con	low	mod	low	nt	cr	nh/0256_nh.bmp
365.04	0.72	498	3	6	79	mem	lib	mod	mod	mod	tg	ms	wh/0957.bmp
365.76	0.72	499	3	6	77	mem	lib	mod	mod	mod	tg	ms	wh/0748.bmp
366.48	0.72	500	4	7	124	mem	lib	mod	mod	low	nt	ms	nh/0608_nh.bmp
367.20	0.72	501	3	7	86	per	con	mod	mod	mod	tg	ht	wh/0199.bmp
367.92	0.72	502	1	6	5	mem	lib	low	low	mod	nt	ht	nh/0762_nh.bmp
368.64	0.72	503	5	5	24	mem	lib	mod	mod	low	nt	ht	nh/0336_nh.bmp
369.36	0.72	504	3	7	68	mem	con	mod	mod	low	tg	ht	wh/0125.bmp
370.08	0.72	505	3	8	50	mem	lib	mod	mod	mod	nt	ms	nh/0591_nh.bmp
370.80	0.72	506	4	8	54	mem	lib	mod	mod	mod	nt	ht	nh/0328_nh.bmp
371.52	0.72	507	5	6	74	mem	lib	mod	mod	mod	nt	ms	nh/0593_nh.bmp
372.24	0.72	508	5	7	36	per	lib	mod	mod	mod	nt	cr	nh/0594_nh.bmp
372.96	0.72	509	3	7	73	mem	con	mod	mod	low	tg	ht	wh/0238.bmp
373.68	0.72	510	3	7	96	per	con	mod	mod	mod	tg	ht	wh/0874.bmp
374.40	0.72	511	1	8	97	per	con	mod	low	mod	nt	cr	nh/0718_nh.bmp
375.12	0.72	512	3	8	21	per	lib	low	mod	low	tg	ms	wh/0963.bmp
375.84	0.72	513	1	5	125	per	lib	mod	low	mod	nt	cr	nh/0781_nh.bmp
376.56	0.72	514	3	7	44	per	lib	mod	mod	mod	tg	ht	wh/0714.bmp
377.28	0.72	515	3	6	49	mem	con	mod	mod	mod	nt	ms	nh/0462_nh.bmp
378.00	0.72	516	5	5	95	per	con	mod	mod	mod	tg	ht	wh/0428.bmp
378.72	0.72	517	4	7	44	per	lib	mod	mod	mod	tg	ht	wh/0714.bmp
379.44	0.72	518	1	5	56	mem	con	low	low	low	nt	ht	nh/0185_nh.bmp
380.16	0.72	519	1	6	21	mem	con	low	low	mod	nt	ht	nh/0669_nh.bmp
380.88	0.72	520	2	5	18	mem	lib	mod	mod	low	nt	ht	nh/0451_nh.bmp
381.60	0.72	521	3	5	18	mem	lib	mod	mod	low	nt	ht	nh/0451_nh.bmp
382.32	0.72	522	4	5	108	per	con	low	mod	low	tg	ms	wh/0338.bmp
383.04	0.72	523	1	7	101	per	lib	low	low	low	tg	ms	wh/0437.bmp
383.76	0.72	524	5	7	90	per	con	mod	mod	mod	tg	ms	wh/0222.bmp
384.48	0.72	525	6	8	32	per	lib	low	mod	low	tg	ms	wh/0035.bmp
385.20	0.72	526	4	7	96	per	con	mod	mod	mod	tg	ht	wh/0874.bmp
385.92	0.72	527	4	6	51	mem	con	mod	mod	mod	nt	ms	nh/0397_nh.bmp
386.64	0.72	528	4	6	77	mem	lib	mod	mod	mod	tg	ms	wh/0748.bmp
387.36	0.72	529	4	8	50	mem	lib	mod	mod	mod	nt	ms	nh/0591_nh.bmp
388.08	0.72	530	4	6	125	per	lib	low	mod	low	tg	ms	wh/0760.bmp
388.80	0.72	531	3	8	74	mem	con	mod	mod	mod	tg	ht	wh/0843.bmp
389.52	0.72	532	1	7	53	mem	con	low	low	mod	tg	ht	wh/0038.bmp
390.24	0.72	533	4	8	88	per	con	low	mod	low	nt	cr	nh/0364_nh.bmp
390.96	0.72	534	1	7	111	per	lib	low	low	low	tg	ht	wh/0173.bmp
391.68	0.72	535	3	5	109	per	con	low	mod	low	tg	ms	wh/0345.bmp
392.40	0.72	536	1	6	12	mem	lib	low	low	mod	nt	ms	nh/0923_nh.bmp
393.12	0.72	537	6	5	24	mem	lib	mod	mod	low	nt	ht	nh/0336_nh.bmp
393.84	0.72	538	4	8	94	per	con	low	mod	low	tg	ht	wh/0355.bmp
394.56	0.72	539	5	8	29	per	lib	low	mod	low	tg	ms	wh/0194.bmp
395.28	0.72	540	5	7	113	mem	lib	mod	mod	low	tg	ht	wh/0934.bmp
396.00	0.72	541	4	6	82	per	lib	mod	mod	mod	tg	ht	wh/0928.bmp
396.72	0.72	542	1	6	42	per	con	mod	low	mod	nt	cr	nh/0530_nh.bmp
397.44	0.72	543	1	6	44	per	con	mod	low	mod	tg	ht	wh/0787.bmp
398.16	0.72	544	5	6	51	mem	con	mod	mod	mod	nt	ms	nh/0397_nh.bmp
398.88	0.72	545	3	8	66	mem	con	mod	mod	mod	nt	ht	nh/0697_nh.bmp
399.60	0.72	546	1	5	71	mem	con	mod	mod	low	nt	ht	nh/0619_nh.bmp
400.32	0.72	547	3	8	96	per	con	low	mod	low	tg	ms	wh/0744.bmp
401.04	0.72	548	5	5	96	per	con	mod	mod	mod	nt	fa	nh/0904_nh.bmp
401.76	0.72	549	3	7	48	per	lib	mod	mod	mod	tg	ht	wh/0196.bmp
402.48	0.72	550	4	5	70	mem	con	mod	mod	low	nt	ht	nh/0489_nh.bmp
403.20	0.72	551	4	8	91	per	con	low	mod	low	nt	cr	nh/0351_nh.bmp
403.92	0.72	552	4	8	64	mem	lib	mod	mod	mod	tg	ht	wh/0795.bmp
404.64	0.72	553	4	7	79	mem	con	mod	mod	low	nt	ht	nh/0967_nh.bmp
405.36	0.72	554	5	7	123	mem	lib	mod	mod	low	nt	ms	nh/0964_nh.bmp
406.08	0.72	555	3	5	66	mem	con	mod	mod	low	nt	ht	nh/0029_nh.bmp
406.80	0.72	556	1	5	33	mem	lib	low	low	low	tg	ms	wh/0528.bmp
407.52	0.72	557	4	5	92	per	con	mod	mod	mod	nt	cr	nh/0810_nh.bmp
408.24	0.72	558	4	5	66	mem	con	mod	mod	low	nt	ht	nh/0029_nh.bmp
408.96	0.72	559	6	5	95	per	con	mod	mod	mod	tg	ht	wh/0428.bmp
409.68	0.72	560	2	5	31	mem	lib	mod	mod	low	nt	ms	nh/0150_nh.bmp
410.40	0.72	561	4	6	54	mem	con	mod	mod	mod	tg	ms	wh/0784.bmp
411.12	0.72	562	3	8	69	mem	con	mod	mod	mod	nt	ms	nh/0876_nh.bmp
411.84	0.72	563	5	5	17	mem	lib	mod	mod	low	nt	ht	nh/0079_nh.bmp
412.56	0.72	564	4	6	123	per	lib	low	mod	low	tg	ms	wh/0361.bmp
413.28	0.72	565	4	8	21	per	lib	low	mod	low	tg	ms	wh/0963.bmp
414.00	0.72	566	1	5	3	per	lib	low	low	low	nt	cr	nh/0711_nh.bmp
414.72	0.72	567	5	7	67	mem	con	mod	mod	low	nt	ht	nh/0074_nh.bmp
415.44	0.72	568	4	5	28	mem	lib	mod	mod	low	tg	ht	wh/0417.bmp
416.16	0.72	569	1	7	49	mem	con	low	low	mod	nt	ht	nh/0281_nh.bmp
416.88	0.72	570	4	8	74	mem	con	mod	mod	mod	tg	ht	wh/0843.bmp
417.60	0.72	571	5	6	124	per	lib	low	mod	low	nt	cr	nh/0818_nh.bmp
418.32	0.72	572	4	5	79	mem	con	mod	mod	low	tg	ms	wh/0568.bmp
419.04	0.72	573	5	6	126	per	lib	low	mod	low	tg	ht	wh/0690.bmp
419.76	0.72	574	3	7	69	mem	con	mod	mod	low	nt	ht	nh/0190_nh.bmp
420.48	0.72	575	1	7	99	per	lib	low	low	low	tg	ms	wh/0731.bmp
421.20	0.72	576	4	6	79	mem	lib	mod	mod	mod	tg	ms	wh/0957.bmp
421.92	0.72	577	6	7	65	mem	con	mod	mod	low	tg	ht	wh/0465.bmp
422.64	0.72	578	2	6	127	per	lib	low	mod	low	tg	ms	wh/0443.bmp
423.36	0.72	579	1	5	34	mem	lib	low	low	low	nt	ms	nh/0999_nh.bmp
424.08	0.72	580	1	5	14	per	lib	low	low	low	nt	cr	nh/0197_nh.bmp
424.80	0.72	581	1	7	17	mem	lib	low	low	low	tg	ht	wh/0223.bmp
425.52	0.72	582	4	7	73	mem	con	mod	mod	low	tg	ht	wh/0238.bmp
426.24	0.72	583	4	8	96	per	con	low	mod	low	tg	ms	wh/0744.bmp
426.96	0.72	584	5	6	83	per	lib	mod	mod	mod	nt	cr	nh/0772_nh.bmp
427.68	0.72	585	4	6	55	mem	con	mod	mod	mod	nt	ms	nh/0947_nh.bmp
428.40	0.72	586	4	7	91	per	con	mod	mod	mod	nt	cr	nh/0855_nh.bmp
429.12	0.72	587	1	5	7	per	lib	low	low	low	tg	ms	wh/0831.bmp
429.84	0.72	588	3	6	68	mem	lib	mod	mod	mod	tg	ht	wh/0962.bmp
430.56	0.72	589	4	8	66	mem	con	mod	mod	mod	nt	ht	nh/0697_nh.bmp
431.28	0.72	590	5	7	41	per	lib	mod	mod	mod	tg	ms	wh/0446.bmp
432.00	0.72	591	5	8	21	per	lib	low	mod	low	tg	ms	wh/0963.bmp
432.72	0.72	592	5	5	20	mem	lib	mod	mod	low	tg	ht	wh/0802.bmp
433.44	0.72	593	2	5	71	mem	con	mod	mod	low	nt	ht	nh/0619_nh.bmp
434.16	0.72	594	3	5	86	per	con	mod	mod	mod	nt	cr	nh/0182_nh.bmp
434.88	0.72	595	4	5	112	per	con	low	mod	low	nt	cr	nh/0382_nh.bmp
435.60	0.72	596	4	5	78	mem	con	mod	mod	low	tg	ht	wh/0508.bmp
436.32	0.72	597	4	6	49	mem	con	mod	mod	mod	nt	ms	nh/0462_nh.bmp
437.04	0.72	598	6	7	123	mem	lib	mod	mod	low	nt	ms	nh/0964_nh.bmp
437.76	0.72	599	1	7	108	per	lib	low	low	low	nt	cr	nh/0460_nh.bmp
438.48	0.72	600	4	6	128	per	lib	low	mod	low	nt	cr	nh/0232_nh.bmp
439.20	0.72	601	2	6	69	mem	lib	mod	mod	mod	nt	ms	nh/0339_nh.bmp
439.92	0.72	602	5	7	44	per	lib	mod	mod	mod	tg	ht	wh/0714.bmp
440.64	0.72	603	4	5	86	per	con	mod	mod	mod	nt	cr	nh/0182_nh.bmp
441.36	0.72	604	1	7	107	per	lib	low	low	low	nt	cr	nh/0434_nh.bmp
442.08	0.72	605	3	8	63	mem	lib	mod	mod	mod	tg	ms	wh/0380.bmp
442.80	0.72	606	3	7	43	per	lib	mod	mod	mod	nt	cr	nh/0542_nh.bmp
443.52	0.72	607	5	5	92	per	con	mod	mod	mod	nt	cr	nh/0810_nh.bmp
444.24	0.72	608	3	7	45	per	lib	mod	mod	mod	nt	fa	nh/0543_nh.bmp
444.96	0.72	609	3	5	71	mem	con	mod	mod	low	nt	ht	nh/0619_nh.bmp
445.68	0.72	610	5	6	79	mem	lib	mod	mod	mod	tg	ms	wh/0957.bmp
446.40	0.72	611	4	7	45	per	lib	mod	mod	mod	nt	fa	nh/0543_nh.bmp
447.12	0.72	612	5	7	79	mem	con	mod	mod	low	nt	ht	nh/0967_nh.bmp
447.84	0.72	613	5	5	110	per	con	low	mod	low	nt	fa	nh/0284_nh.bmp
448.56	0.72	614	4	7	69	mem	con	mod	mod	low	nt	ht	nh/0190_nh.bmp
449.28	0.72	615	5	7	124	mem	lib	mod	mod	low	nt	ms	nh/0608_nh.bmp
450.00	0.72	616	4	5	18	mem	lib	mod	mod	low	nt	ht	nh/0451_nh.bmp
450.72	0.72	617	5	5	78	mem	con	mod	mod	low	tg	ht	wh/0508.bmp
451.44	0.72	618	6	6	79	mem	lib	mod	mod	mod	tg	ms	wh/0957.bmp
452.16	0.72	619	4	7	48	per	lib	mod	mod	mod	tg	ht	wh/0196.bmp
452.88	0.72	620	4	7	86	per	con	mod	mod	mod	tg	ht	wh/0199.bmp
453.60	0.72	621	3	6	84	per	lib	mod	mod	mod	nt	cr	nh/0716_nh.bmp
454.32	0.72	622	3	8	72	mem	con	mod	mod	mod	nt	ms	nh/0095_nh.bmp
455.04	0.72	623	4	7	85	per	con	mod	mod	mod	nt	cr	nh/0187_nh.bmp
455.76	0.72	624	6	5	110	per	con	low	mod	low	nt	fa	nh/0284_nh.bmp
456.48	0.72	625	6	7	75	mem	con	mod	mod	low	nt	ms	nh/0075_nh.bmp
457.20	0.72	626	5	5	18	mem	lib	mod	mod	low	nt	ht	nh/0451_nh.bmp
457.92	0.72	627	5	8	74	mem	con	mod	mod	mod	tg	ht	wh/0843.bmp
458.64	0.72	628	5	5	98	per	con	low	mod	low	tg	ht	wh/0134.bmp
459.36	0.72	629	1	7	30	mem	lib	low	low	low	tg	ht	wh/0237.bmp
460.08	0.72	630	3	5	90	per	con	mod	mod	mod	tg	ht	wh/0273.bmp
460.80	0.72	631	3	7	37	per	lib	mod	mod	mod	nt	cr	nh/0680_nh.bmp
461.52	0.72	632	4	6	121	per	lib	low	mod	low	nt	fa	nh/0036_nh.bmp
462.24	0.72	633	1	8	8	per	lib	mod	low	mod	tg	ms	wh/0572.bmp
462.96	0.72	634	5	5	86	per	con	mod	mod	mod	nt	cr	nh/0182_nh.bmp
463.68	0.72	635	6	7	120	mem	lib	mod	mod	low	tg	ht	wh/1023.bmp
464.40	0.72	636	4	8	51	mem	lib	mod	mod	mod	nt	ms	nh/0398_nh.bmp
465.12	0.72	637	4	5	23	mem	lib	mod	mod	low	tg	ht	wh/0613.bmp
465.84	0.72	638	4	8	72	mem	con	mod	mod	mod	nt	ms	nh/0095_nh.bmp
466.56	0.72	639	4	6	85	per	lib	mod	mod	mod	nt	cr	nh/0807_nh.bmp
467.28	0.72	640	6	5	96	per	con	mod	mod	mod	nt	fa	nh/0904_nh.bmp
468.00	0.72	641	1	8	71	mem	con	mod	mod	mod	nt	ht	nh/0954_nh.bmp
468.72	0.72	642	4	7	43	per	lib	mod	mod	mod	nt	cr	nh/0542_nh.bmp
469.44	0.72	643	5	8	51	mem	lib	mod	mod	mod	nt	ms	nh/0398_nh.bmp
470.16	0.72	644	5	8	59	mem	lib	mod	mod	mod	nt	ht	nh/0902_nh.bmp
470.88	0.72	645	5	7	45	per	lib	mod	mod	mod	nt	fa	nh/0543_nh.bmp
471.60	0.72	646	6	5	72	mem	con	mod	mod	low	tg	ht	wh/0577.bmp
472.32	0.72	647	1	7	25	mem	lib	low	low	low	nt	ht	nh/0655_nh.bmp
473.04	0.72	648	4	8	63	mem	lib	mod	mod	mod	tg	ms	wh/0380.bmp
473.76	0.72	649	1	7	58	mem	con	low	low	mod	nt	ht	nh/0774_nh.bmp
474.48	0.72	650	5	5	28	mem	lib	mod	mod	low	tg	ht	wh/0417.bmp
475.20	0.72	651	5	6	62	mem	con	mod	mod	mod	tg	ms	wh/0447.bmp
475.92	0.72	652	5	6	77	mem	lib	mod	mod	mod	tg	ms	wh/0748.bmp
476.64	0.72	653	5	7	96	per	con	mod	mod	mod	tg	ht	wh/0874.bmp
477.36	0.72	654	4	5	71	mem	con	mod	mod	low	nt	ht	nh/0619_nh.bmp
478.08	0.72	655	1	7	4	per	con	low	low	low	nt	cr	nh/0823_nh.bmp
478.80	0.72	656	5	5	79	mem	con	mod	mod	low	tg	ms	wh/0568.bmp
479.52	0.72	657	3	7	88	per	con	mod	mod	mod	tg	ms	wh/0941.bmp
480.24	0.72	658	5	7	69	mem	con	mod	mod	low	nt	ht	nh/0190_nh.bmp
480.96	0.72	659	5	6	125	per	lib	low	mod	low	tg	ms	wh/0760.bmp
481.68	0.72	660	6	7	82	per	con	mod	mod	mod	nt	fa	nh/0319_nh.bmp
482.40	0.72	661	4	7	68	mem	con	mod	mod	low	tg	ht	wh/0125.bmp
483.12	0.72	662	6	7	41	per	lib	mod	mod	mod	tg	ms	wh/0446.bmp
483.84	0.72	663	5	8	91	per	con	low	mod	low	nt	cr	nh/0351_nh.bmp
484.56	0.72	664	6	5	89	per	con	mod	mod	mod	tg	ht	wh/0209.bmp
485.28	0.72	665	5	5	77	mem	con	mod	mod	low	nt	ht	nh/0893_nh.bmp
486.00	0.72	666	1	5	123	per	lib	mod	low	mod	nt	fa	nh/0838_nh.bmp
486.72	0.72	667	1	6	1	mem	lib	low	low	mod	tg	ms	wh/0216.bmp
487.44	0.72	668	4	6	84	per	lib	mod	mod	mod	nt	cr	nh/0716_nh.bmp
488.16	0.72	669	6	6	83	per	lib	mod	mod	mod	nt	cr	nh/0772_nh.bmp
488.88	0.72	670	6	5	98	per	con	low	mod	low	tg	ht	wh/0134.bmp
489.60	0.72	671	5	7	85	per	con	mod	mod	mod	nt	cr	nh/0187_nh.bmp
490.32	0.72	672	5	8	54	mem	lib	mod	mod	mod	nt	ht	nh/0328_nh.bmp
491.04	0.72	673	5	5	112	per	con	low	mod	low	nt	cr	nh/0382_nh.bmp
491.76	0.72	674	4	8	69	mem	con	mod	mod	mod	nt	ms	nh/0876_nh.bmp
492.48	0.72	675	6	7	36	per	lib	mod	mod	mod	nt	cr	nh/0594_nh.bmp
493.20	0.72	676	6	6	91	per	lib	mod	mod	mod	tg	ms	wh/0371.bmp
493.92	0.72	677	6	6	51	mem	con	mod	mod	mod	nt	ms	nh/0397_nh.bmp
494.64	0.72	678	5	7	76	mem	con	mod	mod	low	tg	ms	wh/0383.bmp
495.36	0.72	679	6	8	59	mem	lib	mod	mod	mod	nt	ht	nh/0902_nh.bmp
496.08	0.72	680	6	7	124	mem	lib	mod	mod	low	nt	ms	nh/0608_nh.bmp
496.80	0.72	681	6	5	112	per	con	low	mod	low	nt	cr	nh/0382_nh.bmp
497.52	0.72	682	5	6	84	per	lib	mod	mod	mod	nt	cr	nh/0716_nh.bmp
498.24	0.72	683	1	5	116	per	lib	mod	low	mod	tg	ht	wh/0949.bmp
498.96	0.72	684	6	8	81	per	con	low	mod	low	nt	cr	nh/0256_nh.bmp
499.68	0.72	685	5	8	96	per	con	low	mod	low	tg	ms	wh/0744.bmp
500.40	0.72	686	5	8	66	mem	con	mod	mod	mod	nt	ht	nh/0697_nh.bmp
501.12	0.72	687	4	6	68	mem	lib	mod	mod	mod	tg	ht	wh/0962.bmp
501.84	0.72	688	6	7	44	per	lib	mod	mod	mod	tg	ht	wh/0714.bmp
502.56	0.72	689	2	8	22	per	lib	low	mod	low	nt	cr	nh/0080_nh.bmp
503.28	0.72	690	5	8	64	mem	lib	mod	mod	mod	tg	ht	wh/0795.bmp
504.00	0.72	691	4	5	90	per	con	mod	mod	mod	tg	ht	wh/0273.bmp
504.72	0.72	692	5	5	93	per	con	mod	mod	mod	nt	fa	nh/0650_nh.bmp
505.44	0.72	693	5	6	123	per	lib	low	mod	low	tg	ms	wh/0361.bmp
506.16	0.72	694	6	8	64	mem	lib	mod	mod	mod	tg	ht	wh/0795.bmp
506.88	0.72	695	5	8	63	mem	lib	mod	mod	mod	tg	ms	wh/0380.bmp
507.60	0.72	696	5	7	48	per	lib	mod	mod	mod	tg	ht	wh/0196.bmp
508.32	0.72	697	5	5	71	mem	con	mod	mod	low	nt	ht	nh/0619_nh.bmp
509.04	0.72	698	4	8	20	per	lib	low	mod	low	nt	cr	nh/0032_nh.bmp
509.76	0.72	699	1	5	4	per	lib	low	low	low	tg	ms	wh/1009.bmp
510.48	0.72	700	6	7	118	mem	lib	mod	mod	low	nt	ms	nh/0635_nh.bmp
511.20	0.72	701	6	6	124	per	lib	low	mod	low	nt	cr	nh/0818_nh.bmp
511.92	0.72	702	6	8	91	per	con	low	mod	low	nt	cr	nh/0351_nh.bmp
512.64	0.72	703	1	7	16	per	con	low	low	low	tg	ms	wh/0812.bmp
513.36	0.72	704	6	7	90	per	con	mod	mod	mod	tg	ms	wh/0222.bmp
514.08	0.72	705	3	6	69	mem	lib	mod	mod	mod	nt	ms	nh/0339_nh.bmp
514.80	0.72	706	4	6	114	per	lib	low	mod	low	nt	cr	nh/0077_nh.bmp
515.52	0.72	707	3	8	73	mem	con	mod	mod	mod	tg	ht	wh/0396.bmp
516.24	0.72	708	5	6	82	per	lib	mod	mod	mod	tg	ht	wh/0928.bmp
516.96	0.72	709	6	5	20	mem	lib	mod	mod	low	tg	ht	wh/0802.bmp
517.68	0.72	710	5	6	49	mem	con	mod	mod	mod	nt	ms	nh/0462_nh.bmp
518.40	0.72	711	5	8	69	mem	con	mod	mod	mod	nt	ms	nh/0876_nh.bmp
519.12	0.72	712	5	8	90	per	con	low	mod	low	nt	cr	nh/0758_nh.bmp
519.84	0.72	713	6	7	79	mem	con	mod	mod	low	nt	ht	nh/0967_nh.bmp
520.56	0.72	714	5	7	127	mem	lib	mod	mod	low	tg	ms	wh/0123.bmp
521.28	0.72	715	6	6	62	mem	con	mod	mod	mod	tg	ms	wh/0447.bmp
522.00	0.72	716	4	8	55	mem	lib	mod	mod	mod	tg	ms	wh/0442.bmp
522.72	0.72	717	1	8	39	mem	lib	low	low	mod	tg	ms	wh/0306.bmp
523.44	0.72	718	4	5	109	per	con	low	mod	low	tg	ms	wh/0345.bmp
524.16	0.72	719	6	8	21	per	lib	low	mod	low	tg	ms	wh/0963.bmp
524.88	0.72	720	5	7	73	mem	con	mod	mod	low	tg	ht	wh/0238.bmp
525.60	0.72	721	4	6	69	mem	lib	mod	mod	mod	nt	ms	nh/0339_nh.bmp
526.32	0.72	722	6	7	83	per	con	mod	mod	mod	nt	cr	nh/0094_nh.bmp
527.04	0.72	723	6	5	93	per	con	mod	mod	mod	nt	fa	nh/0650_nh.bmp
527.76	0.72	724	5	5	66	mem	con	mod	mod	low	nt	ht	nh/0029_nh.bmp
528.48	0.72	725	5	8	31	per	lib	low	mod	low	tg	ht	wh/0660.bmp
529.20	0.72	726	5	7	86	per	con	mod	mod	mod	tg	ht	wh/0199.bmp
529.92	0.72	727	2	8	71	mem	con	mod	mod	mod	nt	ht	nh/0954_nh.bmp
530.64	0.72	728	5	8	18	per	lib	low	mod	low	nt	fa	nh/0940_nh.bmp
531.36	0.72	729	5	6	72	mem	lib	mod	mod	mod	nt	ht	nh/0558_nh.bmp
532.08	0.72	730	4	8	85	per	con	low	mod	low	tg	ms	wh/0404.bmp
532.80	0.72	731	5	6	54	mem	con	mod	mod	mod	tg	ms	wh/0784.bmp
533.52	0.72	732	6	5	86	per	con	mod	mod	mod	nt	cr	nh/0182_nh.bmp
534.24	0.72	733	1	7	110	per	lib	low	low	low	tg	ht	wh/0225.bmp
534.96	0.72	734	6	6	74	mem	lib	mod	mod	mod	nt	ms	nh/0593_nh.bmp
535.68	0.72	735	5	8	55	mem	lib	mod	mod	mod	tg	ms	wh/0442.bmp
536.40	0.72	736	6	6	77	mem	lib	mod	mod	mod	tg	ms	wh/0748.bmp
537.12	0.72	737	4	5	87	per	con	mod	mod	mod	tg	ht	wh/0805.bmp
537.84	0.72	738	6	8	74	mem	con	mod	mod	mod	tg	ht	wh/0843.bmp
538.56	0.72	739	1	7	12	per	con	low	low	low	tg	ms	wh/0804.bmp
539.28	0.72	740	5	5	23	mem	lib	mod	mod	low	tg	ht	wh/0613.bmp
540.00	0.72	741	6	5	80	mem	con	mod	mod	low	tg	ms	wh/0503.bmp
540.72	0.72	742	6	8	63	mem	lib	mod	mod	mod	tg	ms	wh/0380.bmp
541.44	0.72	743	5	8	72	mem	con	mod	mod	mod	nt	ms	nh/0095_nh.bmp
542.16	0.72	744	6	7	73	mem	con	mod	mod	low	tg	ht	wh/0238.bmp
542.88	0.72	745	5	5	90	per	con	mod	mod	mod	tg	ht	wh/0273.bmp
543.60	0.72	746	6	7	76	mem	con	mod	mod	low	tg	ms	wh/0383.bmp
544.32	0.72	747	5	6	81	per	lib	mod	mod	mod	nt	cr	nh/0540_nh.bmp
545.04	0.72	748	6	5	90	per	con	mod	mod	mod	tg	ht	wh/0273.bmp
545.76	0.72	749	5	6	114	per	lib	low	mod	low	nt	cr	nh/0077_nh.bmp
546.48	0.72	750	6	7	48	per	lib	mod	mod	mod	tg	ht	wh/0196.bmp
547.20	0.72	751	1	5	51	mem	con	low	low	low	tg	ht	wh/0701.bmp
547.92	0.72	752	5	7	68	mem	con	mod	mod	low	tg	ht	wh/0125.bmp
548.64	0.72	753	5	5	109	per	con	low	mod	low	tg	ms	wh/0345.bmp
549.36	0.72	754	3	6	127	per	lib	low	mod	low	tg	ms	wh/0443.bmp
550.08	0.72	755	5	6	57	mem	con	mod	mod	mod	tg	ht	wh/0563.bmp
550.80	0.72	756	5	6	121	per	lib	low	mod	low	nt	fa	nh/0036_nh.bmp
551.52	0.72	757	6	7	85	per	con	mod	mod	mod	nt	cr	nh/0187_nh.bmp
552.24	0.72	758	5	8	88	per	con	low	mod	low	nt	cr	nh/0364_nh.bmp
552.96	0.72	759	6	5	32	mem	lib	mod	mod	low	tg	ht	wh/0153.bmp
553.68	0.72	760	1	5	37	mem	lib	low	low	low	tg	ms	wh/0148.bmp
554.40	0.72	761	5	8	20	per	lib	low	mod	low	nt	cr	nh/0032_nh.bmp
555.12	0.72	762	3	5	31	mem	lib	mod	mod	low	nt	ms	nh/0150_nh.bmp
555.84	0.72	763	5	7	91	per	con	mod	mod	mod	nt	cr	nh/0855_nh.bmp
556.56	0.72	764	6	6	114	per	lib	low	mod	low	nt	cr	nh/0077_nh.bmp
557.28	0.72	765	4	8	68	mem	con	mod	mod	mod	tg	ht	wh/0588.bmp
558.00	0.72	766	1	8	3	per	lib	mod	low	mod	nt	cr	nh/0220_nh.bmp
558.72	0.72	767	4	8	73	mem	con	mod	mod	mod	tg	ht	wh/0396.bmp
559.44	0.72	768	6	5	77	mem	con	mod	mod	low	nt	ht	nh/0893_nh.bmp
560.16	0.72	769	5	8	68	mem	con	mod	mod	mod	tg	ht	wh/0588.bmp
560.88	0.72	770	5	6	55	mem	con	mod	mod	mod	nt	ms	nh/0947_nh.bmp
561.60	0.72	771	6	5	92	per	con	mod	mod	mod	nt	cr	nh/0810_nh.bmp
562.32	0.72	772	6	5	79	mem	con	mod	mod	low	tg	ms	wh/0568.bmp
563.04	0.72	773	3	8	22	per	lib	low	mod	low	nt	cr	nh/0080_nh.bmp
563.76	0.72	774	6	8	69	mem	con	mod	mod	mod	nt	ms	nh/0876_nh.bmp
564.48	0.72	775	1	8	45	mem	lib	low	low	mod	nt	ms	nh/0096_nh.bmp
565.20	0.72	776	1	8	128	mem	con	low	low	low	nt	ms	nh/0695_nh.bmp
565.92	0.72	777	3	8	71	mem	con	mod	mod	mod	nt	ht	nh/0954_nh.bmp
566.64	0.72	778	6	7	91	per	con	mod	mod	mod	nt	cr	nh/0855_nh.bmp
567.36	0.72	779	1	8	110	per	con	mod	low	mod	tg	ms	wh/0520.bmp
568.08	0.72	780	5	8	87	per	con	low	mod	low	tg	ms	wh/0730.bmp
568.80	0.72	781	1	8	102	per	con	mod	low	mod	nt	cr	nh/0525_nh.bmp
569.52	0.72	782	1	6	97	per	con	low	low	low	nt	cr	nh/0458_nh.bmp
570.24	0.72	783	6	7	68	mem	con	mod	mod	low	tg	ht	wh/0125.bmp
570.96	0.72	784	2	7	34	per	lib	mod	mod	mod	tg	ht	wh/0099.bmp
571.68	0.72	785	5	6	68	mem	lib	mod	mod	mod	tg	ht	wh/0962.bmp
572.40	0.72	786	6	6	55	mem	con	mod	mod	mod	nt	ms	nh/0947_nh.bmp
573.12	0.72	787	5	8	94	per	con	low	mod	low	tg	ht	wh/0355.bmp
573.84	0.72	788	6	7	67	mem	con	mod	mod	low	nt	ht	nh/0074_nh.bmp
574.56	0.72	789	4	6	127	per	lib	low	mod	low	tg	ms	wh/0443.bmp
575.28	0.72	790	1	5	6	per	lib	low	low	low	tg	ms	wh/0088.bmp
576.00	0.72	791	6	7	86	per	con	mod	mod	mod	tg	ht	wh/0199.bmp
576.72	0.72	792	5	6	127	per	lib	low	mod	low	tg	ms	wh/0443.bmp
577.44	0.72	793	4	5	31	mem	lib	mod	mod	low	nt	ms	nh/0150_nh.bmp
578.16	0.72	794	6	6	123	per	lib	low	mod	low	tg	ms	wh/0361.bmp
578.88	0.72	795	6	6	84	per	lib	mod	mod	mod	nt	cr	nh/0716_nh.bmp
579.60	0.72	796	6	6	68	mem	lib	mod	mod	mod	tg	ht	wh/0962.bmp
580.32	0.72	797	5	5	70	mem	con	mod	mod	low	nt	ht	nh/0489_nh.bmp
581.04	0.72	798	6	8	87	per	con	low	mod	low	tg	ms	wh/0730.bmp
581.76	0.72	799	6	8	54	mem	lib	mod	mod	mod	nt	ht	nh/0328_nh.bmp
582.48	0.72	800	6	8	66	mem	con	mod	mod	mod	nt	ht	nh/0697_nh.bmp
583.20	0.72	801	4	7	121	mem	lib	mod	mod	low	nt	ms	nh/0082_nh.bmp
583.92	0.72	802	3	7	34	per	lib	mod	mod	mod	tg	ht	wh/0099.bmp
584.64	0.72	803	4	7	88	per	con	mod	mod	mod	tg	ms	wh/0941.bmp
585.36	0.72	804	1	7	9	per	con	low	low	low	nt	cr	nh/0507_nh.bmp
586.08	0.72	805	5	5	87	per	con	mod	mod	mod	tg	ht	wh/0805.bmp
586.80	0.72	806	6	5	17	mem	lib	mod	mod	low	nt	ht	nh/0079_nh.bmp
587.52	0.72	807	5	7	121	mem	lib	mod	mod	low	nt	ms	nh/0082_nh.bmp
588.24	0.72	808	5	7	43	per	lib	mod	mod	mod	nt	cr	nh/0542_nh.bmp
588.96	0.72	809	5	6	69	mem	lib	mod	mod	mod	nt	ms	nh/0339_nh.bmp
589.68	0.72	810	6	8	68	mem	con	mod	mod	mod	tg	ht	wh/0588.bmp
590.40	0.72	811	1	5	60	mem	con	low	low	low	nt	ms	nh/0815_nh.bmp
591.12	0.72	812	6	7	69	mem	con	mod	mod	low	nt	ht	nh/0190_nh.bmp
591.84	0.72	813	1	6	9	mem	lib	low	low	mod	tg	ms	wh/0068.bmp
592.56	0.72	814	1	5	47	mem	lib	low	low	low	nt	ht	nh/1007_nh.bmp
593.28	0.72	815	6	7	43	per	lib	mod	mod	mod	nt	cr	nh/0542_nh.bmp
594.00	0.72	816	1	6	41	per	con	mod	low	mod	tg	ms	wh/0966.bmp
594.72	0.72	817	4	7	34	per	lib	mod	mod	mod	tg	ht	wh/0099.bmp
595.44	0.72	818	6	8	72	mem	con	mod	mod	mod	nt	ms	nh/0095_nh.bmp
596.16	0.72	819	4	8	71	mem	con	mod	mod	mod	nt	ht	nh/0954_nh.bmp
596.88	0.72	820	6	6	127	per	lib	low	mod	low	tg	ms	wh/0443.bmp
597.60	0.72	821	5	5	108	per	con	low	mod	low	tg	ms	wh/0338.bmp
598.32	0.72	822	5	5	31	mem	lib	mod	mod	low	nt	ms	nh/0150_nh.bmp
599.04	0.72	823	1	5	114	per	lib	mod	low	mod	tg	ms	wh/0461.bmp
599.76	0.72	824	6	6	121	per	lib	low	mod	low	nt	fa	nh/0036_nh.bmp
600.48	0.72	825	6	6	69	mem	lib	mod	mod	mod	nt	ms	nh/0339_nh.bmp
601.20	0.72	826	5	8	58	mem	lib	mod	mod	mod	tg	ht	wh/0684.bmp
601.92	0.72	827	4	7	37	per	lib	mod	mod	mod	nt	cr	nh/0680_nh.bmp
602.64	0.72	828	5	6	85	per	lib	mod	mod	mod	nt	cr	nh/0807_nh.bmp
603.36	0.72	829	6	6	126	per	lib	low	mod	low	tg	ht	wh/0690.bmp
604.08	0.72	830	6	8	94	per	con	low	mod	low	tg	ht	wh/0355.bmp
604.80	0.72	831	6	6	81	per	lib	mod	mod	mod	nt	cr	nh/0540_nh.bmp
605.52	0.72	832	5	8	71	mem	con	mod	mod	mod	nt	ht	nh/0954_nh.bmp
606.24	0.72	833	6	8	55	mem	lib	mod	mod	mod	tg	ms	wh/0442.bmp
606.96	0.72	834	5	6	73	mem	lib	mod	mod	mod	nt	ht	nh/0350_nh.bmp
607.68	0.72	835	5	6	128	per	lib	low	mod	low	nt	cr	nh/0232_nh.bmp
608.40	0.72	836	5	8	50	mem	lib	mod	mod	mod	nt	ms	nh/0591_nh.bmp
609.12	0.72	837	6	7	96	per	con	mod	mod	mod	tg	ht	wh/0874.bmp
609.84	0.72	838	5	7	88	per	con	mod	mod	mod	tg	ms	wh/0941.bmp
610.56	0.72	839	6	6	128	per	lib	low	mod	low	nt	cr	nh/0232_nh.bmp
611.28	0.72	840	5	8	85	per	con	low	mod	low	tg	ms	wh/0404.bmp
612.00	0.72	841	6	7	116	mem	lib	mod	mod	low	tg	ht	wh/0493.bmp
612.72	0.72	842	6	8	90	per	con	low	mod	low	nt	cr	nh/0758_nh.bmp
613.44	0.72	843	6	6	49	mem	con	mod	mod	mod	nt	ms	nh/0462_nh.bmp
614.16	0.72	844	6	5	18	mem	lib	mod	mod	low	nt	ht	nh/0451_nh.bmp
614.88	0.72	845	6	8	31	per	lib	low	mod	low	tg	ht	wh/0660.bmp
615.60	0.72	846	4	8	22	per	lib	low	mod	low	nt	cr	nh/0080_nh.bmp
616.32	0.72	847	6	8	50	mem	lib	mod	mod	mod	nt	ms	nh/0591_nh.bmp
617.04	0.72	848	6	5	109	per	con	low	mod	low	tg	ms	wh/0345.bmp
617.76	0.72	849	6	8	28	per	lib	low	mod	low	nt	fa	nh/0646_nh.bmp
618.48	0.72	850	6	6	73	mem	lib	mod	mod	mod	nt	ht	nh/0350_nh.bmp
619.20	0.72	851	6	5	66	mem	con	mod	mod	low	nt	ht	nh/0029_nh.bmp
619.92	0.72	852	1	5	62	mem	con	low	low	low	tg	ht	wh/0864.bmp
620.64	0.72	853	6	8	96	per	con	low	mod	low	tg	ms	wh/0744.bmp
621.36	0.72	854	6	6	72	mem	lib	mod	mod	mod	nt	ht	nh/0558_nh.bmp
622.08	0.72	855	6	6	82	per	lib	mod	mod	mod	tg	ht	wh/0928.bmp
622.80	0.72	856	5	8	73	mem	con	mod	mod	mod	tg	ht	wh/0396.bmp
623.52	0.72	857	6	8	88	per	con	low	mod	low	nt	cr	nh/0364_nh.bmp
624.24	0.72	858	1	7	27	mem	lib	low	low	low	nt	ht	nh/0439_nh.bmp
624.96	0.72	859	6	5	23	mem	lib	mod	mod	low	tg	ht	wh/0613.bmp
625.68	0.72	860	6	5	87	per	con	mod	mod	mod	tg	ht	wh/0805.bmp
626.40	0.72	861	5	7	37	per	lib	mod	mod	mod	nt	cr	nh/0680_nh.bmp
627.12	0.72	862	6	7	127	mem	lib	mod	mod	low	tg	ms	wh/0123.bmp
627.84	0.72	863	1	8	40	mem	lib	low	low	mod	nt	ms	nh/0569_nh.bmp
628.56	0.72	864	6	8	71	mem	con	mod	mod	mod	nt	ht	nh/0954_nh.bmp
629.28	0.72	865	6	6	125	per	lib	low	mod	low	tg	ms	wh/0760.bmp
630.00	0.72	866	5	7	34	per	lib	mod	mod	mod	tg	ht	wh/0099.bmp
630.72	0.72	867	6	6	57	mem	con	mod	mod	mod	tg	ht	wh/0563.bmp
631.44	0.72	868	6	5	78	mem	con	mod	mod	low	tg	ht	wh/0508.bmp
632.16	0.72	869	6	5	71	mem	con	mod	mod	low	nt	ht	nh/0619_nh.bmp
632.88	0.72	870	6	7	45	per	lib	mod	mod	mod	nt	fa	nh/0543_nh.bmp
633.60	0.72	871	6	6	67	mem	lib	mod	mod	mod	tg	ht	wh/0946.bmp
634.32	0.72	872	6	7	88	per	con	mod	mod	mod	tg	ms	wh/0941.bmp
635.04	0.72	873	5	8	22	per	lib	low	mod	low	nt	cr	nh/0080_nh.bmp
635.76	0.72	874	6	7	37	per	lib	mod	mod	mod	nt	cr	nh/0680_nh.bmp
636.48	0.72	875	6	8	22	per	lib	low	mod	low	nt	cr	nh/0080_nh.bmp
637.20	0.72	876	6	5	108	per	con	low	mod	low	tg	ms	wh/0338.bmp
637.92	0.72	877	6	7	121	mem	lib	mod	mod	low	nt	ms	nh/0082_nh.bmp
638.64	0.72	878	6	5	28	mem	lib	mod	mod	low	tg	ht	wh/0417.bmp
639.36	0.72	879	6	5	31	mem	lib	mod	mod	low	nt	ms	nh/0150_nh.bmp
640.08	0.72	880	6	8	85	per	con	low	mod	low	tg	ms	wh/0404.bmp
640.80	0.72	881	6	5	70	mem	con	mod	mod	low	nt	ht	nh/0489_nh.bmp
641.52	0.72	882	6	8	73	mem	con	mod	mod	mod	tg	ht	wh/0396.bmp
642.24	0.72	883	6	6	54	mem	con	mod	mod	mod	tg	ms	wh/0784.bmp
642.96	0.72	884	6	8	29	per	lib	low	mod	low	tg	ms	wh/0194.bmp
643.68	0.72	885	6	8	18	per	lib	low	mod	low	nt	fa	nh/0940_nh.bmp
644.40	0.72	886	5	8	75	mem	con	mod	mod	mod	tg	ht	wh/0497.bmp
645.12	0.72	887	6	8	20	per	lib	low	mod	low	nt	cr	nh/0032_nh.bmp
645.84	0.72	888	6	6	85	per	lib	mod	mod	mod	nt	cr	nh/0807_nh.bmp
646.56	0.72	889	1	8	112	per	con	mod	low	mod	tg	ht	wh/0301.bmp
647.28	0.72	890	6	7	34	per	lib	mod	mod	mod	tg	ht	wh/0099.bmp
648.00	0.72	891	6	8	58	mem	lib	mod	mod	mod	tg	ht	wh/0684.bmp
648.72	0.72	892	1	7	24	mem	lib	low	low	low	tg	ht	wh/0536.bmp
649.44	0.72	893	6	8	75	mem	con	mod	mod	mod	tg	ht	wh/0497.bmp
650.16	0.72	894	6	7	113	mem	lib	mod	mod	low	tg	ht	wh/0934.bmp
650.88	0.72	895	6	8	51	mem	lib	mod	mod	mod	nt	ms	nh/0398_nh.bmp
651.60	0.72	896	1	5	126	per	lib	mod	low	mod	nt	cr	nh/1018_nh.bmp
