onset	duration	trial	pres	ts_blk	ts_trl	task	crit	disc	mem_disc	per_disc	per_type	accuracy	stim_file
7.20	0.72	1	1	2	51	per	con	mod	mod	mod	nt	cr	nh/0137_nh.bmp
7.92	0.72	2	1	1	125	mem	lib	low	low	low	tg	ht	wh/0010.bmp
8.64	0.72	3	1	1	23	per	con	mod	low	mod	tg	ht	wh/0567.bmp
9.36	0.72	4	1	2	100	mem	lib	mod	mod	mod	tg	ht	wh/0583.bmp
10.08	0.72	5	1	1	14	per	lib	mod	mod	mod	tg	ht	wh/0359.bmp
10.80	0.72	6	1	3	7	per	con	mod	mod	mod	tg	ht	wh/0806.bmp
11.52	0.72	7	1	2	102	mem	lib	mod	mod	mod	tg	ht	wh/0970.bmp
12.24	0.72	8	1	2	44	per	con	low	mod	low	tg	ms	wh/0765.bmp
12.96	0.72	9	1	1	67	mem	con	mod	mod	low	tg	ht	wh/0007.bmp
13.68	0.72	10	1	4	97	per	con	low	mod	low	tg	ms	wh/0509.bmp
14.40	0.72	11	2	2	102	mem	lib	mod	mod	mod	tg	ht	wh/0970.bmp
15.12	0.72	12	1	2	53	per	con	mod	mod	mod	tg	ht	wh/0925.bmp
15.84	0.72	13	1	4	7	per	lib	low	mod	low	nt	cr	nh/0454_nh.bmp
16.56	0.72	14	1	1	5	per	lib	mod	mod	mod	tg	ms	wh/0331.bmp
17.28	0.72	15	1	2	104	mem	lib	mod	mod	mod	nt	ht	nh/0104_nh.bmp
18.00	0.72	16	1	2	22	mem	con	mod	mod	mod	tg	ht	wh/1010.bmp
18.72	0.72	17	1	3	59	per	con	low	low	low	nt	fa	nh/0314_nh.bmp
19.44	0.72	18	1	3	45	mem	lib	mod	mod	low	tg	ht	wh/0643.bmp
20.16	0.72	19	1	1	122	mem	lib	low	low	low	nt	ms	nh/0783_nh.bmp
20.88	0.72	20	1	3	32	mem	con	low	low	low	tg	ht	wh/0500.bmp
21.60	0.72	21	1	1	64	mem	con	low	low	mod	tg	ht	wh/0858.bmp
22.32	0.72	22	1	3	15	per	con	mod	mod	mod	tg	ht	wh/0479.bmp
23.04	0.72	23	2	3	15	per	con	mod	mod	mod	tg	ht	wh/0479.bmp
23.76	0.72	24	1	4	111	per	con	low	mod	low	tg	ms	wh/0315.bmp
24.48	0.72	25	1	4	104	per	con	low	mod	low	nt	cr	nh/0410_nh.bmp
25.20	0.72	26	2	1	14	per	lib	mod	mod	mod	tg	ht	wh/0359.bmp
25.92	0.72	27	1	4	34	mem	lib	mod	mod	mod	nt	ht	nh/0039_nh.bmp
26.64	0.72	28	1	2	65	mem	lib	low	low	mod	tg	ht	wh/0555.bmp
27.36	0.72	29	1	1	126	mem	lib	low	low	low	nt	ms	nh/0327_nh.bmp
28.08	0.72	30	1	4	24	mem	con	mod	mod	low	nt	ht	nh/0291_nh.bmp
28.80	0.72	31	1	1	12	per	lib	mod	mod	mod	tg	ht	wh/0313.bmp
29.52	0.72	32	1	2	73	mem	lib	low	low	mod	tg	ms	wh/0502.bmp
30.24	0.72	33	1	1	47	per	lib	low	mod	low	tg	ht	wh/0672.bmp
30.96	0.72	34	1	4	12	per	lib	low	mod	low	nt	cr	nh/0703_nh.bmp
31.68	0.72	35	1	3	36	mem	lib	mod	mod	low	nt	ht	nh/0683_nh.bmp
32.40	0.72	36	1	3	87	mem	con	mod	mod	mod	nt	ht	nh/0705_nh.bmp
33.12	0.72	37	1	2	30	mem	con	mod	mod	mod	nt	ht	nh/0071_nh.bmp
33.84	0.72	38	2	2	22	mem	con	mod	mod	mod	tg	ht	wh/1010.bmp
34.56	0.72	39	1	2	68	mem	lib	low	low	mod	tg	ht	wh/0050.bmp
35.28	0.72	40	1	4	3	per	lib	low	mod	low	tg	ms	wh/1000.bmp
36.00	0.72	41	1	4	1	per	lib	low	mod	low	tg	ht	wh/0195.bmp
36.72	0.72	42	1	1	112	mem	lib	mod	mod	low	nt	ht	nh/0661_nh.bmp
37.44	0.72	43	1	1	9	per	lib	mod	mod	mod	nt	cr	nh/0562_nh.bmp
38.16	0.72	44	1	3	84	mem	con	mod	mod	mod	nt	ht	nh/0343_nh.bmp
38.88	0.72	45	1	3	48	mem	lib	mod	mod	low	nt	ht	nh/0976_nh.bmp
39.60	0.72	46	1	4	56	per	lib	mod	mod	mod	tg	ht	wh/0427.bmp
40.32	0.72	47	1	2	98	mem	lib	mod	mod	mod	nt	ht	nh/0761_nh.bmp
41.04	0.72	48	1	1	35	per	lib	low	mod	low	nt	fa	nh/0212_nh.bmp
41.76	0.72	49	1	1	13	per	lib	mod	mod	mod	nt	fa	nh/0333_nh.bmp
42.48	0.72	50	1	1	65	mem	con	mod	mod	low	tg	ms	wh/0791.bmp
43.20	0.72	51	1	1	30	per	con	mod	low	mod	nt	cr	nh/0630_nh.bmp
43.92	0.72	52	1	4	107	per	con	low	mod	low	tg	ht	wh/0575.bmp
44.64	0.72	53	1	4	58	per	lib	mod	mod	mod	tg	ht	wh/0061.bmp
45.36	0.72	54	1	3	126	per	lib	low	low	low	tg	ht	wh/0120.bmp
46.08	0.72	55	1	1	97	mem	lib	mod	mod	low	tg	ht	wh/0386.bmp
46.80	0.72	56	1	3	13	per	con	mod	mod	mod	nt	fa	nh/0229_nh.bmp
47.52	0.72	57	1	2	64	per	con	mod	mod	mod	nt	cr	nh/0796_nh.bmp
48.24	0.72	58	2	2	100	mem	lib	mod	mod	mod	tg	ht	wh/0583.bmp
48.96	0.72	59	1	4	32	mem	con	mod	mod	low	nt	ht	nh/0131_nh.bmp
49.68	0.72	60	1	4	18	mem	con	mod	mod	low	tg	ht	wh/0615.bmp
50.40	0.72	61	1	4	109	per	con	low	mod	low	tg	ms	wh/0081.bmp
51.12	0.72	62	1	3	96	mem	con	mod	mod	mod	nt	ht	nh/0538_nh.bmp
51.84	0.72	63	1	3	46	mem	lib	mod	mod	low	tg	ht	wh/0174.bmp
52.56	0.72	64	1	2	91	per	lib	mod	low	mod	tg	ht	wh/0773.bmp
53.28	0.72	65	1	1	36	per	lib	low	mod	low	tg	ms	wh/0259.bmp
54.00	0.72	66	2	4	3	per	lib	low	mod	low	tg	ms	wh/1000.bmp
54.72	0.72	67	1	3	3	per	con	mod	mod	mod	tg	ht	wh/0592.bmp
55.44	0.72	68	1	4	6	per	lib	low	mod	low	nt	fa	nh/0132_nh.bmp
56.16	0.72	69	2	3	3	per	con	mod	mod	mod	tg	ht	wh/0592.bmp
56.88	0.72	70	2	4	107	per	con	low	mod	low	tg	ht	wh/0575.bmp
57.60	0.72	71	2	4	12	per	lib	low	mod	low	nt	cr	nh/0703_nh.bmp
58.32	0.72	72	1	3	1	per	con	mod	mod	mod	nt	cr	nh/0895_nh.bmp
59.04	0.72	73	2	4	111	per	con	low	mod	low	tg	ms	wh/0315.bmp
59.76	0.72	74	2	3	7	per	con	mod	mod	mod	tg	ht	wh/0806.bmp
60.48	0.72	75	1	2	26	mem	con	mod	mod	mod	tg	ht	wh/0487.bmp
61.20	0.72	76	2	2	64	per	con	mod	mod	mod	nt	cr	nh/0796_nh.bmp
61.92	0.72	77	1	1	108	mem	lib	mod	mod	low	nt	ht	nh/0124_nh.bmp
62.64	0.72	78	1	2	111	mem	lib	mod	mod	mod	nt	ht	nh/0983_nh.bmp
63.36	0.72	79	2	2	104	mem	lib	mod	mod	mod	nt	ht	nh/0104_nh.bmp
64.08	0.72	80	1	4	14	per	lib	low	mod	low	tg	ms	wh/0283.bmp
64.80	0.72	81	1	3	10	per	con	mod	mod	mod	nt	cr	nh/0664_nh.bmp
65.52	0.72	82	2	3	87	mem	con	mod	mod	mod	nt	ht	nh/0705_nh.bmp
66.24	0.72	83	1	4	41	mem	lib	mod	mod	mod	nt	ht	nh/0809_nh.bmp
66.96	0.72	84	1	1	110	mem	lib	mod	mod	low	nt	ht	nh/0511_nh.bmp
67.68	0.72	85	1	2	46	per	con	low	mod	low	nt	cr	nh/0293_nh.bmp
68.40	0.72	86	1	4	48	mem	lib	mod	mod	mod	tg	ht	wh/0344.bmp
69.12	0.72	87	1	3	82	mem	con	mod	mod	mod	tg	ht	wh/0445.bmp
69.84	0.72	88	2	1	97	mem	lib	mod	mod	low	tg	ht	wh/0386.bmp
70.56	0.72	89	2	3	84	mem	con	mod	mod	mod	nt	ht	nh/0343_nh.bmp
71.28	0.72	90	1	1	41	per	lib	low	mod	low	nt	cr	nh/0882_nh.bmp
72.00	0.72	91	1	1	73	mem	con	mod	mod	low	tg	ms	wh/1013.bmp
72.72	0.72	92	1	2	25	mem	con	mod	mod	mod	nt	ht	nh/0901_nh.bmp
73.44	0.72	93	3	2	104	mem	lib	mod	mod	mod	nt	ht	nh/0104_nh.bmp
74.16	0.72	94	3	2	102	mem	lib	mod	mod	mod	tg	ht	wh/0970.bmp
74.88	0.72	95	2	4	6	per	lib	low	mod	low	nt	fa	nh/0132_nh.bmp
75.60	0.72	96	2	2	26	mem	con	mod	mod	mod	tg	ht	wh/0487.bmp
76.32	0.72	97	1	2	69	mem	lib	low	low	mod	nt	ht	nh/0470_nh.bmp
77.04	0.72	98	1	4	27	mem	con	mod	mod	low	nt	ht	nh/0523_nh.bmp
77.76	0.72	99	1	4	55	per	lib	mod	mod	mod	tg	ht	wh/0943.bmp
78.48	0.72	100	2	4	24	mem	con	mod	mod	low	nt	ht	nh/0291_nh.bmp
79.20	0.72	101	1	2	47	per	con	low	mod	low	nt	cr	nh/0263_nh.bmp
79.92	0.72	102	1	3	102	per	lib	mod	low	mod	tg	ht	wh/1020.bmp
80.64	0.72	103	2	4	7	per	lib	low	mod	low	nt	cr	nh/0454_nh.bmp
81.36	0.72	104	3	2	22	mem	con	mod	mod	mod	tg	ht	wh/1010.bmp
82.08	0.72	105	2	4	58	per	lib	mod	mod	mod	tg	ht	wh/0061.bmp
82.80	0.72	106	3	4	107	per	con	low	mod	low	tg	ht	wh/0575.bmp
83.52	0.72	107	1	3	127	per	lib	low	low	low	nt	fa	nh/0127_nh.bmp
84.24	0.72	108	1	1	1	per	lib	mod	mod	mod	tg	n/a	wh/0097.bmp
84.96	0.72	109	1	3	88	mem	con	mod	mod	mod	tg	ht	wh/0282.bmp
85.68	0.72	110	1	3	71	mem	lib	low	low	low	nt	ht	nh/0565_nh.bmp
86.40	0.72	111	3	4	24	mem	con	mod	mod	low	nt	ht	nh/0291_nh.bmp
87.12	0.72	112	2	3	10	per	con	mod	mod	mod	nt	cr	nh/0664_nh.bmp
87.84	0.72	113	1	4	23	mem	con	mod	mod	low	tg	ht	wh/0236.bmp
88.56	0.72	114	1	3	114	per	lib	low	low	low	nt	fa	nh/0492_nh.bmp
89.28	0.72	115	1	1	45	per	lib	low	mod	low	tg	ht	wh/0671.bmp
90.00	0.72	116	1	4	30	mem	con	mod	mod	low	nt	ht	nh/0390_nh.bmp
90.72	0.72	117	1	4	113	mem	con	low	low	mod	tg	ms	wh/0201.bmp
91.44	0.72	118	1	4	93	per	con	mod	low	mod	nt	cr	nh/0985_nh.bmp
92.16	0.72	119	1	2	61	per	con	mod	mod	mod	tg	ms	wh/0645.bmp
92.88	0.72	120	2	4	48	mem	lib	mod	mod	mod	tg	ht	wh/0344.bmp
93.60	0.72	121	1	1	58	mem	con	low	low	mod	nt	ms	nh/0547_nh.bmp
94.32	0.72	122	2	1	9	per	lib	mod	mod	mod	nt	cr	nh/0562_nh.bmp
95.04	0.72	123	1	4	15	per	lib	low	mod	low	nt	cr	nh/0641_nh.bmp
95.76	0.72	124	2	1	73	mem	con	mod	mod	low	tg	ms	wh/1013.bmp
96.48	0.72	125	1	3	16	per	con	mod	mod	mod	tg	ht	wh/0689.bmp
97.20	0.72	126	1	3	40	mem	lib	mod	mod	low	tg	ht	wh/0067.bmp
97.92	0.72	127	1	1	75	mem	con	mod	mod	low	nt	ht	nh/0415_nh.bmp
98.64	0.72	128	2	1	1	per	lib	mod	mod	mod	tg	n/a	wh/0097.bmp
99.36	0.72	129	4	4	24	mem	con	mod	mod	low	nt	ht	nh/0291_nh.bmp
100.08	0.72	130	2	2	47	per	con	low	mod	low	nt	cr	nh/0263_nh.bmp
100.80	0.72	131	4	2	102	mem	lib	mod	mod	mod	tg	ht	wh/0970.bmp
101.52	0.72	132	1	4	26	mem	con	mod	mod	low	tg	ms	wh/0424.bmp
102.24	0.72	133	2	3	13	per	con	mod	mod	mod	nt	fa	nh/0229_nh.bmp
102.96	0.72	134	2	4	32	mem	con	mod	mod	low	nt	ht	nh/0131_nh.bmp
103.68	0.72	135	1	2	34	per	con	low	mod	low	nt	cr	nh/0412_nh.bmp
104.40	0.72	136	1	4	64	per	lib	mod	mod	mod	nt	cr	nh/0049_nh.bmp
105.12	0.72	137	2	1	108	mem	lib	mod	mod	low	nt	ht	nh/0124_nh.bmp
105.84	0.72	138	1	4	108	per	con	low	mod	low	nt	cr	nh/0166_nh.bmp
106.56	0.72	139	2	4	109	per	con	low	mod	low	tg	ms	wh/0081.bmp
107.28	0.72	140	2	2	34	per	con	low	mod	low	nt	cr	nh/0412_nh.bmp
108.00	0.72	141	2	1	67	mem	con	mod	mod	low	tg	ht	wh/0007.bmp
108.72	0.72	142	2	4	14	per	lib	low	mod	low	tg	ms	wh/0283.bmp
109.44	0.72	143	2	1	12	per	lib	mod	mod	mod	tg	ht	wh/0313.bmp
110.16	0.72	144	1	1	78	mem	con	mod	mod	low	nt	ht	nh/0444_nh.bmp
110.88	0.72	145	1	1	55	mem	con	low	low	mod	nt	ms	nh/0950_nh.bmp
111.60	0.72	146	1	1	2	per	lib	mod	mod	mod	nt	cr	nh/0628_nh.bmp
112.32	0.72	147	1	4	42	mem	lib	mod	mod	mod	nt	ht	nh/0861_nh.bmp
113.04	0.72	148	3	2	47	per	con	low	mod	low	nt	cr	nh/0263_nh.bmp
113.76	0.72	149	1	4	118	mem	con	low	low	mod	tg	ms	wh/0474.bmp
114.48	0.72	150	2	2	30	mem	con	mod	mod	mod	nt	ht	nh/0071_nh.bmp
115.20	0.72	151	1	1	72	mem	con	mod	mod	low	nt	ht	nh/0295_nh.bmp
115.92	0.72	152	1	3	118	per	lib	low	low	low	nt	fa	nh/0607_nh.bmp
116.64	0.72	153	3	3	10	per	con	mod	mod	mod	nt	cr	nh/0664_nh.bmp
117.36	0.72	154	2	3	88	mem	con	mod	mod	mod	tg	ht	wh/0282.bmp
118.08	0.72	155	3	4	3	per	lib	low	mod	low	tg	ms	wh/1000.bmp
118.80	0.72	156	1	3	69	mem	lib	low	low	low	nt	ht	nh/0632_nh.bmp
119.52	0.72	157	2	2	98	mem	lib	mod	mod	mod	nt	ht	nh/0761_nh.bmp
120.24	0.72	158	2	3	96	mem	con	mod	mod	mod	nt	ht	nh/0538_nh.bmp
120.96	0.72	159	2	3	1	per	con	mod	mod	mod	nt	cr	nh/0895_nh.bmp
121.68	0.72	160	1	2	23	mem	con	mod	mod	mod	tg	ht	wh/1006.bmp
122.40	0.72	161	1	4	110	per	con	low	mod	low	nt	cr	nh/0030_nh.bmp
123.12	0.72	162	1	2	118	per	lib	low	low	low	tg	ht	wh/0375.bmp
123.84	0.72	163	2	2	53	per	con	mod	mod	mod	tg	ht	wh/0925.bmp
124.56	0.72	164	3	1	97	mem	lib	mod	mod	low	tg	ht	wh/0386.bmp
125.28	0.72	165	1	3	8	per	con	mod	mod	mod	nt	cr	nh/0448_nh.bmp
126.00	0.72	166	1	2	48	per	con	low	mod	low	nt	cr	nh/0459_nh.bmp
126.72	0.72	167	2	1	45	per	lib	low	mod	low	tg	ht	wh/0671.bmp
127.44	0.72	168	4	1	97	mem	lib	mod	mod	low	tg	ht	wh/0386.bmp
128.16	0.72	169	1	4	20	mem	con	mod	mod	low	tg	ht	wh/0798.bmp
128.88	0.72	170	1	1	106	mem	lib	mod	mod	low	tg	ht	wh/0368.bmp
129.60	0.72	171	2	1	2	per	lib	mod	mod	mod	nt	cr	nh/0628_nh.bmp
130.32	0.72	172	2	3	45	mem	lib	mod	mod	low	tg	ht	wh/0643.bmp
131.04	0.72	173	1	2	108	mem	lib	mod	mod	mod	tg	ht	wh/0348.bmp
131.76	0.72	174	1	1	102	mem	lib	mod	mod	low	tg	ht	wh/0323.bmp
132.48	0.72	175	2	1	112	mem	lib	mod	mod	low	nt	ht	nh/0661_nh.bmp
133.20	0.72	176	2	4	104	per	con	low	mod	low	nt	cr	nh/0410_nh.bmp
133.92	0.72	177	1	3	39	mem	lib	mod	mod	low	nt	ht	nh/0792_nh.bmp
134.64	0.72	178	3	1	2	per	lib	mod	mod	mod	nt	cr	nh/0628_nh.bmp
135.36	0.72	179	1	4	53	per	lib	mod	mod	mod	nt	fa	nh/0604_nh.bmp
136.08	0.72	180	1	1	43	per	lib	low	mod	low	nt	cr	nh/0302_nh.bmp
136.80	0.72	181	2	4	97	per	con	low	mod	low	tg	ms	wh/0509.bmp
137.52	0.72	182	3	1	73	mem	con	mod	mod	low	tg	ms	wh/1013.bmp
138.24	0.72	183	1	1	104	mem	lib	mod	mod	low	nt	ht	nh/0988_nh.bmp
138.96	0.72	184	2	3	46	mem	lib	mod	mod	low	tg	ht	wh/0174.bmp
139.68	0.72	185	1	3	94	mem	con	mod	mod	mod	nt	ht	nh/0151_nh.bmp
140.40	0.72	186	2	3	8	per	con	mod	mod	mod	nt	cr	nh/0448_nh.bmp
141.12	0.72	187	2	3	39	mem	lib	mod	mod	low	nt	ht	nh/0792_nh.bmp
141.84	0.72	188	1	4	47	mem	lib	mod	mod	mod	tg	ht	wh/0834.bmp
142.56	0.72	189	1	4	16	per	lib	low	mod	low	tg	ms	wh/0400.bmp
143.28	0.72	190	3	1	45	per	lib	low	mod	low	tg	ht	wh/0671.bmp
144.00	0.72	191	1	4	61	per	lib	mod	mod	mod	tg	ht	wh/0072.bmp
144.72	0.72	192	3	3	8	per	con	mod	mod	mod	nt	cr	nh/0448_nh.bmp
145.44	0.72	193	2	4	27	mem	con	mod	mod	low	nt	ht	nh/0523_nh.bmp
146.16	0.72	194	1	1	34	per	lib	low	mod	low	nt	cr	nh/0496_nh.bmp
146.88	0.72	195	2	2	111	mem	lib	mod	mod	mod	nt	ht	nh/0983_nh.bmp
147.60	0.72	196	3	3	7	per	con	mod	mod	mod	tg	ht	wh/0806.bmp
148.32	0.72	197	3	4	58	per	lib	mod	mod	mod	tg	ht	wh/0061.bmp
149.04	0.72	198	2	1	41	per	lib	low	mod	low	nt	cr	nh/0882_nh.bmp
149.76	0.72	199	2	4	64	per	lib	mod	mod	mod	nt	cr	nh/0049_nh.bmp
150.48	0.72	200	2	4	108	per	con	low	mod	low	nt	cr	nh/0166_nh.bmp
151.20	0.72	201	3	4	27	mem	con	mod	mod	low	nt	ht	nh/0523_nh.bmp
151.92	0.72	202	2	1	5	per	lib	mod	mod	mod	tg	ms	wh/0331.bmp
152.64	0.72	203	2	1	34	per	lib	low	mod	low	nt	cr	nh/0496_nh.bmp
153.36	0.72	204	4	4	58	per	lib	mod	mod	mod	tg	ht	wh/0061.bmp
154.08	0.72	205	2	4	16	per	lib	low	mod	low	tg	ms	wh/0400.bmp
154.80	0.72	206	2	1	47	per	lib	low	mod	low	tg	ht	wh/0672.bmp
155.52	0.72	207	3	2	26	mem	con	mod	mod	mod	tg	ht	wh/0487.bmp
156.24	0.72	208	1	2	62	per	con	mod	mod	mod	nt	cr	nh/0738_nh.bmp
156.96	0.72	209	2	1	102	mem	lib	mod	mod	low	tg	ht	wh/0323.bmp
157.68	0.72	210	3	1	112	mem	lib	mod	mod	low	nt	ht	nh/0661_nh.bmp
158.40	0.72	211	1	4	100	per	con	low	mod	low	nt	fa	nh/0246_nh.bmp
159.12	0.72	212	2	2	48	per	con	low	mod	low	nt	cr	nh/0459_nh.bmp
159.84	0.72	213	1	3	61	per	con	low	low	low	nt	cr	nh/1003_nh.bmp
160.56	0.72	214	1	4	76	mem	lib	low	low	mod	nt	ht	nh/0707_nh.bmp
161.28	0.72	215	2	4	56	per	lib	mod	mod	mod	tg	ht	wh/0427.bmp
162.00	0.72	216	1	2	41	per	con	low	mod	low	tg	ms	wh/0914.bmp
162.72	0.72	217	3	3	45	mem	lib	mod	mod	low	tg	ht	wh/0643.bmp
163.44	0.72	218	2	2	25	mem	con	mod	mod	mod	nt	ht	nh/0901_nh.bmp
164.16	0.72	219	1	2	66	mem	lib	low	low	mod	tg	ht	wh/0813.bmp
164.88	0.72	220	2	4	18	mem	con	mod	mod	low	tg	ht	wh/0615.bmp
165.60	0.72	221	3	2	64	per	con	mod	mod	mod	nt	cr	nh/0796_nh.bmp
166.32	0.72	222	1	4	40	mem	lib	mod	mod	mod	tg	ht	wh/0358.bmp
167.04	0.72	223	2	1	75	mem	con	mod	mod	low	nt	ht	nh/0415_nh.bmp
167.76	0.72	224	2	3	48	mem	lib	mod	mod	low	nt	ht	nh/0976_nh.bmp
168.48	0.72	225	2	4	53	per	lib	mod	mod	mod	nt	fa	nh/0604_nh.bmp
169.20	0.72	226	3	1	108	mem	lib	mod	mod	low	nt	ht	nh/0124_nh.bmp
169.92	0.72	227	2	4	42	mem	lib	mod	mod	mod	nt	ht	nh/0861_nh.bmp
170.64	0.72	228	3	4	56	per	lib	mod	mod	mod	tg	ht	wh/0427.bmp
171.36	0.72	229	2	4	26	mem	con	mod	mod	low	tg	ms	wh/0424.bmp
172.08	0.72	230	1	2	45	per	con	low	mod	low	tg	ms	wh/0554.bmp
172.80	0.72	231	1	2	105	mem	lib	mod	mod	mod	tg	ht	wh/0674.bmp
173.52	0.72	232	2	2	41	per	con	low	mod	low	tg	ms	wh/0914.bmp
174.24	0.72	233	2	1	106	mem	lib	mod	mod	low	tg	ht	wh/0368.bmp
174.96	0.72	234	3	2	30	mem	con	mod	mod	mod	nt	ht	nh/0071_nh.bmp
175.68	0.72	235	3	1	75	mem	con	mod	mod	low	nt	ht	nh/0415_nh.bmp
176.40	0.72	236	2	2	62	per	con	mod	mod	mod	nt	cr	nh/0738_nh.bmp
177.12	0.72	237	1	3	34	mem	lib	mod	mod	low	tg	ht	wh/0757.bmp
177.84	0.72	238	5	4	24	mem	con	mod	mod	low	nt	ht	nh/0291_nh.bmp
178.56	0.72	239	4	1	45	per	lib	low	mod	low	tg	ht	wh/0671.bmp
179.28	0.72	240	4	4	56	per	lib	mod	mod	mod	tg	ht	wh/0427.bmp
180.00	0.72	241	2	1	43	per	lib	low	mod	low	nt	cr	nh/0302_nh.bmp
180.72	0.72	242	1	4	54	per	lib	mod	mod	mod	nt	cr	nh/0365_nh.bmp
181.44	0.72	243	4	2	104	mem	lib	mod	mod	mod	nt	ht	nh/0104_nh.bmp
182.16	0.72	244	1	3	99	per	lib	mod	low	mod	nt	fa	nh/0557_nh.bmp
182.88	0.72	245	3	2	98	mem	lib	mod	mod	mod	nt	ht	nh/0761_nh.bmp
183.60	0.72	246	4	2	47	per	con	low	mod	low	nt	cr	nh/0263_nh.bmp
184.32	0.72	247	2	3	16	per	con	mod	mod	mod	tg	ht	wh/0689.bmp
185.04	0.72	248	3	3	15	per	con	mod	mod	mod	tg	ht	wh/0479.bmp
185.76	0.72	249	3	2	34	per	con	low	mod	low	nt	cr	nh/0412_nh.bmp
186.48	0.72	250	4	2	22	mem	con	mod	mod	mod	tg	ht	wh/1010.bmp
187.20	0.72	251	3	4	26	mem	con	mod	mod	low	tg	ms	wh/0424.bmp
187.92	0.72	252	2	2	51	per	con	mod	mod	mod	nt	cr	nh/0137_nh.bmp
188.64	0.72	253	1	2	8	mem	con	low	low	low	tg	ms	wh/0504.bmp
189.36	0.72	254	3	2	100	mem	lib	mod	mod	mod	tg	ht	wh/0583.bmp
190.08	0.72	255	3	1	12	per	lib	mod	mod	mod	tg	ht	wh/0313.bmp
190.80	0.72	256	2	4	100	per	con	low	mod	low	nt	fa	nh/0246_nh.bmp
191.52	0.72	257	4	4	107	per	con	low	mod	low	tg	ht	wh/0575.bmp
192.24	0.72	258	2	4	47	mem	lib	mod	mod	mod	tg	ht	wh/0834.bmp
192.96	0.72	259	3	3	88	mem	con	mod	mod	mod	tg	ht	wh/0282.bmp
193.68	0.72	260	3	1	102	mem	lib	mod	mod	low	tg	ht	wh/0323.bmp
194.40	0.72	261	3	4	42	mem	lib	mod	mod	mod	nt	ht	nh/0861_nh.bmp
195.12	0.72	262	2	4	1	per	lib	low	mod	low	tg	ht	wh/0195.bmp
195.84	0.72	263	3	1	41	per	lib	low	mod	low	nt	cr	nh/0882_nh.bmp
196.56	0.72	264	1	2	32	mem	con	mod	mod	mod	nt	ht	nh/0742_nh.bmp
197.28	0.72	265	3	3	46	mem	lib	mod	mod	low	tg	ht	wh/0174.bmp
198.00	0.72	266	3	1	67	mem	con	mod	mod	low	tg	ht	wh/0007.bmp
198.72	0.72	267	2	2	105	mem	lib	mod	mod	mod	tg	ht	wh/0674.bmp
199.44	0.72	268	1	2	59	per	con	mod	mod	mod	nt	cr	nh/0961_nh.bmp
200.16	0.72	269	3	2	41	per	con	low	mod	low	tg	ms	wh/0914.bmp
200.88	0.72	270	3	4	32	mem	con	mod	mod	low	nt	ht	nh/0131_nh.bmp
201.60	0.72	271	4	1	41	per	lib	low	mod	low	nt	cr	nh/0882_nh.bmp
202.32	0.72	272	4	1	73	mem	con	mod	mod	low	tg	ms	wh/1013.bmp
203.04	0.72	273	5	4	56	per	lib	mod	mod	mod	tg	ht	wh/0427.bmp
203.76	0.72	274	2	2	23	mem	con	mod	mod	mod	tg	ht	wh/1006.bmp
204.48	0.72	275	3	4	64	per	lib	mod	mod	mod	nt	cr	nh/0049_nh.bmp
205.20	0.72	276	3	4	1	per	lib	low	mod	low	tg	ht	wh/0195.bmp
205.92	0.72	277	3	4	7	per	lib	low	mod	low	nt	cr	nh/0454_nh.bmp
206.64	0.72	278	2	1	78	mem	con	mod	mod	low	nt	ht	nh/0444_nh.bmp
207.36	0.72	279	1	2	114	per	lib	low	low	low	tg	ms	wh/0911.bmp
208.08	0.72	280	1	2	52	per	con	mod	mod	mod	tg	ms	wh/0665.bmp
208.80	0.72	281	1	1	71	mem	con	mod	mod	low	tg	ht	wh/0494.bmp
209.52	0.72	282	3	3	96	mem	con	mod	mod	mod	nt	ht	nh/0538_nh.bmp
210.24	0.72	283	2	2	52	per	con	mod	mod	mod	tg	ms	wh/0665.bmp
210.96	0.72	284	3	3	87	mem	con	mod	mod	mod	nt	ht	nh/0705_nh.bmp
211.68	0.72	285	2	2	32	mem	con	mod	mod	mod	nt	ht	nh/0742_nh.bmp
212.40	0.72	286	5	4	107	per	con	low	mod	low	tg	ht	wh/0575.bmp
213.12	0.72	287	4	2	30	mem	con	mod	mod	mod	nt	ht	nh/0071_nh.bmp
213.84	0.72	288	1	4	36	mem	lib	mod	mod	mod	tg	ht	wh/0759.bmp
214.56	0.72	289	2	1	35	per	lib	low	mod	low	nt	fa	nh/0212_nh.bmp
215.28	0.72	290	4	2	41	per	con	low	mod	low	tg	ms	wh/0914.bmp
216.00	0.72	291	1	4	96	per	con	mod	low	mod	tg	ht	wh/0644.bmp
216.72	0.72	292	3	2	111	mem	lib	mod	mod	mod	nt	ht	nh/0983_nh.bmp
217.44	0.72	293	1	3	75	mem	lib	low	low	low	nt	ht	nh/0484_nh.bmp
218.16	0.72	294	4	3	15	per	con	mod	mod	mod	tg	ht	wh/0479.bmp
218.88	0.72	295	3	1	47	per	lib	low	mod	low	tg	ht	wh/0672.bmp
219.60	0.72	296	4	1	12	per	lib	mod	mod	mod	tg	ht	wh/0313.bmp
220.32	0.72	297	1	1	79	mem	con	mod	mod	low	nt	ht	nh/0312_nh.bmp
221.04	0.72	298	1	4	33	mem	lib	mod	mod	mod	nt	ht	nh/0477_nh.bmp
221.76	0.72	299	5	3	15	per	con	mod	mod	mod	tg	ht	wh/0479.bmp
222.48	0.72	300	1	3	91	mem	con	mod	mod	mod	tg	ht	wh/0490.bmp
223.20	0.72	301	4	4	64	per	lib	mod	mod	mod	nt	cr	nh/0049_nh.bmp
223.92	0.72	302	1	1	82	per	con	low	low	low	tg	ms	wh/0535.bmp
224.64	0.72	303	3	1	14	per	lib	mod	mod	mod	tg	ht	wh/0359.bmp
225.36	0.72	304	2	2	44	per	con	low	mod	low	tg	ms	wh/0765.bmp
226.08	0.72	305	3	3	1	per	con	mod	mod	mod	nt	cr	nh/0895_nh.bmp
226.80	0.72	306	2	4	110	per	con	low	mod	low	nt	cr	nh/0030_nh.bmp
227.52	0.72	307	1	4	114	mem	con	low	low	mod	nt	ms	nh/0969_nh.bmp
228.24	0.72	308	1	2	82	per	lib	mod	low	mod	nt	cr	nh/0102_nh.bmp
228.96	0.72	309	4	3	46	mem	lib	mod	mod	low	tg	ht	wh/0174.bmp
229.68	0.72	310	1	1	99	mem	lib	mod	mod	low	tg	ht	wh/0203.bmp
230.40	0.72	311	2	2	46	per	con	low	mod	low	nt	cr	nh/0293_nh.bmp
231.12	0.72	312	4	2	98	mem	lib	mod	mod	mod	nt	ht	nh/0761_nh.bmp
231.84	0.72	313	2	1	72	mem	con	mod	mod	low	nt	ht	nh/0295_nh.bmp
232.56	0.72	314	2	2	108	mem	lib	mod	mod	mod	tg	ht	wh/0348.bmp
233.28	0.72	315	2	1	36	per	lib	low	mod	low	tg	ms	wh/0259.bmp
234.00	0.72	316	1	2	20	mem	con	mod	mod	mod	nt	ht	nh/0320_nh.bmp
234.72	0.72	317	1	4	88	per	con	mod	low	mod	tg	ms	wh/0595.bmp
235.44	0.72	318	2	4	54	per	lib	mod	mod	mod	nt	cr	nh/0365_nh.bmp
236.16	0.72	319	5	3	46	mem	lib	mod	mod	low	tg	ht	wh/0174.bmp
236.88	0.72	320	4	4	3	per	lib	low	mod	low	tg	ms	wh/1000.bmp
237.60	0.72	321	3	4	6	per	lib	low	mod	low	nt	fa	nh/0132_nh.bmp
238.32	0.72	322	4	1	47	per	lib	low	mod	low	tg	ht	wh/0672.bmp
239.04	0.72	323	3	2	51	per	con	mod	mod	mod	nt	cr	nh/0137_nh.bmp
239.76	0.72	324	2	4	20	mem	con	mod	mod	low	tg	ht	wh/0798.bmp
240.48	0.72	325	5	2	102	mem	lib	mod	mod	mod	tg	ht	wh/0970.bmp
241.20	0.72	326	2	3	82	mem	con	mod	mod	mod	tg	ht	wh/0445.bmp
241.92	0.72	327	2	1	13	per	lib	mod	mod	mod	nt	fa	nh/0333_nh.bmp
242.64	0.72	328	3	1	13	per	lib	mod	mod	mod	nt	fa	nh/0333_nh.bmp
243.36	0.72	329	1	3	68	mem	lib	low	low	low	tg	ht	wh/0021.bmp
244.08	0.72	330	4	4	7	per	lib	low	mod	low	nt	cr	nh/0454_nh.bmp
244.80	0.72	331	1	2	29	mem	con	mod	mod	mod	tg	ht	wh/0576.bmp
245.52	0.72	332	1	1	40	per	lib	low	mod	low	tg	ht	wh/0422.bmp
246.24	0.72	333	3	4	18	mem	con	mod	mod	low	tg	ht	wh/0615.bmp
246.96	0.72	334	2	3	94	mem	con	mod	mod	mod	nt	ht	nh/0151_nh.bmp
247.68	0.72	335	3	3	94	mem	con	mod	mod	mod	nt	ht	nh/0151_nh.bmp
248.40	0.72	336	2	3	40	mem	lib	mod	mod	low	tg	ht	wh/0067.bmp
249.12	0.72	337	2	1	79	mem	con	mod	mod	low	nt	ht	nh/0312_nh.bmp
249.84	0.72	338	1	3	22	mem	con	low	low	low	nt	ms	nh/0242_nh.bmp
250.56	0.72	339	3	3	82	mem	con	mod	mod	mod	tg	ht	wh/0445.bmp
251.28	0.72	340	1	2	127	per	lib	low	low	low	nt	fa	nh/0987_nh.bmp
252.00	0.72	341	2	3	34	mem	lib	mod	mod	low	tg	ht	wh/0757.bmp
252.72	0.72	342	3	2	32	mem	con	mod	mod	mod	nt	ht	nh/0742_nh.bmp
253.44	0.72	343	1	1	60	mem	con	low	low	mod	nt	ms	nh/0991_nh.bmp
254.16	0.72	344	4	4	1	per	lib	low	mod	low	tg	ht	wh/0195.bmp
254.88	0.72	345	3	1	79	mem	con	mod	mod	low	nt	ht	nh/0312_nh.bmp
255.60	0.72	346	4	3	87	mem	con	mod	mod	mod	nt	ht	nh/0705_nh.bmp
256.32	0.72	347	5	1	12	per	lib	mod	mod	mod	tg	ht	wh/0313.bmp
257.04	0.72	348	3	1	5	per	lib	mod	mod	mod	tg	ms	wh/0331.bmp
257.76	0.72	349	2	2	61	per	con	mod	mod	mod	tg	ms	wh/0645.bmp
258.48	0.72	350	2	1	65	mem	con	mod	mod	low	tg	ms	wh/0791.bmp
259.20	0.72	351	4	3	10	per	con	mod	mod	mod	nt	cr	nh/0664_nh.bmp
259.92	0.72	352	4	3	94	mem	con	mod	mod	mod	nt	ht	nh/0151_nh.bmp
260.64	0.72	353	1	4	68	mem	lib	low	low	mod	nt	ht	nh/0004_nh.bmp
261.36	0.72	354	2	2	20	mem	con	mod	mod	mod	nt	ht	nh/0320_nh.bmp
262.08	0.72	355	3	3	84	mem	con	mod	mod	mod	nt	ht	nh/0343_nh.bmp
262.80	0.72	356	2	1	99	mem	lib	mod	mod	low	tg	ht	wh/0203.bmp
263.52	0.72	357	3	4	47	mem	lib	mod	mod	mod	tg	ht	wh/0834.bmp
264.24	0.72	358	2	4	36	mem	lib	mod	mod	mod	tg	ht	wh/0759.bmp
264.96	0.72	359	5	2	47	per	con	low	mod	low	nt	cr	nh/0263_nh.bmp
265.68	0.72	360	3	2	23	mem	con	mod	mod	mod	tg	ht	wh/1006.bmp
266.40	0.72	361	4	2	64	per	con	mod	mod	mod	nt	cr	nh/0796_nh.bmp
267.12	0.72	362	1	1	15	per	lib	mod	mod	mod	nt	cr	nh/0799_nh.bmp
267.84	0.72	363	3	4	14	per	lib	low	mod	low	tg	ms	wh/0283.bmp
268.56	0.72	364	3	2	20	mem	con	mod	mod	mod	nt	ht	nh/0320_nh.bmp
269.28	0.72	365	1	3	117	per	lib	low	low	low	tg	ht	wh/0130.bmp
270.00	0.72	366	2	4	33	mem	lib	mod	mod	mod	nt	ht	nh/0477_nh.bmp
270.72	0.72	367	4	1	67	mem	con	mod	mod	low	tg	ht	wh/0007.bmp
271.44	0.72	368	3	2	105	mem	lib	mod	mod	mod	tg	ht	wh/0674.bmp
272.16	0.72	369	3	1	99	mem	lib	mod	mod	low	tg	ht	wh/0203.bmp
272.88	0.72	370	3	2	46	per	con	low	mod	low	nt	cr	nh/0293_nh.bmp
273.60	0.72	371	4	4	26	mem	con	mod	mod	low	tg	ms	wh/0424.bmp
274.32	0.72	372	2	4	30	mem	con	mod	mod	low	nt	ht	nh/0390_nh.bmp
275.04	0.72	373	1	4	51	per	lib	mod	mod	mod	nt	cr	nh/0931_nh.bmp
275.76	0.72	374	4	1	79	mem	con	mod	mod	low	nt	ht	nh/0312_nh.bmp
276.48	0.72	375	2	3	36	mem	lib	mod	mod	low	nt	ht	nh/0683_nh.bmp
277.20	0.72	376	1	3	107	per	lib	mod	low	mod	nt	cr	nh/0993_nh.bmp
277.92	0.72	377	1	2	109	mem	lib	mod	mod	mod	nt	ht	nh/0413_nh.bmp
278.64	0.72	378	3	2	53	per	con	mod	mod	mod	tg	ht	wh/0925.bmp
279.36	0.72	379	3	4	108	per	con	low	mod	low	nt	cr	nh/0166_nh.bmp
280.08	0.72	380	4	1	13	per	lib	mod	mod	mod	nt	fa	nh/0333_nh.bmp
280.80	0.72	381	2	1	71	mem	con	mod	mod	low	tg	ht	wh/0494.bmp
281.52	0.72	382	5	4	64	per	lib	mod	mod	mod	nt	cr	nh/0049_nh.bmp
282.24	0.72	383	3	1	35	per	lib	low	mod	low	nt	fa	nh/0212_nh.bmp
282.96	0.72	384	2	1	110	mem	lib	mod	mod	low	nt	ht	nh/0511_nh.bmp
283.68	0.72	385	1	3	18	mem	con	low	low	low	tg	ht	wh/0713.bmp
284.40	0.72	386	5	1	97	mem	lib	mod	mod	low	tg	ht	wh/0386.bmp
285.12	0.72	387	1	2	40	per	con	low	mod	low	tg	ms	wh/0438.bmp
285.84	0.72	388	3	1	65	mem	con	mod	mod	low	tg	ms	wh/0791.bmp
286.56	0.72	389	3	3	40	mem	lib	mod	mod	low	tg	ht	wh/0067.bmp
287.28	0.72	390	4	2	34	per	con	low	mod	low	nt	cr	nh/0412_nh.bmp
288.00	0.72	391	3	3	16	per	con	mod	mod	mod	tg	ht	wh/0689.bmp
288.72	0.72	392	3	4	111	per	con	low	mod	low	tg	ms	wh/0315.bmp
289.44	0.72	393	3	1	72	mem	con	mod	mod	low	nt	ht	nh/0295_nh.bmp
290.16	0.72	394	2	3	91	mem	con	mod	mod	mod	tg	ht	wh/0490.bmp
290.88	0.72	395	2	4	55	per	lib	mod	mod	mod	tg	ht	wh/0943.bmp
291.60	0.72	396	1	4	79	mem	lib	low	low	mod	nt	ms	nh/0230_nh.bmp
292.32	0.72	397	4	3	88	mem	con	mod	mod	mod	tg	ht	wh/0282.bmp
293.04	0.72	398	3	2	25	mem	con	mod	mod	mod	nt	ht	nh/0901_nh.bmp
293.76	0.72	399	2	1	15	per	lib	mod	mod	mod	nt	cr	nh/0799_nh.bmp
294.48	0.72	400	1	3	89	mem	con	mod	mod	mod	tg	ht	wh/0753.bmp
295.20	0.72	401	3	4	109	per	con	low	mod	low	tg	ms	wh/0081.bmp
295.92	0.72	402	3	4	30	mem	con	mod	mod	low	nt	ht	nh/0390_nh.bmp
296.64	0.72	403	2	2	59	per	con	mod	mod	mod	nt	cr	nh/0961_nh.bmp
297.36	0.72	404	6	2	47	per	con	low	mod	low	nt	cr	nh/0263_nh.bmp
298.08	0.72	405	3	4	33	mem	lib	mod	mod	mod	nt	ht	nh/0477_nh.bmp
298.80	0.72	406	2	2	29	mem	con	mod	mod	mod	tg	ht	wh/0576.bmp
299.52	0.72	407	1	3	64	per	con	low	low	low	tg	ht	wh/0743.bmp
300.24	0.72	408	3	4	104	per	con	low	mod	low	nt	cr	nh/0410_nh.bmp
300.96	0.72	409	4	2	26	mem	con	mod	mod	mod	tg	ht	wh/0487.bmp
301.68	0.72	410	3	4	53	per	lib	mod	mod	mod	nt	fa	nh/0604_nh.bmp
302.40	0.72	411	4	3	7	per	con	mod	mod	mod	tg	ht	wh/0806.bmp
303.12	0.72	412	3	1	1	per	lib	mod	mod	mod	tg	n/a	wh/0097.bmp
303.84	0.72	413	3	4	100	per	con	low	mod	low	nt	fa	nh/0246_nh.bmp
304.56	0.72	414	2	4	41	mem	lib	mod	mod	mod	nt	ht	nh/0809_nh.bmp
305.28	0.72	415	3	3	48	mem	lib	mod	mod	low	nt	ht	nh/0976_nh.bmp
306.00	0.72	416	4	3	45	mem	lib	mod	mod	low	tg	ht	wh/0643.bmp
306.72	0.72	417	3	4	12	per	lib	low	mod	low	nt	cr	nh/0703_nh.bmp
307.44	0.72	418	4	1	1	per	lib	mod	mod	mod	tg	n/a	wh/0097.bmp
308.16	0.72	419	2	2	109	mem	lib	mod	mod	mod	nt	ht	nh/0413_nh.bmp
308.88	0.72	420	4	4	104	per	con	low	mod	low	nt	cr	nh/0410_nh.bmp
309.60	0.72	421	3	4	20	mem	con	mod	mod	low	tg	ht	wh/0798.bmp
310.32	0.72	422	4	4	111	per	con	low	mod	low	tg	ms	wh/0315.bmp
311.04	0.72	423	6	1	12	per	lib	mod	mod	mod	tg	ht	wh/0313.bmp
311.76	0.72	424	3	2	108	mem	lib	mod	mod	mod	tg	ht	wh/0348.bmp
312.48	0.72	425	1	3	30	mem	con	low	low	low	nt	ht	nh/0026_nh.bmp
313.20	0.72	426	3	4	97	per	con	low	mod	low	tg	ms	wh/0509.bmp
313.92	0.72	427	3	4	16	per	lib	low	mod	low	tg	ms	wh/0400.bmp
314.64	0.72	428	3	4	41	mem	lib	mod	mod	mod	nt	ht	nh/0809_nh.bmp
315.36	0.72	429	1	2	9	mem	con	low	low	low	tg	ms	wh/0908.bmp
316.08	0.72	430	3	1	36	per	lib	low	mod	low	tg	ms	wh/0259.bmp
316.80	0.72	431	3	4	55	per	lib	mod	mod	mod	tg	ht	wh/0943.bmp
317.52	0.72	432	4	4	42	mem	lib	mod	mod	mod	nt	ht	nh/0861_nh.bmp
318.24	0.72	433	2	2	45	per	con	low	mod	low	tg	ms	wh/0554.bmp
318.96	0.72	434	3	3	13	per	con	mod	mod	mod	nt	fa	nh/0229_nh.bmp
319.68	0.72	435	3	2	59	per	con	mod	mod	mod	nt	cr	nh/0961_nh.bmp
320.40	0.72	436	4	4	100	per	con	low	mod	low	nt	fa	nh/0246_nh.bmp
321.12	0.72	437	5	4	7	per	lib	low	mod	low	nt	cr	nh/0454_nh.bmp
321.84	0.72	438	4	2	100	mem	lib	mod	mod	mod	tg	ht	wh/0583.bmp
322.56	0.72	439	4	3	82	mem	con	mod	mod	mod	tg	ht	wh/0445.bmp
323.28	0.72	440	2	4	15	per	lib	low	mod	low	nt	cr	nh/0641_nh.bmp
324.00	0.72	441	1	3	125	per	lib	low	low	low	nt	cr	nh/0808_nh.bmp
324.72	0.72	442	5	4	3	per	lib	low	mod	low	tg	ms	wh/1000.bmp
325.44	0.72	443	3	2	62	per	con	mod	mod	mod	nt	cr	nh/0738_nh.bmp
326.16	0.72	444	4	2	32	mem	con	mod	mod	mod	nt	ht	nh/0742_nh.bmp
326.88	0.72	445	5	3	10	per	con	mod	mod	mod	nt	cr	nh/0664_nh.bmp
327.60	0.72	446	4	1	35	per	lib	low	mod	low	nt	fa	nh/0212_nh.bmp
328.32	0.72	447	5	3	87	mem	con	mod	mod	mod	nt	ht	nh/0705_nh.bmp
329.04	0.72	448	2	1	104	mem	lib	mod	mod	low	nt	ht	nh/0988_nh.bmp
329.76	0.72	449	3	2	48	per	con	low	mod	low	nt	cr	nh/0459_nh.bmp
330.48	0.72	450	1	1	32	per	con	mod	low	mod	nt	cr	nh/0033_nh.bmp
331.20	0.72	451	3	4	110	per	con	low	mod	low	nt	cr	nh/0030_nh.bmp
331.92	0.72	452	5	2	26	mem	con	mod	mod	mod	tg	ht	wh/0487.bmp
332.64	0.72	453	3	1	71	mem	con	mod	mod	low	tg	ht	wh/0494.bmp
333.36	0.72	454	4	1	108	mem	lib	mod	mod	low	nt	ht	nh/0124_nh.bmp
334.08	0.72	455	1	2	60	per	con	mod	mod	mod	tg	ht	wh/0279.bmp
334.80	0.72	456	4	3	13	per	con	mod	mod	mod	nt	fa	nh/0229_nh.bmp
335.52	0.72	457	5	1	1	per	lib	mod	mod	mod	tg	n/a	wh/0097.bmp
336.24	0.72	458	4	4	30	mem	con	mod	mod	low	nt	ht	nh/0390_nh.bmp
336.96	0.72	459	1	3	43	mem	lib	mod	mod	low	nt	ht	nh/0512_nh.bmp
337.68	0.72	460	3	3	3	per	con	mod	mod	mod	tg	ht	wh/0592.bmp
338.40	0.72	461	4	3	40	mem	lib	mod	mod	low	tg	ht	wh/0067.bmp
339.12	0.72	462	5	4	1	per	lib	low	mod	low	tg	ht	wh/0195.bmp
339.84	0.72	463	2	1	40	per	lib	low	mod	low	tg	ht	wh/0422.bmp
340.56	0.72	464	1	4	89	per	con	mod	low	mod	tg	ht	wh/0498.bmp
341.28	0.72	465	4	4	41	mem	lib	mod	mod	mod	nt	ht	nh/0809_nh.bmp
342.00	0.72	466	4	4	53	per	lib	mod	mod	mod	nt	fa	nh/0604_nh.bmp
342.72	0.72	467	4	2	59	per	con	mod	mod	mod	nt	cr	nh/0961_nh.bmp
343.44	0.72	468	4	2	53	per	con	mod	mod	mod	tg	ht	wh/0925.bmp
344.16	0.72	469	3	4	15	per	lib	low	mod	low	nt	cr	nh/0641_nh.bmp
344.88	0.72	470	1	1	21	per	con	mod	low	mod	nt	cr	nh/0062_nh.bmp
345.60	0.72	471	3	1	43	per	lib	low	mod	low	nt	cr	nh/0302_nh.bmp
346.32	0.72	472	4	2	108	mem	lib	mod	mod	mod	tg	ht	wh/0348.bmp
347.04	0.72	473	5	2	30	mem	con	mod	mod	mod	nt	ht	nh/0071_nh.bmp
347.76	0.72	474	1	4	71	mem	lib	low	low	mod	tg	ht	wh/0214.bmp
348.48	0.72	475	2	3	43	mem	lib	mod	mod	low	nt	ht	nh/0512_nh.bmp
349.20	0.72	476	4	3	96	mem	con	mod	mod	mod	nt	ht	nh/0538_nh.bmp
349.92	0.72	477	4	1	65	mem	con	mod	mod	low	tg	ms	wh/0791.bmp
350.64	0.72	478	5	2	108	mem	lib	mod	mod	mod	tg	ht	wh/0348.bmp
351.36	0.72	479	3	1	78	mem	con	mod	mod	low	nt	ht	nh/0444_nh.bmp
352.08	0.72	480	2	4	34	mem	lib	mod	mod	mod	nt	ht	nh/0039_nh.bmp
352.80	0.72	481	2	4	23	mem	con	mod	mod	low	tg	ht	wh/0236.bmp
353.52	0.72	482	1	3	55	per	con	low	low	low	tg	ht	wh/0819.bmp
354.24	0.72	483	1	3	29	mem	con	low	low	low	nt	ms	nh/0117_nh.bmp
354.96	0.72	484	4	4	20	mem	con	mod	mod	low	tg	ht	wh/0798.bmp
355.68	0.72	485	3	4	54	per	lib	mod	mod	mod	nt	cr	nh/0365_nh.bmp
356.40	0.72	486	1	4	73	mem	lib	low	low	mod	tg	ms	wh/0894.bmp
357.12	0.72	487	3	3	43	mem	lib	mod	mod	low	nt	ht	nh/0512_nh.bmp
357.84	0.72	488	4	4	27	mem	con	mod	mod	low	nt	ht	nh/0523_nh.bmp
358.56	0.72	489	1	2	16	mem	con	low	low	low	nt	ms	nh/0524_nh.bmp
359.28	0.72	490	2	2	40	per	con	low	mod	low	tg	ms	wh/0438.bmp
360.00	0.72	491	5	1	13	per	lib	mod	mod	mod	nt	fa	nh/0333_nh.bmp
360.72	0.72	492	4	4	33	mem	lib	mod	mod	mod	nt	ht	nh/0477_nh.bmp
361.44	0.72	493	4	4	15	per	lib	low	mod	low	nt	cr	nh/0641_nh.bmp
362.16	0.72	494	5	2	34	per	con	low	mod	low	nt	cr	nh/0412_nh.bmp
362.88	0.72	495	4	4	110	per	con	low	mod	low	nt	cr	nh/0030_nh.bmp
363.60	0.72	496	6	3	46	mem	lib	mod	mod	low	tg	ht	wh/0174.bmp
364.32	0.72	497	3	3	39	mem	lib	mod	mod	low	nt	ht	nh/0792_nh.bmp
365.04	0.72	498	3	1	110	mem	lib	mod	mod	low	nt	ht	nh/0511_nh.bmp
365.76	0.72	499	5	1	73	mem	con	mod	mod	low	tg	ms	wh/1013.bmp
366.48	0.72	500	4	3	16	per	con	mod	mod	mod	tg	ht	wh/0689.bmp
367.20	0.72	501	5	3	88	mem	con	mod	mod	mod	tg	ht	wh/0282.bmp
367.92	0.72	502	4	3	8	per	con	mod	mod	mod	nt	cr	nh/0448_nh.bmp
368.64	0.72	503	3	1	15	per	lib	mod	mod	mod	nt	cr	nh/0799_nh.bmp
369.36	0.72	504	3	2	61	per	con	mod	mod	mod	tg	ms	wh/0645.bmp
370.08	0.72	505	4	1	110	mem	lib	mod	mod	low	nt	ht	nh/0511_nh.bmp
370.80	0.72	506	1	1	25	per	con	mod	low	mod	tg	ht	wh/0616.bmp
371.52	0.72	507	4	2	105	mem	lib	mod	mod	mod	tg	ht	wh/0674.bmp
372.24	0.72	508	3	3	34	mem	lib	mod	mod	low	tg	ht	wh/0757.bmp
372.96	0.72	509	5	2	64	per	con	mod	mod	mod	nt	cr	nh/0796_nh.bmp
373.68	0.72	510	5	1	67	mem	con	mod	mod	low	tg	ht	wh/0007.bmp
374.40	0.72	511	1	2	126	per	lib	low	low	low	tg	ht	wh/0309.bmp
375.12	0.72	512	1	4	65	mem	lib	low	low	mod	nt	ht	nh/0192_nh.bmp
375.84	0.72	513	3	4	36	mem	lib	mod	mod	mod	tg	ht	wh/0759.bmp
376.56	0.72	514	3	2	40	per	con	low	mod	low	tg	ms	wh/0438.bmp
377.28	0.72	515	5	4	26	mem	con	mod	mod	low	tg	ms	wh/0424.bmp
378.00	0.72	516	4	3	48	mem	lib	mod	mod	low	nt	ht	nh/0976_nh.bmp
378.72	0.72	517	5	3	45	mem	lib	mod	mod	low	tg	ht	wh/0643.bmp
379.44	0.72	518	1	1	92	per	con	low	low	low	tg	ht	wh/0078.bmp
380.16	0.72	519	2	2	60	per	con	mod	mod	mod	tg	ht	wh/0279.bmp
380.88	0.72	520	4	2	48	per	con	low	mod	low	nt	cr	nh/0459_nh.bmp
381.60	0.72	521	1	4	95	per	con	mod	low	mod	nt	fa	nh/0052_nh.bmp
382.32	0.72	522	5	2	59	per	con	mod	mod	mod	nt	cr	nh/0961_nh.bmp
383.04	0.72	523	6	2	108	mem	lib	mod	mod	mod	tg	ht	wh/0348.bmp
383.76	0.72	524	2	4	61	per	lib	mod	mod	mod	tg	ht	wh/0072.bmp
384.48	0.72	525	4	2	20	mem	con	mod	mod	mod	nt	ht	nh/0320_nh.bmp
385.20	0.72	526	1	3	26	mem	con	low	low	low	tg	ms	wh/0653.bmp
385.92	0.72	527	6	2	30	mem	con	mod	mod	mod	nt	ht	nh/0071_nh.bmp
386.64	0.72	528	5	3	94	mem	con	mod	mod	mod	nt	ht	nh/0151_nh.bmp
387.36	0.72	529	4	4	16	per	lib	low	mod	low	tg	ms	wh/0400.bmp
388.08	0.72	530	1	2	5	mem	con	low	low	low	tg	ms	wh/0107.bmp
388.80	0.72	531	4	3	43	mem	lib	mod	mod	low	nt	ht	nh/0512_nh.bmp
389.52	0.72	532	4	1	36	per	lib	low	mod	low	tg	ms	wh/0259.bmp
390.24	0.72	533	1	3	27	mem	con	low	low	low	nt	ms	nh/0877_nh.bmp
390.96	0.72	534	1	3	78	mem	lib	low	low	low	tg	ht	wh/0271.bmp
391.68	0.72	535	3	1	34	per	lib	low	mod	low	nt	cr	nh/0496_nh.bmp
392.40	0.72	536	6	1	67	mem	con	mod	mod	low	tg	ht	wh/0007.bmp
393.12	0.72	537	4	4	32	mem	con	mod	mod	low	nt	ht	nh/0131_nh.bmp
393.84	0.72	538	3	1	106	mem	lib	mod	mod	low	tg	ht	wh/0368.bmp
394.56	0.72	539	4	3	3	per	con	mod	mod	mod	tg	ht	wh/0592.bmp
395.28	0.72	540	4	1	112	mem	lib	mod	mod	low	nt	ht	nh/0661_nh.bmp
396.00	0.72	541	1	3	121	per	lib	low	low	low	tg	ms	wh/0720.bmp
396.72	0.72	542	6	3	88	mem	con	mod	mod	mod	tg	ht	wh/0282.bmp
397.44	0.72	543	2	4	40	mem	lib	mod	mod	mod	tg	ht	wh/0358.bmp
398.16	0.72	544	3	4	40	mem	lib	mod	mod	mod	tg	ht	wh/0358.bmp
398.88	0.72	545	6	2	34	per	con	low	mod	low	nt	cr	nh/0412_nh.bmp
399.60	0.72	546	1	3	60	per	con	low	low	low	nt	cr	nh/0356_nh.bmp
400.32	0.72	547	1	1	20	per	con	mod	low	mod	tg	ht	wh/0891.bmp
401.04	0.72	548	5	2	105	mem	lib	mod	mod	mod	tg	ht	wh/0674.bmp
401.76	0.72	549	4	1	2	per	lib	mod	mod	mod	nt	cr	nh/0628_nh.bmp
402.48	0.72	550	4	2	40	per	con	low	mod	low	tg	ms	wh/0438.bmp
403.20	0.72	551	1	2	70	mem	lib	low	low	mod	nt	ms	nh/0467_nh.bmp
403.92	0.72	552	5	4	100	per	con	low	mod	low	nt	fa	nh/0246_nh.bmp
404.64	0.72	553	4	1	15	per	lib	mod	mod	mod	nt	cr	nh/0799_nh.bmp
405.36	0.72	554	4	2	46	per	con	low	mod	low	nt	cr	nh/0293_nh.bmp
406.08	0.72	555	1	1	63	mem	con	low	low	mod	tg	ht	wh/0440.bmp
406.80	0.72	556	4	1	71	mem	con	mod	mod	low	tg	ht	wh/0494.bmp
407.52	0.72	557	1	2	84	per	lib	mod	low	mod	nt	cr	nh/0069_nh.bmp
408.24	0.72	558	3	2	45	per	con	low	mod	low	tg	ms	wh/0554.bmp
408.96	0.72	559	3	2	52	per	con	mod	mod	mod	tg	ms	wh/0665.bmp
409.68	0.72	560	5	1	79	mem	con	mod	mod	low	nt	ht	nh/0312_nh.bmp
410.40	0.72	561	4	2	62	per	con	mod	mod	mod	nt	cr	nh/0738_nh.bmp
411.12	0.72	562	5	4	111	per	con	low	mod	low	tg	ms	wh/0315.bmp
411.84	0.72	563	4	4	14	per	lib	low	mod	low	tg	ms	wh/0283.bmp
412.56	0.72	564	3	4	48	mem	lib	mod	mod	mod	tg	ht	wh/0344.bmp
413.28	0.72	565	5	2	40	per	con	low	mod	low	tg	ms	wh/0438.bmp
414.00	0.72	566	4	4	54	per	lib	mod	mod	mod	nt	cr	nh/0365_nh.bmp
414.72	0.72	567	5	4	15	per	lib	low	mod	low	nt	cr	nh/0641_nh.bmp
415.44	0.72	568	5	2	98	mem	lib	mod	mod	mod	nt	ht	nh/0761_nh.bmp
416.16	0.72	569	5	1	15	per	lib	mod	mod	mod	nt	cr	nh/0799_nh.bmp
416.88	0.72	570	4	4	18	mem	con	mod	mod	low	tg	ht	wh/0615.bmp
417.60	0.72	571	5	4	14	per	lib	low	mod	low	tg	ms	wh/0283.bmp
418.32	0.72	572	5	1	112	mem	lib	mod	mod	low	nt	ht	nh/0661_nh.bmp
419.04	0.72	573	6	1	97	mem	lib	mod	mod	low	tg	ht	wh/0386.bmp
419.76	0.72	574	1	2	6	mem	con	low	low	low	nt	ht	nh/0363_nh.bmp
420.48	0.72	575	3	4	23	mem	con	mod	mod	low	tg	ht	wh/0236.bmp
421.20	0.72	576	4	1	106	mem	lib	mod	mod	low	tg	ht	wh/0368.bmp
421.92	0.72	577	6	2	105	mem	lib	mod	mod	mod	tg	ht	wh/0674.bmp
422.64	0.72	578	3	1	104	mem	lib	mod	mod	low	nt	ht	nh/0988_nh.bmp
423.36	0.72	579	5	3	8	per	con	mod	mod	mod	nt	cr	nh/0448_nh.bmp
424.08	0.72	580	4	4	36	mem	lib	mod	mod	mod	tg	ht	wh/0759.bmp
424.80	0.72	581	4	4	47	mem	lib	mod	mod	mod	tg	ht	wh/0834.bmp
425.52	0.72	582	4	1	104	mem	lib	mod	mod	low	nt	ht	nh/0988_nh.bmp
426.24	0.72	583	6	1	79	mem	con	mod	mod	low	nt	ht	nh/0312_nh.bmp
426.96	0.72	584	5	4	32	mem	con	mod	mod	low	nt	ht	nh/0131_nh.bmp
427.68	0.72	585	5	2	104	mem	lib	mod	mod	mod	nt	ht	nh/0104_nh.bmp
428.40	0.72	586	1	2	79	mem	lib	low	low	mod	nt	ms	nh/0208_nh.bmp
429.12	0.72	587	1	1	27	per	con	mod	low	mod	nt	cr	nh/0003_nh.bmp
429.84	0.72	588	4	2	51	per	con	mod	mod	mod	nt	cr	nh/0137_nh.bmp
430.56	0.72	589	4	4	23	mem	con	mod	mod	low	tg	ht	wh/0236.bmp
431.28	0.72	590	4	2	111	mem	lib	mod	mod	mod	nt	ht	nh/0983_nh.bmp
432.00	0.72	591	3	1	40	per	lib	low	mod	low	tg	ht	wh/0422.bmp
432.72	0.72	592	5	3	96	mem	con	mod	mod	mod	nt	ht	nh/0538_nh.bmp
433.44	0.72	593	5	2	20	mem	con	mod	mod	mod	nt	ht	nh/0320_nh.bmp
434.16	0.72	594	4	1	43	per	lib	low	mod	low	nt	cr	nh/0302_nh.bmp
434.88	0.72	595	5	2	48	per	con	low	mod	low	nt	cr	nh/0459_nh.bmp
435.60	0.72	596	3	4	61	per	lib	mod	mod	mod	tg	ht	wh/0072.bmp
436.32	0.72	597	4	4	40	mem	lib	mod	mod	mod	tg	ht	wh/0358.bmp
437.04	0.72	598	3	3	91	mem	con	mod	mod	mod	tg	ht	wh/0490.bmp
437.76	0.72	599	5	1	110	mem	lib	mod	mod	low	nt	ht	nh/0511_nh.bmp
438.48	0.72	600	5	4	104	per	con	low	mod	low	nt	cr	nh/0410_nh.bmp
439.20	0.72	601	5	1	2	per	lib	mod	mod	mod	nt	cr	nh/0628_nh.bmp
439.92	0.72	602	4	1	5	per	lib	mod	mod	mod	tg	ms	wh/0331.bmp
440.64	0.72	603	1	1	127	mem	lib	low	low	low	tg	ht	wh/0369.bmp
441.36	0.72	604	3	2	29	mem	con	mod	mod	mod	tg	ht	wh/0576.bmp
442.08	0.72	605	5	4	16	per	lib	low	mod	low	tg	ms	wh/0400.bmp
442.80	0.72	606	4	2	25	mem	con	mod	mod	mod	nt	ht	nh/0901_nh.bmp
443.52	0.72	607	5	3	16	per	con	mod	mod	mod	tg	ht	wh/0689.bmp
444.24	0.72	608	6	4	56	per	lib	mod	mod	mod	tg	ht	wh/0427.bmp
444.96	0.72	609	2	3	89	mem	con	mod	mod	mod	tg	ht	wh/0753.bmp
445.68	0.72	610	4	4	61	per	lib	mod	mod	mod	tg	ht	wh/0072.bmp
446.40	0.72	611	3	2	44	per	con	low	mod	low	tg	ms	wh/0765.bmp
447.12	0.72	612	1	4	124	mem	con	low	low	mod	tg	ms	wh/0409.bmp
447.84	0.72	613	4	1	102	mem	lib	mod	mod	low	tg	ht	wh/0323.bmp
448.56	0.72	614	3	2	60	per	con	mod	mod	mod	tg	ht	wh/0279.bmp
449.28	0.72	615	5	4	54	per	lib	mod	mod	mod	nt	cr	nh/0365_nh.bmp
450.00	0.72	616	4	4	55	per	lib	mod	mod	mod	tg	ht	wh/0943.bmp
450.72	0.72	617	4	1	99	mem	lib	mod	mod	low	tg	ht	wh/0203.bmp
451.44	0.72	618	5	4	40	mem	lib	mod	mod	mod	tg	ht	wh/0358.bmp
452.16	0.72	619	6	2	59	per	con	mod	mod	mod	nt	cr	nh/0961_nh.bmp
452.88	0.72	620	3	4	34	mem	lib	mod	mod	mod	nt	ht	nh/0039_nh.bmp
453.60	0.72	621	1	2	95	per	lib	mod	low	mod	tg	ht	wh/0517.bmp
454.32	0.72	622	6	1	1	per	lib	mod	mod	mod	tg	n/a	wh/0097.bmp
455.04	0.72	623	3	2	109	mem	lib	mod	mod	mod	nt	ht	nh/0413_nh.bmp
455.76	0.72	624	4	3	1	per	con	mod	mod	mod	nt	cr	nh/0895_nh.bmp
456.48	0.72	625	5	1	5	per	lib	mod	mod	mod	tg	ms	wh/0331.bmp
457.20	0.72	626	5	2	100	mem	lib	mod	mod	mod	tg	ht	wh/0583.bmp
457.92	0.72	627	3	3	36	mem	lib	mod	mod	low	nt	ht	nh/0683_nh.bmp
458.64	0.72	628	5	3	40	mem	lib	mod	mod	low	tg	ht	wh/0067.bmp
459.36	0.72	629	5	1	108	mem	lib	mod	mod	low	nt	ht	nh/0124_nh.bmp
460.08	0.72	630	5	4	20	mem	con	mod	mod	low	tg	ht	wh/0798.bmp
460.80	0.72	631	4	4	109	per	con	low	mod	low	tg	ms	wh/0081.bmp
461.52	0.72	632	5	2	22	mem	con	mod	mod	mod	tg	ht	wh/1010.bmp
462.24	0.72	633	5	4	47	mem	lib	mod	mod	mod	tg	ht	wh/0834.bmp
462.96	0.72	634	6	1	2	per	lib	mod	mod	mod	nt	cr	nh/0628_nh.bmp
463.68	0.72	635	4	4	108	per	con	low	mod	low	nt	cr	nh/0166_nh.bmp
464.40	0.72	636	4	3	36	mem	lib	mod	mod	low	nt	ht	nh/0683_nh.bmp
465.12	0.72	637	1	3	108	per	lib	mod	low	mod	tg	ht	wh/0670.bmp
465.84	0.72	638	5	1	43	per	lib	low	mod	low	nt	cr	nh/0302_nh.bmp
466.56	0.72	639	4	3	34	mem	lib	mod	mod	low	tg	ht	wh/0757.bmp
467.28	0.72	640	4	1	14	per	lib	mod	mod	mod	tg	ht	wh/0359.bmp
468.00	0.72	641	4	3	39	mem	lib	mod	mod	low	nt	ht	nh/0792_nh.bmp
468.72	0.72	642	4	2	60	per	con	mod	mod	mod	tg	ht	wh/0279.bmp
469.44	0.72	643	5	2	62	per	con	mod	mod	mod	nt	cr	nh/0738_nh.bmp
470.16	0.72	644	6	2	104	mem	lib	mod	mod	mod	nt	ht	nh/0104_nh.bmp
470.88	0.72	645	1	4	116	mem	con	low	low	mod	nt	ht	nh/0457_nh.bmp
471.60	0.72	646	4	4	48	mem	lib	mod	mod	mod	tg	ht	wh/0344.bmp
472.32	0.72	647	4	2	29	mem	con	mod	mod	mod	tg	ht	wh/0576.bmp
473.04	0.72	648	5	4	18	mem	con	mod	mod	low	tg	ht	wh/0615.bmp
473.76	0.72	649	4	4	34	mem	lib	mod	mod	mod	nt	ht	nh/0039_nh.bmp
474.48	0.72	650	6	4	3	per	lib	low	mod	low	tg	ms	wh/1000.bmp
475.20	0.72	651	5	3	43	mem	lib	mod	mod	low	nt	ht	nh/0512_nh.bmp
475.92	0.72	652	6	4	100	per	con	low	mod	low	nt	fa	nh/0246_nh.bmp
476.64	0.72	653	5	2	53	per	con	mod	mod	mod	tg	ht	wh/0925.bmp
477.36	0.72	654	6	4	24	mem	con	mod	mod	low	nt	ht	nh/0291_nh.bmp
478.08	0.72	655	1	1	83	per	con	low	low	low	nt	cr	nh/0989_nh.bmp
478.80	0.72	656	2	4	51	per	lib	mod	mod	mod	nt	cr	nh/0931_nh.bmp
479.52	0.72	657	6	1	112	mem	lib	mod	mod	low	nt	ht	nh/0661_nh.bmp
480.24	0.72	658	5	1	35	per	lib	low	mod	low	nt	fa	nh/0212_nh.bmp
480.96	0.72	659	5	4	23	mem	con	mod	mod	low	tg	ht	wh/0236.bmp
481.68	0.72	660	6	4	16	per	lib	low	mod	low	tg	ms	wh/0400.bmp
482.40	0.72	661	4	3	91	mem	con	mod	mod	mod	tg	ht	wh/0490.bmp
483.12	0.72	662	5	1	36	per	lib	low	mod	low	tg	ms	wh/0259.bmp
483.84	0.72	663	4	1	72	mem	con	mod	mod	low	nt	ht	nh/0295_nh.bmp
484.56	0.72	664	5	4	108	per	con	low	mod	low	nt	cr	nh/0166_nh.bmp
485.28	0.72	665	6	2	26	mem	con	mod	mod	mod	tg	ht	wh/0487.bmp
486.00	0.72	666	5	1	47	per	lib	low	mod	low	tg	ht	wh/0672.bmp
486.72	0.72	667	4	3	84	mem	con	mod	mod	mod	nt	ht	nh/0343_nh.bmp
487.44	0.72	668	5	3	13	per	con	mod	mod	mod	nt	fa	nh/0229_nh.bmp
488.16	0.72	669	5	3	3	per	con	mod	mod	mod	tg	ht	wh/0592.bmp
488.88	0.72	670	5	2	51	per	con	mod	mod	mod	nt	cr	nh/0137_nh.bmp
489.60	0.72	671	3	3	89	mem	con	mod	mod	mod	tg	ht	wh/0753.bmp
490.32	0.72	672	1	4	121	mem	con	low	low	mod	nt	ms	nh/0726_nh.bmp
491.04	0.72	673	1	2	92	per	lib	mod	low	mod	nt	fa	nh/0854_nh.bmp
491.76	0.72	674	4	2	45	per	con	low	mod	low	tg	ms	wh/0554.bmp
492.48	0.72	675	5	1	72	mem	con	mod	mod	low	nt	ht	nh/0295_nh.bmp
493.20	0.72	676	6	4	1	per	lib	low	mod	low	tg	ht	wh/0195.bmp
493.92	0.72	677	1	3	101	per	lib	mod	low	mod	tg	ht	wh/0539.bmp
494.64	0.72	678	4	1	40	per	lib	low	mod	low	tg	ht	wh/0422.bmp
495.36	0.72	679	4	2	23	mem	con	mod	mod	mod	tg	ht	wh/1006.bmp
496.08	0.72	680	5	2	29	mem	con	mod	mod	mod	tg	ht	wh/0576.bmp
496.80	0.72	681	6	3	8	per	con	mod	mod	mod	nt	cr	nh/0448_nh.bmp
497.52	0.72	682	1	2	89	per	lib	mod	low	mod	tg	ht	wh/0917.bmp
498.24	0.72	683	5	2	60	per	con	mod	mod	mod	tg	ht	wh/0279.bmp
498.96	0.72	684	6	2	53	per	con	mod	mod	mod	tg	ht	wh/0925.bmp
499.68	0.72	685	4	2	109	mem	lib	mod	mod	mod	nt	ht	nh/0413_nh.bmp
500.40	0.72	686	5	4	41	mem	lib	mod	mod	mod	nt	ht	nh/0809_nh.bmp
501.12	0.72	687	6	1	43	per	lib	low	mod	low	nt	cr	nh/0302_nh.bmp
501.84	0.72	688	5	4	30	mem	con	mod	mod	low	nt	ht	nh/0390_nh.bmp
502.56	0.72	689	3	4	51	per	lib	mod	mod	mod	nt	cr	nh/0931_nh.bmp
503.28	0.72	690	4	3	89	mem	con	mod	mod	mod	tg	ht	wh/0753.bmp
504.00	0.72	691	5	3	36	mem	lib	mod	mod	low	nt	ht	nh/0683_nh.bmp
504.72	0.72	692	5	3	91	mem	con	mod	mod	mod	tg	ht	wh/0490.bmp
505.44	0.72	693	4	2	52	per	con	mod	mod	mod	tg	ms	wh/0665.bmp
506.16	0.72	694	1	1	81	per	con	low	low	low	nt	cr	nh/0169_nh.bmp
506.88	0.72	695	4	1	78	mem	con	mod	mod	low	nt	ht	nh/0444_nh.bmp
507.60	0.72	696	5	4	55	per	lib	mod	mod	mod	tg	ht	wh/0943.bmp
508.32	0.72	697	6	1	5	per	lib	mod	mod	mod	tg	ms	wh/0331.bmp
509.04	0.72	698	6	3	13	per	con	mod	mod	mod	nt	fa	nh/0229_nh.bmp
509.76	0.72	699	5	3	89	mem	con	mod	mod	mod	tg	ht	wh/0753.bmp
510.48	0.72	700	5	2	23	mem	con	mod	mod	mod	tg	ht	wh/1006.bmp
511.20	0.72	701	5	1	102	mem	lib	mod	mod	low	tg	ht	wh/0323.bmp
511.92	0.72	702	6	4	107	per	con	low	mod	low	tg	ht	wh/0575.bmp
512.64	0.72	703	5	4	27	mem	con	mod	mod	low	nt	ht	nh/0523_nh.bmp
513.36	0.72	704	6	4	32	mem	con	mod	mod	low	nt	ht	nh/0131_nh.bmp
514.08	0.72	705	3	1	9	per	lib	mod	mod	mod	nt	cr	nh/0562_nh.bmp
514.80	0.72	706	6	3	94	mem	con	mod	mod	mod	nt	ht	nh/0151_nh.bmp
515.52	0.72	707	1	3	115	per	lib	low	low	low	tg	ht	wh/0430.bmp
516.24	0.72	708	6	2	23	mem	con	mod	mod	mod	tg	ht	wh/1006.bmp
516.96	0.72	709	6	2	51	per	con	mod	mod	mod	nt	cr	nh/0137_nh.bmp
517.68	0.72	710	4	4	51	per	lib	mod	mod	mod	nt	cr	nh/0931_nh.bmp
518.40	0.72	711	6	2	64	per	con	mod	mod	mod	nt	cr	nh/0796_nh.bmp
519.12	0.72	712	6	4	14	per	lib	low	mod	low	tg	ms	wh/0283.bmp
519.84	0.72	713	6	4	40	mem	lib	mod	mod	mod	tg	ht	wh/0358.bmp
520.56	0.72	714	5	4	109	per	con	low	mod	low	tg	ms	wh/0081.bmp
521.28	0.72	715	6	4	54	per	lib	mod	mod	mod	nt	cr	nh/0365_nh.bmp
522.00	0.72	716	1	2	7	mem	con	low	low	low	tg	ms	wh/0828.bmp
522.72	0.72	717	5	3	1	per	con	mod	mod	mod	nt	cr	nh/0895_nh.bmp
523.44	0.72	718	5	3	39	mem	lib	mod	mod	low	nt	ht	nh/0792_nh.bmp
524.16	0.72	719	5	1	104	mem	lib	mod	mod	low	nt	ht	nh/0988_nh.bmp
524.88	0.72	720	6	4	27	mem	con	mod	mod	low	nt	ht	nh/0523_nh.bmp
525.60	0.72	721	6	4	108	per	con	low	mod	low	nt	cr	nh/0166_nh.bmp
526.32	0.72	722	5	4	53	per	lib	mod	mod	mod	nt	fa	nh/0604_nh.bmp
527.04	0.72	723	5	4	33	mem	lib	mod	mod	mod	nt	ht	nh/0477_nh.bmp
527.76	0.72	724	6	4	18	mem	con	mod	mod	low	tg	ht	wh/0615.bmp
528.48	0.72	725	5	4	42	mem	lib	mod	mod	mod	nt	ht	nh/0861_nh.bmp
529.20	0.72	726	5	1	14	per	lib	mod	mod	mod	tg	ht	wh/0359.bmp
529.92	0.72	727	6	1	13	per	lib	mod	mod	mod	nt	fa	nh/0333_nh.bmp
530.64	0.72	728	5	1	99	mem	lib	mod	mod	low	tg	ht	wh/0203.bmp
531.36	0.72	729	5	1	78	mem	con	mod	mod	low	nt	ht	nh/0444_nh.bmp
532.08	0.72	730	1	3	21	mem	con	low	low	low	tg	ms	wh/0171.bmp
532.80	0.72	731	1	1	52	mem	con	low	low	mod	nt	ms	nh/0944_nh.bmp
533.52	0.72	732	4	1	75	mem	con	mod	mod	low	nt	ht	nh/0415_nh.bmp
534.24	0.72	733	6	2	98	mem	lib	mod	mod	mod	nt	ht	nh/0761_nh.bmp
534.96	0.72	734	1	3	73	mem	lib	low	low	low	nt	ht	nh/0264_nh.bmp
535.68	0.72	735	6	1	14	per	lib	mod	mod	mod	tg	ht	wh/0359.bmp
536.40	0.72	736	5	3	82	mem	con	mod	mod	mod	tg	ht	wh/0445.bmp
537.12	0.72	737	6	4	30	mem	con	mod	mod	low	nt	ht	nh/0390_nh.bmp
537.84	0.72	738	6	1	102	mem	lib	mod	mod	low	tg	ht	wh/0323.bmp
538.56	0.72	739	5	2	32	mem	con	mod	mod	mod	nt	ht	nh/0742_nh.bmp
539.28	0.72	740	6	1	35	per	lib	low	mod	low	nt	fa	nh/0212_nh.bmp
540.00	0.72	741	6	1	73	mem	con	mod	mod	low	tg	ms	wh/1013.bmp
540.72	0.72	742	6	2	60	per	con	mod	mod	mod	tg	ht	wh/0279.bmp
541.44	0.72	743	6	4	64	per	lib	mod	mod	mod	nt	cr	nh/0049_nh.bmp
542.16	0.72	744	4	4	12	per	lib	low	mod	low	nt	cr	nh/0703_nh.bmp
542.88	0.72	745	1	1	114	mem	lib	low	low	low	nt	ht	nh/0335_nh.bmp
543.60	0.72	746	6	2	48	per	con	low	mod	low	nt	cr	nh/0459_nh.bmp
544.32	0.72	747	1	3	79	mem	lib	low	low	low	tg	ms	wh/0310.bmp
545.04	0.72	748	4	2	44	per	con	low	mod	low	tg	ms	wh/0765.bmp
545.76	0.72	749	5	4	48	mem	lib	mod	mod	mod	tg	ht	wh/0344.bmp
546.48	0.72	750	5	3	7	per	con	mod	mod	mod	tg	ht	wh/0806.bmp
547.20	0.72	751	5	2	45	per	con	low	mod	low	tg	ms	wh/0554.bmp
547.92	0.72	752	6	3	40	mem	lib	mod	mod	low	tg	ht	wh/0067.bmp
548.64	0.72	753	6	2	40	per	con	low	mod	low	tg	ms	wh/0438.bmp
549.36	0.72	754	1	4	77	mem	lib	low	low	mod	tg	ht	wh/0304.bmp
550.08	0.72	755	5	4	12	per	lib	low	mod	low	nt	cr	nh/0703_nh.bmp
550.80	0.72	756	5	2	25	mem	con	mod	mod	mod	nt	ht	nh/0901_nh.bmp
551.52	0.72	757	5	1	45	per	lib	low	mod	low	tg	ht	wh/0671.bmp
552.24	0.72	758	6	1	72	mem	con	mod	mod	low	nt	ht	nh/0295_nh.bmp
552.96	0.72	759	4	1	34	per	lib	low	mod	low	nt	cr	nh/0496_nh.bmp
553.68	0.72	760	1	3	50	per	con	low	low	low	tg	ht	wh/0276.bmp
554.40	0.72	761	4	2	61	per	con	mod	mod	mod	tg	ms	wh/0645.bmp
555.12	0.72	762	6	3	43	mem	lib	mod	mod	low	nt	ht	nh/0512_nh.bmp
555.84	0.72	763	6	3	39	mem	lib	mod	mod	low	nt	ht	nh/0792_nh.bmp
556.56	0.72	764	5	2	41	per	con	low	mod	low	tg	ms	wh/0914.bmp
557.28	0.72	765	5	4	36	mem	lib	mod	mod	mod	tg	ht	wh/0759.bmp
558.00	0.72	766	4	4	6	per	lib	low	mod	low	nt	fa	nh/0132_nh.bmp
558.72	0.72	767	5	4	34	mem	lib	mod	mod	mod	nt	ht	nh/0039_nh.bmp
559.44	0.72	768	6	4	33	mem	lib	mod	mod	mod	nt	ht	nh/0477_nh.bmp
560.16	0.72	769	5	4	110	per	con	low	mod	low	nt	cr	nh/0030_nh.bmp
560.88	0.72	770	6	1	47	per	lib	low	mod	low	tg	ht	wh/0672.bmp
561.60	0.72	771	4	1	9	per	lib	mod	mod	mod	nt	cr	nh/0562_nh.bmp
562.32	0.72	772	6	3	3	per	con	mod	mod	mod	tg	ht	wh/0592.bmp
563.04	0.72	773	6	3	10	per	con	mod	mod	mod	nt	cr	nh/0664_nh.bmp
563.76	0.72	774	6	2	100	mem	lib	mod	mod	mod	tg	ht	wh/0583.bmp
564.48	0.72	775	6	2	45	per	con	low	mod	low	tg	ms	wh/0554.bmp
565.20	0.72	776	5	1	34	per	lib	low	mod	low	nt	cr	nh/0496_nh.bmp
565.92	0.72	777	1	4	69	mem	lib	low	low	mod	tg	ht	wh/0872.bmp
566.64	0.72	778	6	4	41	mem	lib	mod	mod	mod	nt	ht	nh/0809_nh.bmp
567.36	0.72	779	5	1	71	mem	con	mod	mod	low	tg	ht	wh/0494.bmp
568.08	0.72	780	6	4	42	mem	lib	mod	mod	mod	nt	ht	nh/0861_nh.bmp
568.80	0.72	781	5	1	106	mem	lib	mod	mod	low	tg	ht	wh/0368.bmp
569.52	0.72	782	5	1	75	mem	con	mod	mod	low	nt	ht	nh/0415_nh.bmp
570.24	0.72	783	6	2	32	mem	con	mod	mod	mod	nt	ht	nh/0742_nh.bmp
570.96	0.72	784	6	4	15	per	lib	low	mod	low	nt	cr	nh/0641_nh.bmp
571.68	0.72	785	5	1	41	per	lib	low	mod	low	nt	cr	nh/0882_nh.bmp
572.40	0.72	786	6	3	91	mem	con	mod	mod	mod	tg	ht	wh/0490.bmp
573.12	0.72	787	5	2	46	per	con	low	mod	low	nt	cr	nh/0293_nh.bmp
573.84	0.72	788	5	2	111	mem	lib	mod	mod	mod	nt	ht	nh/0983_nh.bmp
574.56	0.72	789	6	1	75	mem	con	mod	mod	low	nt	ht	nh/0415_nh.bmp
575.28	0.72	790	5	3	84	mem	con	mod	mod	mod	nt	ht	nh/0343_nh.bmp
576.00	0.72	791	6	4	34	mem	lib	mod	mod	mod	nt	ht	nh/0039_nh.bmp
576.72	0.72	792	1	1	95	per	con	low	low	low	tg	ms	wh/0160.bmp
577.44	0.72	793	6	2	111	mem	lib	mod	mod	mod	nt	ht	nh/0983_nh.bmp
578.16	0.72	794	6	2	102	mem	lib	mod	mod	mod	tg	ht	wh/0970.bmp
578.88	0.72	795	1	2	87	per	lib	mod	low	mod	nt	fa	nh/0723_nh.bmp
579.60	0.72	796	1	4	87	per	con	mod	low	mod	tg	ht	wh/0826.bmp
580.32	0.72	797	5	2	61	per	con	mod	mod	mod	tg	ms	wh/0645.bmp
581.04	0.72	798	5	3	48	mem	lib	mod	mod	low	nt	ht	nh/0976_nh.bmp
581.76	0.72	799	1	2	119	per	lib	low	low	low	tg	ms	wh/0505.bmp
582.48	0.72	800	5	2	109	mem	lib	mod	mod	mod	nt	ht	nh/0413_nh.bmp
583.20	0.72	801	1	3	109	per	lib	mod	low	mod	nt	cr	nh/0606_nh.bmp
583.92	0.72	802	6	1	45	per	lib	low	mod	low	tg	ht	wh/0671.bmp
584.64	0.72	803	5	4	61	per	lib	mod	mod	mod	tg	ht	wh/0072.bmp
585.36	0.72	804	5	2	52	per	con	mod	mod	mod	tg	ms	wh/0665.bmp
586.08	0.72	805	6	1	71	mem	con	mod	mod	low	tg	ht	wh/0494.bmp
586.80	0.72	806	6	2	25	mem	con	mod	mod	mod	nt	ht	nh/0901_nh.bmp
587.52	0.72	807	1	1	29	per	con	mod	low	mod	tg	ht	wh/0754.bmp
588.24	0.72	808	1	4	91	per	con	mod	low	mod	nt	cr	nh/0317_nh.bmp
588.96	0.72	809	6	2	109	mem	lib	mod	mod	mod	nt	ht	nh/0413_nh.bmp
589.68	0.72	810	6	2	62	per	con	mod	mod	mod	nt	cr	nh/0738_nh.bmp
590.40	0.72	811	6	4	61	per	lib	mod	mod	mod	tg	ht	wh/0072.bmp
591.12	0.72	812	1	3	52	per	con	low	low	low	tg	ms	wh/0243.bmp
591.84	0.72	813	6	4	47	mem	lib	mod	mod	mod	tg	ht	wh/0834.bmp
592.56	0.72	814	6	4	110	per	con	low	mod	low	nt	cr	nh/0030_nh.bmp
593.28	0.72	815	1	1	89	per	con	low	low	low	nt	cr	nh/0916_nh.bmp
594.00	0.72	816	1	1	59	mem	con	low	low	mod	tg	ms	wh/0719.bmp
594.72	0.72	817	6	3	89	mem	con	mod	mod	mod	tg	ht	wh/0753.bmp
595.44	0.72	818	6	1	78	mem	con	mod	mod	low	nt	ht	nh/0444_nh.bmp
596.16	0.72	819	6	1	41	per	lib	low	mod	low	nt	cr	nh/0882_nh.bmp
596.88	0.72	820	5	4	58	per	lib	mod	mod	mod	tg	ht	wh/0061.bmp
597.60	0.72	821	6	4	12	per	lib	low	mod	low	nt	cr	nh/0703_nh.bmp
598.32	0.72	822	6	4	58	per	lib	mod	mod	mod	tg	ht	wh/0061.bmp
599.04	0.72	823	6	4	36	mem	lib	mod	mod	mod	tg	ht	wh/0759.bmp
599.76	0.72	824	1	2	14	mem	con	low	low	low	nt	ms	nh/0245_nh.bmp
600.48	0.72	825	6	4	55	per	lib	mod	mod	mod	tg	ht	wh/0943.bmp
601.20	0.72	826	5	1	65	mem	con	mod	mod	low	tg	ms	wh/0791.bmp
601.92	0.72	827	6	3	48	mem	lib	mod	mod	low	nt	ht	nh/0976_nh.bmp
602.64	0.72	828	1	1	121	mem	lib	low	low	low	tg	ms	wh/0167.bmp
603.36	0.72	829	1	2	122	per	lib	low	low	low	nt	cr	nh/0184_nh.bmp
604.08	0.72	830	6	1	36	per	lib	low	mod	low	tg	ms	wh/0259.bmp
604.80	0.72	831	6	3	7	per	con	mod	mod	mod	tg	ht	wh/0806.bmp
605.52	0.72	832	1	3	100	per	lib	mod	low	mod	tg	ht	wh/0667.bmp
606.24	0.72	833	5	2	44	per	con	low	mod	low	tg	ms	wh/0765.bmp
606.96	0.72	834	6	2	44	per	con	low	mod	low	tg	ms	wh/0765.bmp
607.68	0.72	835	6	3	45	mem	lib	mod	mod	low	tg	ht	wh/0643.bmp
608.40	0.72	836	1	2	113	per	lib	low	low	low	nt	fa	nh/0011_nh.bmp
609.12	0.72	837	1	4	127	mem	con	low	low	mod	nt	ht	nh/0620_nh.bmp
609.84	0.72	838	5	1	40	per	lib	low	mod	low	tg	ht	wh/0422.bmp
610.56	0.72	839	1	1	62	mem	con	low	low	mod	tg	ht	wh/0886.bmp
611.28	0.72	840	6	4	23	mem	con	mod	mod	low	tg	ht	wh/0236.bmp
612.00	0.72	841	1	1	91	per	con	low	low	low	nt	cr	nh/0357_nh.bmp
612.72	0.72	842	1	2	81	per	lib	mod	low	mod	tg	ht	wh/0811.bmp
613.44	0.72	843	6	3	15	per	con	mod	mod	mod	tg	ht	wh/0479.bmp
614.16	0.72	844	6	1	40	per	lib	low	mod	low	tg	ht	wh/0422.bmp
614.88	0.72	845	6	3	82	mem	con	mod	mod	mod	tg	ht	wh/0445.bmp
615.60	0.72	846	6	1	108	mem	lib	mod	mod	low	nt	ht	nh/0124_nh.bmp
616.32	0.72	847	1	1	86	per	con	low	low	low	tg	ms	wh/0250.bmp
617.04	0.72	848	6	1	104	mem	lib	mod	mod	low	nt	ht	nh/0988_nh.bmp
617.76	0.72	849	1	4	90	per	con	mod	low	mod	nt	cr	nh/0937_nh.bmp
618.48	0.72	850	6	1	106	mem	lib	mod	mod	low	tg	ht	wh/0368.bmp
619.20	0.72	851	4	4	97	per	con	low	mod	low	tg	ms	wh/0509.bmp
619.92	0.72	852	5	4	51	per	lib	mod	mod	mod	nt	cr	nh/0931_nh.bmp
620.64	0.72	853	1	1	123	mem	lib	low	low	low	nt	ht	nh/0110_nh.bmp
621.36	0.72	854	6	1	110	mem	lib	mod	mod	low	nt	ht	nh/0511_nh.bmp
622.08	0.72	855	6	2	41	per	con	low	mod	low	tg	ms	wh/0914.bmp
622.80	0.72	856	1	3	63	per	con	low	low	low	nt	cr	nh/0824_nh.bmp
623.52	0.72	857	1	2	71	mem	lib	low	low	mod	nt	ht	nh/0913_nh.bmp
624.24	0.72	858	6	4	7	per	lib	low	mod	low	nt	cr	nh/0454_nh.bmp
624.96	0.72	859	1	2	1	mem	con	low	low	low	nt	ms	nh/0211_nh.bmp
625.68	0.72	860	6	4	48	mem	lib	mod	mod	mod	tg	ht	wh/0344.bmp
626.40	0.72	861	6	2	61	per	con	mod	mod	mod	tg	ms	wh/0645.bmp
627.12	0.72	862	6	1	15	per	lib	mod	mod	mod	nt	cr	nh/0799_nh.bmp
627.84	0.72	863	1	2	124	per	lib	low	low	low	nt	cr	nh/0471_nh.bmp
628.56	0.72	864	1	3	111	per	lib	mod	low	mod	nt	fa	nh/0346_nh.bmp
629.28	0.72	865	6	1	99	mem	lib	mod	mod	low	tg	ht	wh/0203.bmp
630.00	0.72	866	5	4	6	per	lib	low	mod	low	nt	fa	nh/0132_nh.bmp
630.72	0.72	867	6	4	51	per	lib	mod	mod	mod	nt	cr	nh/0931_nh.bmp
631.44	0.72	868	6	2	46	per	con	low	mod	low	nt	cr	nh/0293_nh.bmp
632.16	0.72	869	6	3	36	mem	lib	mod	mod	low	nt	ht	nh/0683_nh.bmp
632.88	0.72	870	6	4	53	per	lib	mod	mod	mod	nt	fa	nh/0604_nh.bmp
633.60	0.72	871	1	3	65	mem	lib	low	low	low	tg	ht	wh/0252.bmp
634.32	0.72	872	5	1	9	per	lib	mod	mod	mod	nt	cr	nh/0562_nh.bmp
635.04	0.72	873	6	4	26	mem	con	mod	mod	low	tg	ms	wh/0424.bmp
635.76	0.72	874	6	3	84	mem	con	mod	mod	mod	nt	ht	nh/0343_nh.bmp
636.48	0.72	875	6	1	9	per	lib	mod	mod	mod	nt	cr	nh/0562_nh.bmp
637.20	0.72	876	6	2	20	mem	con	mod	mod	mod	nt	ht	nh/0320_nh.bmp
637.92	0.72	877	5	4	97	per	con	low	mod	low	tg	ms	wh/0509.bmp
638.64	0.72	878	1	1	119	mem	lib	low	low	low	tg	ms	wh/0161.bmp
639.36	0.72	879	5	3	34	mem	lib	mod	mod	low	tg	ht	wh/0757.bmp
640.08	0.72	880	6	1	34	per	lib	low	mod	low	nt	cr	nh/0496_nh.bmp
640.80	0.72	881	6	3	96	mem	con	mod	mod	mod	nt	ht	nh/0538_nh.bmp
641.52	0.72	882	6	2	22	mem	con	mod	mod	mod	tg	ht	wh/1010.bmp
642.24	0.72	883	6	3	16	per	con	mod	mod	mod	tg	ht	wh/0689.bmp
642.96	0.72	884	6	3	87	mem	con	mod	mod	mod	nt	ht	nh/0705_nh.bmp
643.68	0.72	885	6	4	6	per	lib	low	mod	low	nt	fa	nh/0132_nh.bmp
644.40	0.72	886	6	2	52	per	con	mod	mod	mod	tg	ms	wh/0665.bmp
645.12	0.72	887	6	1	65	mem	con	mod	mod	low	tg	ms	wh/0791.bmp
645.84	0.72	888	6	2	29	mem	con	mod	mod	mod	tg	ht	wh/0576.bmp
646.56	0.72	889	6	4	109	per	con	low	mod	low	tg	ms	wh/0081.bmp
647.28	0.72	890	6	3	34	mem	lib	mod	mod	low	tg	ht	wh/0757.bmp
648.00	0.72	891	6	4	104	per	con	low	mod	low	nt	cr	nh/0410_nh.bmp
648.72	0.72	892	6	4	97	per	con	low	mod	low	tg	ms	wh/0509.bmp
649.44	0.72	893	6	4	111	per	con	low	mod	low	tg	ms	wh/0315.bmp
650.16	0.72	894	6	4	20	mem	con	mod	mod	low	tg	ht	wh/0798.bmp
650.88	0.72	895	6	3	1	per	con	mod	mod	mod	nt	cr	nh/0895_nh.bmp
651.60	0.72	896	1	4	117	mem	con	low	low	mod	tg	ms	wh/0085.bmp
