onset	duration	block	trial	task	crit	disc	mem_disc	per_disc	trial_type	mem_type	per_type	left_option	resp_hand	response	accuracy	response_time	stim_file	pay	pay_tot
7.2	7.2	1	n/a	mem	lib	low	n/a	n/a	instructions	n/a	n/a	n/a	n/a	n/a	n/a	n/a	n/a	n/a	n/a
14.72	1.03626	1	1	mem	lib	low	low	mod	tg	tg	tg	tg	left	tg	ht	0.63626	wh/0059.bmp	0.05	13.15
19.04	1.10352	1	2	mem	lib	low	low	mod	nt	nt	nt	tg	left	tg	fa	0.70352	nh/0951_nh.bmp	0	13.15
23.36	1.4449	1	3	mem	lib	low	low	mod	tg	tg	tg	nt	right	tg	ht	1.0449	wh/0598.bmp	0.05	13.2
27.68	1.33491	1	4	mem	lib	low	low	mod	tg	tg	nt	nt	right	tg	ht	0.93491	nh/0316_nh.bmp	0.05	13.25
30.56	1.1369	1	5	mem	lib	low	low	mod	tg	tg	tg	tg	left	tg	ht	0.7369	wh/0290.bmp	0.05	13.3
34.16	1.28377	1	6	mem	lib	low	low	mod	nt	nt	nt	tg	left	tg	fa	0.88377	nh/0418_nh.bmp	0	13.3
37.76	1.13896	1	7	mem	lib	low	low	mod	nt	nt	tg	tg	left	tg	fa	0.73896	wh/0308.bmp	0	13.3
41.36	1.3438	1	8	mem	lib	low	low	mod	nt	nt	nt	tg	left	tg	fa	0.9438	nh/0093_nh.bmp	0	13.3
45.68	1.2418	1	9	mem	lib	low	low	mod	tg	tg	nt	nt	right	tg	ht	0.8418	nh/0340_nh.bmp	0.05	13.35
49.28	1.04507	1	10	mem	lib	low	low	mod	nt	nt	tg	nt	right	tg	fa	0.64507	wh/0869.bmp	0	13.35
53.6	1.24879	1	11	mem	lib	low	low	mod	tg	tg	nt	nt	right	tg	ht	0.84879	nh/0708_nh.bmp	0.05	13.4
56.48	1.20889	1	12	mem	lib	low	low	mod	nt	nt	tg	tg	left	tg	fa	0.80889	wh/0779.bmp	0	13.4
59.36	1.02438	1	13	mem	lib	low	low	mod	tg	tg	tg	tg	left	tg	ht	0.62438	wh/0669.bmp	0.05	13.45
62.24	1.21689	1	14	mem	lib	low	low	mod	nt	nt	tg	tg	left	tg	fa	0.81689	wh/0953.bmp	0	13.45
66.56	1.5509	1	15	mem	lib	low	low	mod	tg	tg	nt	nt	left	nt	ms	1.1509	nh/0782_nh.bmp	-0.1	13.35
70.16	1.14779	1	16	mem	lib	low	low	mod	nt	nt	nt	tg	left	tg	fa	0.74779	nh/0188_nh.bmp	0	13.35
73.44	3.6	1	n/a	mem	lib	low	n/a	n/a	feedback	n/a	n/a	n/a	n/a	n/a	n/a	n/a	n/a	n/a	n/a
77.76	7.2	2	n/a	per	con	mod	n/a	n/a	instructions	n/a	n/a	n/a	n/a	n/a	n/a	n/a	n/a	n/a	n/a
85.28	0.94829	2	17	per	con	mod	mod	mod	nt	tg	nt	tg	right	nt	cr	0.54829	nh/0803_nh.bmp	0.05	13.4
88.88	1.08645	2	18	per	con	mod	mod	mod	tg	tg	tg	nt	right	tg	ht	0.68645	wh/0540.bmp	0.05	13.45
93.2	1.06462	2	19	per	con	mod	mod	mod	tg	tg	tg	tg	left	tg	ht	0.66462	wh/0772.bmp	0.05	13.5
96.08	1.12377	2	20	per	con	mod	mod	mod	tg	nt	tg	nt	right	tg	ht	0.72377	wh/0715.bmp	0.05	13.55
98.96	0.96092	2	21	per	con	mod	mod	mod	tg	tg	tg	nt	right	tg	ht	0.56092	wh/0716.bmp	0.05	13.6
101.84	0.94887	2	22	per	con	mod	mod	mod	nt	nt	nt	nt	left	nt	cr	0.54887	nh/0269_nh.bmp	0.05	13.65
105.44	1.02128	2	23	per	con	mod	mod	mod	tg	nt	tg	tg	left	tg	ht	0.62128	wh/0764.bmp	0.05	13.7
108.32	1.01422	2	24	per	con	mod	mod	mod	nt	nt	nt	nt	left	nt	cr	0.61422	nh/0602_nh.bmp	0.05	13.75
111.2	1.12883	2	25	per	con	mod	mod	mod	tg	nt	tg	tg	left	tg	ht	0.72883	wh/0495.bmp	0.05	13.8
115.52	1.27289	2	26	per	con	mod	mod	mod	tg	nt	tg	nt	right	tg	ht	0.87289	wh/0851.bmp	0.05	13.85
118.4	0.99462	2	27	per	con	mod	mod	mod	nt	nt	nt	nt	left	nt	cr	0.59462	nh/0871_nh.bmp	0.05	13.9
121.28	1.26688	2	28	per	con	mod	mod	mod	nt	tg	nt	tg	right	nt	cr	0.86688	nh/0909_nh.bmp	0.05	13.95
124.88	1.04841	2	29	per	con	mod	mod	mod	nt	nt	nt	nt	right	tg	fa	0.64841	nh/0609_nh.bmp	-0.1	13.85
127.76	1.01241	2	30	per	con	mod	mod	mod	tg	tg	tg	nt	right	tg	ht	0.61241	wh/0807.bmp	0.05	13.9
132.08	2.56	2	31	per	con	mod	mod	mod	nt	tg	nt	nt	n/a	err	n/a	n/a	nh/0928_nh.bmp	0	13.9
134.96	1.04772	2	32	per	con	mod	mod	mod	nt	tg	nt	tg	right	nt	cr	0.64772	nh/0371_nh.bmp	0.05	13.95
138.96	3.6	2	n/a	per	con	mod	n/a	n/a	feedback	n/a	n/a	n/a	n/a	n/a	n/a	n/a	n/a	n/a	n/a
142.56	7.2	3	n/a	per	lib	mod	n/a	n/a	instructions	n/a	n/a	n/a	n/a	n/a	n/a	n/a	n/a	n/a	n/a
150.8	0.99316	3	33	per	lib	mod	low	mod	nt	nt	nt	tg	right	nt	cr	0.59316	nh/0837_nh.bmp	0.05	14
154.4	1.09783	3	34	per	lib	mod	low	mod	tg	nt	tg	nt	right	tg	ht	0.69783	wh/0907.bmp	0.05	14.05
158.72	1.06137	3	35	per	lib	mod	low	mod	tg	tg	tg	nt	right	tg	ht	0.66137	wh/0530.bmp	0.05	14.1
162.32	1.5889	3	36	per	lib	mod	low	mod	nt	tg	nt	nt	right	tg	fa	1.1889	nh/0936_nh.bmp	0	14.1
165.2	1.28291	3	37	per	lib	mod	low	mod	nt	tg	nt	tg	left	tg	fa	0.88291	nh/0531_nh.bmp	0	14.1
168.08	1.27287	3	38	per	lib	mod	low	mod	tg	tg	tg	nt	right	tg	ht	0.87287	wh/0581.bmp	0.05	14.15
172.4	1.13589	3	39	per	lib	mod	low	mod	tg	nt	tg	nt	right	tg	ht	0.73589	wh/0180.bmp	0.05	14.2
176.72	1.23088	3	40	per	lib	mod	low	mod	tg	tg	tg	tg	left	tg	ht	0.83088	wh/0584.bmp	0.05	14.25
179.6	1.03034	3	41	per	lib	mod	low	mod	tg	nt	tg	nt	right	tg	ht	0.63034	wh/0545.bmp	0.05	14.3
182.48	1.08519	3	42	per	lib	mod	low	mod	nt	tg	nt	tg	right	nt	cr	0.68519	nh/0966_nh.bmp	0.05	14.35
185.36	1.19786	3	43	per	lib	mod	low	mod	nt	tg	nt	nt	right	tg	fa	0.79786	nh/0787_nh.bmp	0	14.35
188.24	1.04853	3	44	per	lib	mod	low	mod	tg	tg	tg	tg	left	tg	ht	0.64853	wh/0860.bmp	0.05	14.4
191.12	1.405	3	45	per	lib	mod	low	mod	nt	nt	nt	nt	left	nt	cr	1.005	nh/0016_nh.bmp	0.05	14.45
194.72	1.8409	3	46	per	lib	mod	low	mod	nt	nt	nt	nt	right	tg	fa	1.4409	nh/0207_nh.bmp	0	14.45
197.6	1.05051	3	47	per	lib	mod	low	mod	nt	nt	nt	tg	right	nt	cr	0.65051	nh/0948_nh.bmp	0.05	14.5
200.48	1.06715	3	48	per	lib	mod	low	mod	tg	nt	tg	tg	left	tg	ht	0.66715	wh/0749.bmp	0.05	14.55
203.04	3.6	3	n/a	per	lib	mod	n/a	n/a	feedback	n/a	n/a	n/a	n/a	n/a	n/a	n/a	n/a	n/a	n/a
207.36	7.2	4	n/a	per	con	low	n/a	n/a	instructions	n/a	n/a	n/a	n/a	n/a	n/a	n/a	n/a	n/a	n/a
216.32	1.23889	4	49	per	con	low	low	low	tg	nt	tg	nt	left	nt	ms	0.83889	wh/0929.bmp	0	14.55
220.64	1.21993	4	50	per	con	low	low	low	tg	tg	tg	tg	right	nt	ms	0.81993	wh/0090.bmp	0	14.55
223.52	1.07821	4	51	per	con	low	low	low	tg	tg	tg	tg	right	nt	ms	0.67821	wh/0053.bmp	0	14.55
227.12	1.30375	4	52	per	con	low	low	low	tg	nt	tg	nt	right	tg	ht	0.90375	wh/0880.bmp	0.05	14.6
231.44	1.0272	4	53	per	con	low	low	low	nt	nt	nt	tg	right	nt	cr	0.6272	nh/0244_nh.bmp	0.05	14.65
235.04	1.22879	4	54	per	con	low	low	low	nt	tg	nt	nt	left	nt	cr	0.82879	nh/0088_nh.bmp	0.05	14.7
238.64	1.4649	4	55	per	con	low	low	low	tg	tg	tg	nt	left	nt	ms	1.0649	wh/0197.bmp	0	14.7
242.96	1.10298	4	56	per	con	low	low	low	nt	nt	nt	nt	left	nt	cr	0.70298	nh/0617_nh.bmp	0.05	14.75
247.28	1.07702	4	57	per	con	low	low	low	tg	tg	tg	nt	left	nt	ms	0.67702	wh/0711.bmp	0	14.75
250.16	1.3599	4	58	per	con	low	low	low	nt	tg	nt	nt	right	tg	fa	0.9599	nh/1009_nh.bmp	-0.1	14.65
253.04	0.99102	4	59	per	con	low	low	low	nt	nt	nt	tg	right	nt	cr	0.59102	nh/0045_nh.bmp	0.05	14.7
257.36	1.00673	4	60	per	con	low	low	low	nt	tg	nt	tg	right	nt	cr	0.60673	nh/0292_nh.bmp	0.05	14.75
260.24	1.21576	4	61	per	con	low	low	low	nt	nt	nt	tg	right	nt	cr	0.81576	nh/0063_nh.bmp	0.05	14.8
263.12	1.8009	4	62	per	con	low	low	low	tg	nt	tg	nt	left	nt	ms	1.4009	wh/0570.bmp	0	14.8
266.72	1.8958	4	63	per	con	low	low	low	nt	tg	nt	nt	left	nt	cr	1.4958	nh/0831_nh.bmp	0.05	14.85
270.32	1.5308	4	64	per	con	low	low	low	tg	nt	tg	nt	left	nt	ms	1.1308	wh/0280.bmp	0	14.85
273.6	3.6	4	n/a	per	con	low	n/a	n/a	feedback	n/a	n/a	n/a	n/a	n/a	n/a	n/a	n/a	n/a	n/a
277.2	7.2	5	n/a	mem	lib	mod	n/a	n/a	instructions	n/a	n/a	n/a	n/a	n/a	n/a	n/a	n/a	n/a	n/a
286.16	1.35495	5	65	mem	lib	mod	mod	low	nt	nt	nt	nt	right	tg	fa	0.95495	nh/0986_nh.bmp	0	14.85
290.48	1.24292	5	66	mem	lib	mod	mod	low	tg	tg	tg	tg	left	tg	ht	0.84292	wh/0489.bmp	0.05	14.9
294.08	1.5099	5	67	mem	lib	mod	mod	low	tg	tg	tg	nt	right	tg	ht	1.1099	wh/0893.bmp	0.05	14.95
296.96	1.4218	5	68	mem	lib	mod	mod	low	nt	nt	nt	nt	left	nt	cr	1.0218	nh/1019_nh.bmp	0.05	15
299.84	1.2188	5	69	mem	lib	mod	mod	low	tg	tg	nt	nt	right	tg	ht	0.8188	nh/0503_nh.bmp	0.05	15.05
304.16	1.0458	5	70	mem	lib	mod	mod	low	tg	tg	tg	nt	right	tg	ht	0.6458	wh/0619.bmp	0.05	15.1
307.04	1.6509	5	71	mem	lib	mod	mod	low	nt	nt	tg	nt	right	tg	fa	1.2509	wh/0023.bmp	0	15.1
309.92	1.39895	5	72	mem	lib	mod	mod	low	nt	nt	tg	nt	right	tg	fa	0.99895	wh/0678.bmp	0	15.1
314.24	0.99662	5	73	mem	lib	mod	mod	low	tg	tg	nt	nt	right	tg	ht	0.59662	nh/0577_nh.bmp	0.05	15.15
317.12	0.92451	5	74	mem	lib	mod	mod	low	tg	tg	nt	nt	right	tg	ht	0.52451	nh/0508_nh.bmp	0.05	15.2
321.44	1.3849	5	75	mem	lib	mod	mod	low	nt	nt	tg	tg	left	tg	fa	0.9849	wh/0018.bmp	0	15.2
324.32	2.0598	5	76	mem	lib	mod	mod	low	nt	nt	tg	nt	right	tg	fa	1.6598	wh/0618.bmp	0	15.2
327.2	1.04347	5	77	mem	lib	mod	mod	low	nt	nt	nt	tg	left	tg	fa	0.64347	nh/0170_nh.bmp	0	15.2
331.52	1.33677	5	78	mem	lib	mod	mod	low	tg	tg	tg	nt	right	tg	ht	0.93677	wh/0029.bmp	0.05	15.25
334.4	1.24489	5	79	mem	lib	mod	mod	low	nt	nt	nt	tg	right	nt	cr	0.84489	nh/0892_nh.bmp	0.05	15.3
337.28	1.36791	5	80	mem	lib	mod	mod	low	tg	tg	nt	nt	right	tg	ht	0.96791	nh/0568_nh.bmp	0.05	15.35
340.56	3.6	5	n/a	mem	lib	mod	n/a	n/a	feedback	n/a	n/a	n/a	n/a	n/a	n/a	n/a	n/a	n/a	n/a
344.88	7.2	6	n/a	mem	con	low	n/a	n/a	instructions	n/a	n/a	n/a	n/a	n/a	n/a	n/a	n/a	n/a	n/a
352.4	1.8128	6	81	mem	con	low	low	low	tg	tg	tg	nt	left	nt	ms	1.4128	wh/0999.bmp	0	15.35
356	1.20276	6	82	mem	con	low	low	low	nt	nt	tg	nt	left	nt	cr	0.80276	wh/0138.bmp	0.05	15.4
360.32	1.39378	6	83	mem	con	low	low	low	nt	nt	nt	tg	right	nt	cr	0.99378	nh/0676_nh.bmp	0.05	15.45
364.64	1.02999	6	84	mem	con	low	low	low	tg	tg	tg	nt	right	tg	ht	0.62999	wh/0112.bmp	0.05	15.5
367.52	1.20475	6	85	mem	con	low	low	low	nt	nt	tg	nt	left	nt	cr	0.80475	wh/0677.bmp	0.05	15.55
371.84	1.6249	6	86	mem	con	low	low	low	nt	nt	nt	tg	left	tg	fa	1.2249	nh/0360_nh.bmp	-0.1	15.45
374.72	1.17786	6	87	mem	con	low	low	low	tg	tg	tg	tg	left	tg	ht	0.77786	wh/1007.bmp	0.05	15.5
378.32	1.4748	6	88	mem	con	low	low	low	nt	nt	nt	nt	left	nt	cr	1.0748	nh/0842_nh.bmp	0.05	15.55
381.2	1.4049	6	89	mem	con	low	low	low	nt	nt	tg	nt	left	nt	cr	1.0049	wh/0825.bmp	0.05	15.6
385.52	1.4337	6	90	mem	con	low	low	low	nt	nt	nt	nt	left	nt	cr	1.0337	nh/0859_nh.bmp	0.05	15.65
389.12	1.13093	6	91	mem	con	low	low	low	nt	nt	tg	nt	left	nt	cr	0.73093	wh/0175.bmp	0.05	15.7
392	1.14076	6	92	mem	con	low	low	low	tg	tg	tg	nt	right	tg	ht	0.74076	wh/0431.bmp	0.05	15.75
396.32	1.06977	6	93	mem	con	low	low	low	tg	tg	nt	nt	left	nt	ms	0.66977	nh/0215_nh.bmp	0	15.75
399.2	1.7879	6	94	mem	con	low	low	low	tg	tg	nt	tg	right	nt	ms	1.3879	nh/0488_nh.bmp	0	15.75
402.8	1.4599	6	95	mem	con	low	low	low	tg	tg	nt	nt	left	nt	ms	1.0599	nh/0148_nh.bmp	0	15.75
407.12	1.8449	6	96	mem	con	low	low	low	tg	tg	nt	nt	left	nt	ms	1.4449	nh/0528_nh.bmp	0	15.75
410.4	3.6	6	n/a	mem	con	low	n/a	n/a	feedback	n/a	n/a	n/a	n/a	n/a	n/a	n/a	n/a	n/a	n/a
414	7.2	7	n/a	per	lib	low	n/a	n/a	instructions	n/a	n/a	n/a	n/a	n/a	n/a	n/a	n/a	n/a	n/a
422.96	1.10087	7	97	per	lib	low	low	low	tg	nt	tg	nt	right	tg	ht	0.70087	wh/0566.bmp	0.05	15.8
427.28	1.21371	7	98	per	lib	low	low	low	nt	tg	nt	nt	left	nt	cr	0.81371	nh/0768_nh.bmp	0.05	15.85
430.88	1.2149	7	99	per	lib	low	low	low	tg	tg	tg	tg	left	tg	ht	0.8149	wh/0845.bmp	0.05	15.9
435.2	1.09588	7	100	per	lib	low	low	low	nt	nt	nt	tg	left	tg	fa	0.69588	nh/0352_nh.bmp	0	15.9
438.08	1.00091	7	101	per	lib	low	low	low	nt	tg	nt	tg	left	tg	fa	0.60091	nh/0261_nh.bmp	0	15.9
440.96	1.39094	7	102	per	lib	low	low	low	nt	tg	nt	nt	right	tg	fa	0.99094	nh/0055_nh.bmp	0	15.9
443.84	1.10279	7	103	per	lib	low	low	low	nt	nt	nt	tg	left	tg	fa	0.70279	nh/0376_nh.bmp	0	15.9
446.72	1.23283	7	104	per	lib	low	low	low	tg	nt	tg	tg	right	nt	ms	0.83283	wh/0268.bmp	-0.1	15.8
451.04	1.5677	7	105	per	lib	low	low	low	tg	nt	tg	nt	left	nt	ms	1.1677	wh/0260.bmp	-0.1	15.7
453.92	1.15884	7	106	per	lib	low	low	low	tg	tg	tg	tg	right	nt	ms	0.75884	wh/0458.bmp	-0.1	15.6
457.52	1.09602	7	107	per	lib	low	low	low	nt	nt	nt	nt	right	tg	fa	0.69602	nh/0767_nh.bmp	0	15.6
460.4	1.1969	7	108	per	lib	low	low	low	nt	nt	nt	nt	left	nt	cr	0.7969	nh/0480_nh.bmp	0.05	15.65
463.28	1.20885	7	109	per	lib	low	low	low	nt	tg	nt	nt	left	nt	cr	0.80885	nh/0433_nh.bmp	0.05	15.7
466.16	1.20774	7	110	per	lib	low	low	low	tg	tg	tg	tg	left	tg	ht	0.80774	wh/0706.bmp	0.05	15.75
469.76	1.26095	7	111	per	lib	low	low	low	tg	tg	tg	nt	right	tg	ht	0.86095	wh/0513.bmp	0.05	15.8
474.08	1.04018	7	112	per	lib	low	low	low	tg	nt	tg	tg	left	tg	ht	0.64018	wh/0135.bmp	0.05	15.85
477.36	3.6	7	n/a	per	lib	low	n/a	n/a	feedback	n/a	n/a	n/a	n/a	n/a	n/a	n/a	n/a	n/a	n/a
481.68	7.2	8	n/a	mem	con	mod	n/a	n/a	instructions	n/a	n/a	n/a	n/a	n/a	n/a	n/a	n/a	n/a	n/a
489.2	1.5599	8	113	mem	con	mod	mod	mod	nt	nt	nt	nt	left	nt	cr	1.1599	nh/0549_nh.bmp	0.05	15.9
492.08	1.8018	8	114	mem	con	mod	mod	mod	tg	tg	tg	tg	right	nt	ms	1.4018	wh/0339.bmp	0	15.9
494.96	1.19392	8	115	mem	con	mod	mod	mod	nt	nt	nt	tg	right	nt	cr	0.79392	nh/0971_nh.bmp	0.05	15.95
497.84	1.03434	8	116	mem	con	mod	mod	mod	tg	tg	tg	tg	left	tg	ht	0.63434	wh/0350.bmp	0.05	16
500.72	1.4349	8	117	mem	con	mod	mod	mod	nt	nt	nt	nt	left	nt	cr	1.0349	nh/0436_nh.bmp	0.05	16.05
504.32	1.3107	8	118	mem	con	mod	mod	mod	nt	nt	tg	tg	right	nt	cr	0.9107	wh/0056.bmp	0.05	16.1
507.2	1.37079	8	119	mem	con	mod	mod	mod	tg	tg	tg	nt	left	nt	ms	0.97079	wh/0558.bmp	0	16.1
510.8	1.4549	8	120	mem	con	mod	mod	mod	tg	tg	nt	tg	right	nt	ms	1.0549	nh/0962_nh.bmp	0	16.1
513.68	1.15475	8	121	mem	con	mod	mod	mod	nt	nt	tg	nt	right	tg	fa	0.75475	wh/0366.bmp	-0.1	16
516.56	1.4259	8	122	mem	con	mod	mod	mod	nt	nt	tg	tg	right	nt	cr	1.0259	wh/0179.bmp	0.05	16.05
519.44	1.7068	8	123	mem	con	mod	mod	mod	tg	tg	nt	nt	left	nt	ms	1.3068	nh/0946_nh.bmp	0	16.05
522.32	1.4648	8	124	mem	con	mod	mod	mod	nt	nt	nt	nt	left	nt	cr	1.0648	nh/0822_nh.bmp	0.05	16.1
525.92	1.2829	8	125	mem	con	mod	mod	mod	tg	tg	tg	tg	left	tg	ht	0.8829	wh/0593.bmp	0.05	16.15
529.52	1.8148	8	126	mem	con	mod	mod	mod	tg	tg	nt	tg	right	nt	ms	1.4148	nh/0748_nh.bmp	0	16.15
533.84	1.4287	8	127	mem	con	mod	mod	mod	nt	nt	tg	nt	left	nt	cr	1.0287	wh/0629.bmp	0.05	16.2
536.72	1.21797	8	128	mem	con	mod	mod	mod	tg	tg	nt	nt	right	tg	ht	0.81797	nh/0957_nh.bmp	0.05	16.25
539.28	3.6	8	n/a	mem	con	mod	n/a	n/a	feedback	n/a	n/a	n/a	n/a	n/a	n/a	n/a	n/a	n/a	n/a
