onset	duration	block	trial	task	crit	disc	mem_disc	per_disc	trial_type	mem_type	per_type	left_option	resp_hand	response	accuracy	response_time	stim_file	pay	pay_tot
7.2	7.2	1	n/a	mem	lib	low	n/a	n/a	instructions	n/a	n/a	n/a	n/a	n/a	n/a	n/a	n/a	n/a	n/a
15.44	0.87485	1	1	mem	lib	low	low	low	tg	tg	tg	tg	right	nt	ms	0.47485	wh/0202.bmp	-0.1	19.2
19.76	0.86654	1	2	mem	lib	low	low	low	tg	tg	nt	nt	right	tg	ht	0.46654	nh/0587_nh.bmp	0.05	19.25
22.64	0.98893	1	3	mem	lib	low	low	low	tg	tg	nt	nt	right	tg	ht	0.58893	nh/0506_nh.bmp	0.05	19.3
25.52	0.85986	1	4	mem	lib	low	low	low	tg	tg	tg	tg	left	tg	ht	0.45986	wh/1011.bmp	0.05	19.35
29.84	0.92562	1	5	mem	lib	low	low	low	nt	nt	nt	nt	right	tg	fa	0.52562	nh/0655_nh.bmp	0	19.35
32.72	0.9698	1	6	mem	lib	low	low	low	nt	nt	tg	tg	left	tg	fa	0.5698	wh/0223.bmp	0	19.35
37.04	1.32091	1	7	mem	lib	low	low	low	tg	tg	nt	tg	left	tg	ht	0.92091	nh/0089_nh.bmp	0.05	19.4
39.92	1.20686	1	8	mem	lib	low	low	low	nt	nt	tg	tg	left	tg	fa	0.80686	wh/0536.bmp	0	19.4
42.8	1.05889	1	9	mem	lib	low	low	low	tg	tg	nt	tg	left	tg	ht	0.65889	nh/0147_nh.bmp	0.05	19.45
45.68	1.0465	1	10	mem	lib	low	low	low	nt	nt	nt	tg	right	nt	cr	0.6465	nh/0439_nh.bmp	0.05	19.5
48.56	0.91118	1	11	mem	lib	low	low	low	nt	nt	nt	nt	right	tg	fa	0.51118	nh/0266_nh.bmp	0	19.5
52.88	1.23987	1	12	mem	lib	low	low	low	nt	nt	nt	nt	right	tg	fa	0.83987	nh/0158_nh.bmp	0	19.5
55.76	1.17992	1	13	mem	lib	low	low	low	tg	tg	tg	nt	right	tg	ht	0.77992	wh/0226.bmp	0.05	19.55
60.08	0.90633	1	14	mem	lib	low	low	low	nt	nt	tg	nt	right	tg	fa	0.50633	wh/0237.bmp	0	19.55
63.68	0.91247	1	15	mem	lib	low	low	low	tg	tg	tg	nt	right	tg	ht	0.51247	wh/0058.bmp	0.05	19.6
66.56	1.09309	1	16	mem	lib	low	low	low	nt	nt	tg	nt	right	tg	fa	0.69309	wh/0691.bmp	0	19.6
69.12	3.6	1	n/a	mem	lib	low	n/a	n/a	feedback	n/a	n/a	n/a	n/a	n/a	n/a	n/a	n/a	n/a	n/a
73.44	7.2	2	n/a	per	con	mod	n/a	n/a	instructions	n/a	n/a	n/a	n/a	n/a	n/a	n/a	n/a	n/a	n/a
80.96	1.24064	2	17	per	con	mod	mod	mod	tg	nt	tg	tg	right	nt	ms	0.84064	wh/0222.bmp	0	19.6
83.84	1.24473	2	18	per	con	mod	mod	mod	nt	nt	nt	nt	right	tg	fa	0.84473	nh/0187_nh.bmp	-0.1	19.5
88.16	0.99965	2	19	per	con	mod	mod	mod	tg	tg	tg	nt	right	tg	ht	0.59965	wh/0778.bmp	0.05	19.55
92.48	0.98636	2	20	per	con	mod	mod	mod	tg	tg	tg	tg	left	tg	ht	0.58636	wh/0735.bmp	0.05	19.6
96.8	1.26175	2	21	per	con	mod	mod	mod	tg	tg	tg	nt	left	nt	ms	0.86175	wh/0399.bmp	0	19.6
99.68	0.9498	2	22	per	con	mod	mod	mod	tg	nt	tg	tg	right	nt	ms	0.5498	wh/0941.bmp	0	19.6
102.56	0.90924	2	23	per	con	mod	mod	mod	nt	nt	nt	nt	left	nt	cr	0.50924	nh/0094_nh.bmp	0.05	19.65
105.44	1.4369	2	24	per	con	mod	mod	mod	nt	nt	nt	tg	left	tg	fa	1.0369	nh/0319_nh.bmp	-0.1	19.55
108.32	1.18287	2	25	per	con	mod	mod	mod	nt	tg	nt	nt	left	nt	cr	0.78287	nh/0564_nh.bmp	0.05	19.6
111.2	0.9049	2	26	per	con	mod	mod	mod	tg	nt	tg	nt	right	tg	ht	0.5049	wh/0874.bmp	0.05	19.65
114.8	1.6778	2	27	per	con	mod	mod	mod	nt	tg	nt	tg	left	tg	fa	1.2778	nh/0086_nh.bmp	-0.1	19.55
117.68	1.33175	2	28	per	con	mod	mod	mod	nt	tg	nt	tg	right	nt	cr	0.93175	nh/0318_nh.bmp	0.05	19.6
122	1.23998	2	29	per	con	mod	mod	mod	tg	nt	tg	tg	left	tg	ht	0.83998	wh/0199.bmp	0.05	19.65
125.6	1.19488	2	30	per	con	mod	mod	mod	nt	nt	nt	nt	left	nt	cr	0.79488	nh/0855_nh.bmp	0.05	19.7
129.2	1.30079	2	31	per	con	mod	mod	mod	tg	tg	tg	tg	left	tg	ht	0.90079	wh/0385.bmp	0.05	19.75
132.8	1.6079	2	32	per	con	mod	mod	mod	nt	tg	nt	tg	right	nt	cr	1.2079	nh/0835_nh.bmp	0.05	19.8
135.36	3.6	2	n/a	per	con	mod	n/a	n/a	feedback	n/a	n/a	n/a	n/a	n/a	n/a	n/a	n/a	n/a	n/a
138.96	7.2	3	n/a	mem	lib	mod	n/a	n/a	instructions	n/a	n/a	n/a	n/a	n/a	n/a	n/a	n/a	n/a	n/a
146.48	0.97656	3	33	mem	lib	mod	mod	low	tg	tg	tg	nt	right	tg	ht	0.57656	wh/0521.bmp	0.05	19.85
150.8	1.03636	3	34	mem	lib	mod	mod	low	tg	tg	tg	tg	left	tg	ht	0.63636	wh/0450.bmp	0.05	19.9
154.4	1.1449	3	35	mem	lib	mod	mod	low	tg	tg	nt	nt	left	nt	ms	0.7449	nh/0255_nh.bmp	-0.1	19.8
157.28	1.12282	3	36	mem	lib	mod	mod	low	tg	tg	nt	nt	left	nt	ms	0.72282	nh/0848_nh.bmp	-0.1	19.7
160.88	0.78935	3	37	mem	lib	mod	mod	low	nt	nt	tg	nt	right	tg	fa	0.38935	wh/0123.bmp	0	19.7
163.76	1.4028	3	38	mem	lib	mod	mod	low	tg	tg	tg	tg	right	nt	ms	1.0028	wh/0388.bmp	-0.1	19.6
166.64	1.4907	3	39	mem	lib	mod	mod	low	nt	nt	nt	nt	left	nt	cr	1.0907	nh/0082_nh.bmp	0.05	19.65
169.52	0.92691	3	40	mem	lib	mod	mod	low	tg	tg	tg	tg	left	tg	ht	0.52691	wh/0172.bmp	0.05	19.7
173.84	1.36393	3	41	mem	lib	mod	mod	low	nt	nt	nt	tg	right	nt	cr	0.96393	nh/0635_nh.bmp	0.05	19.75
176.72	0.8626	3	42	mem	lib	mod	mod	low	tg	tg	nt	tg	left	tg	ht	0.4626	nh/0042_nh.bmp	0.05	19.8
180.32	1.08674	3	43	mem	lib	mod	mod	low	nt	nt	nt	tg	left	tg	fa	0.68674	nh/0608_nh.bmp	0	19.8
184.64	0.93547	3	44	mem	lib	mod	mod	low	tg	tg	nt	nt	right	tg	ht	0.53547	nh/0939_nh.bmp	0.05	19.85
188.96	1.19188	3	45	mem	lib	mod	mod	low	nt	nt	tg	tg	left	tg	fa	0.79188	wh/1023.bmp	0	19.85
191.84	1.09996	3	46	mem	lib	mod	mod	low	nt	nt	tg	tg	left	tg	fa	0.69996	wh/0934.bmp	0	19.85
194.72	0.96798	3	47	mem	lib	mod	mod	low	nt	nt	nt	tg	left	tg	fa	0.56798	nh/0964_nh.bmp	0	19.85
197.6	1.25889	3	48	mem	lib	mod	mod	low	nt	nt	tg	nt	left	nt	cr	0.85889	wh/0493.bmp	0.05	19.9
201.6	3.6	3	n/a	mem	lib	mod	n/a	n/a	feedback	n/a	n/a	n/a	n/a	n/a	n/a	n/a	n/a	n/a	n/a
206.64	7.2	4	n/a	per	con	low	n/a	n/a	instructions	n/a	n/a	n/a	n/a	n/a	n/a	n/a	n/a	n/a	n/a
214.88	1.36481	4	49	per	con	low	low	low	tg	tg	tg	tg	left	tg	ht	0.96481	wh/0154.bmp	0.05	19.95
217.76	1.17491	4	50	per	con	low	low	low	tg	nt	tg	nt	left	nt	ms	0.77491	wh/0804.bmp	0	19.95
222.08	1.0139	4	51	per	con	low	low	low	tg	nt	tg	tg	right	nt	ms	0.6139	wh/0384.bmp	0	19.95
225.68	1.37194	4	52	per	con	low	low	low	nt	nt	nt	nt	left	nt	cr	0.97194	nh/0823_nh.bmp	0.05	20
229.28	0.93694	4	53	per	con	low	low	low	tg	nt	tg	tg	right	nt	ms	0.53694	wh/0956.bmp	0	20
233.6	1.12667	4	54	per	con	low	low	low	nt	nt	nt	tg	right	nt	cr	0.72667	nh/0507_nh.bmp	0.05	20.05
236.48	1.04908	4	55	per	con	low	low	low	tg	tg	tg	tg	right	nt	ms	0.64908	wh/1015.bmp	0	20.05
240.08	1.08224	4	56	per	con	low	low	low	nt	tg	nt	nt	left	nt	cr	0.68224	nh/0468_nh.bmp	0.05	20.1
243.68	1.20091	4	57	per	con	low	low	low	tg	tg	tg	tg	right	nt	ms	0.80091	wh/0482.bmp	0	20.1
246.56	0.97602	4	58	per	con	low	low	low	nt	tg	nt	tg	right	nt	cr	0.57602	nh/0136_nh.bmp	0.05	20.15
249.44	0.97372	4	59	per	con	low	low	low	nt	tg	nt	nt	left	nt	cr	0.57372	nh/0285_nh.bmp	0.05	20.2
253.76	1.10088	4	60	per	con	low	low	low	tg	nt	tg	nt	left	nt	ms	0.70088	wh/0812.bmp	0	20.2
258.08	1.10368	4	61	per	con	low	low	low	nt	nt	nt	nt	left	nt	cr	0.70368	nh/0633_nh.bmp	0.05	20.25
261.68	0.9898	4	62	per	con	low	low	low	nt	nt	nt	nt	left	nt	cr	0.5898	nh/0998_nh.bmp	0.05	20.3
266	1.04064	4	63	per	con	low	low	low	nt	tg	nt	nt	left	nt	cr	0.64064	nh/0865_nh.bmp	0.05	20.35
268.88	1.29783	4	64	per	con	low	low	low	tg	tg	tg	tg	right	nt	ms	0.89783	wh/0258.bmp	0	20.35
271.44	3.6	4	n/a	per	con	low	n/a	n/a	feedback	n/a	n/a	n/a	n/a	n/a	n/a	n/a	n/a	n/a	n/a
275.04	7.2	5	n/a	per	lib	low	n/a	n/a	instructions	n/a	n/a	n/a	n/a	n/a	n/a	n/a	n/a	n/a	n/a
284	1.4139	5	65	per	lib	low	low	low	tg	nt	tg	nt	left	nt	ms	1.0139	wh/0225.bmp	-0.1	20.25
287.6	1.02807	5	66	per	lib	low	low	low	tg	nt	tg	tg	left	tg	ht	0.62807	wh/0173.bmp	0.05	20.3
291.92	0.96833	5	67	per	lib	low	low	low	tg	tg	tg	nt	right	tg	ht	0.56833	wh/0636.bmp	0.05	20.35
294.8	1.06385	5	68	per	lib	low	low	low	nt	tg	nt	tg	right	nt	cr	0.66385	nh/0994_nh.bmp	0.05	20.4
297.68	0.96674	5	69	per	lib	low	low	low	tg	tg	tg	nt	right	tg	ht	0.56674	wh/0106.bmp	0.05	20.45
300.56	0.94245	5	70	per	lib	low	low	low	nt	tg	nt	nt	left	nt	cr	0.54245	nh/0034_nh.bmp	0.05	20.5
303.44	1.3849	5	71	per	lib	low	low	low	tg	tg	tg	nt	left	nt	ms	0.9849	wh/0728.bmp	-0.1	20.4
307.76	1.05078	5	72	per	lib	low	low	low	tg	nt	tg	tg	left	tg	ht	0.65078	wh/0731.bmp	0.05	20.45
310.64	1.28288	5	73	per	lib	low	low	low	nt	tg	nt	tg	left	tg	fa	0.88288	nh/0043_nh.bmp	0	20.45
313.52	1.5807	5	74	per	lib	low	low	low	nt	nt	nt	nt	right	tg	fa	1.1807	nh/0013_nh.bmp	0	20.45
316.4	1.07728	5	75	per	lib	low	low	low	nt	tg	nt	nt	right	tg	fa	0.67728	nh/0657_nh.bmp	0	20.45
319.28	1.411	5	76	per	lib	low	low	low	tg	nt	tg	tg	right	nt	ms	1.011	wh/0437.bmp	-0.1	20.35
322.16	1.2027	5	77	per	lib	low	low	low	nt	nt	nt	tg	right	nt	cr	0.8027	nh/0434_nh.bmp	0.05	20.4
325.04	1.27591	5	78	per	lib	low	low	low	nt	nt	nt	nt	right	tg	fa	0.87591	nh/0881_nh.bmp	0	20.4
328.64	1.28494	5	79	per	lib	low	low	low	tg	tg	tg	tg	right	nt	ms	0.88494	wh/0518.bmp	-0.1	20.3
331.52	1.4387	5	80	per	lib	low	low	low	nt	nt	nt	nt	right	tg	fa	1.0387	nh/0460_nh.bmp	0	20.3
334.08	3.6	5	n/a	per	lib	low	n/a	n/a	feedback	n/a	n/a	n/a	n/a	n/a	n/a	n/a	n/a	n/a	n/a
338.4	7.2	6	n/a	mem	con	mod	n/a	n/a	instructions	n/a	n/a	n/a	n/a	n/a	n/a	n/a	n/a	n/a	n/a
345.92	1.0186	6	81	mem	con	mod	mod	mod	tg	tg	nt	tg	left	tg	ht	0.6186	nh/0915_nh.bmp	0.05	20.35
348.8	0.94723	6	82	mem	con	mod	mod	mod	nt	nt	nt	tg	right	nt	cr	0.54723	nh/0954_nh.bmp	0.05	20.4
353.12	0.926	6	83	mem	con	mod	mod	mod	tg	tg	tg	tg	left	tg	ht	0.526	wh/0666.bmp	0.05	20.45
356	1.11165	6	84	mem	con	mod	mod	mod	tg	tg	nt	tg	left	tg	ht	0.71165	nh/0827_nh.bmp	0.05	20.5
360.32	1.17078	6	85	mem	con	mod	mod	mod	nt	nt	nt	tg	right	nt	cr	0.77078	nh/0876_nh.bmp	0.05	20.55
363.2	0.89502	6	86	mem	con	mod	mod	mod	tg	tg	tg	nt	right	tg	ht	0.49502	wh/0821.bmp	0.05	20.6
366.08	1.16393	6	87	mem	con	mod	mod	mod	nt	nt	tg	nt	left	nt	cr	0.76393	wh/0497.bmp	0.05	20.65
369.68	1.07186	6	88	mem	con	mod	mod	mod	tg	tg	tg	nt	right	tg	ht	0.67186	wh/0638.bmp	0.05	20.7
372.56	0.95749	6	89	mem	con	mod	mod	mod	nt	nt	nt	nt	left	nt	cr	0.55749	nh/0697_nh.bmp	0.05	20.75
375.44	1.08819	6	90	mem	con	mod	mod	mod	nt	nt	nt	tg	right	nt	cr	0.68819	nh/0095_nh.bmp	0.05	20.8
378.32	1.16088	6	91	mem	con	mod	mod	mod	tg	tg	tg	nt	right	tg	ht	0.76088	wh/0275.bmp	0.05	20.85
381.2	0.99638	6	92	mem	con	mod	mod	mod	tg	tg	nt	tg	right	nt	ms	0.59638	nh/0968_nh.bmp	0	20.85
385.52	1.07348	6	93	mem	con	mod	mod	mod	nt	nt	tg	nt	left	nt	cr	0.67348	wh/0396.bmp	0.05	20.9
388.4	0.87664	6	94	mem	con	mod	mod	mod	nt	nt	tg	tg	right	nt	cr	0.47664	wh/0843.bmp	0.05	20.95
391.28	0.97638	6	95	mem	con	mod	mod	mod	tg	tg	nt	nt	left	nt	ms	0.57638	nh/0590_nh.bmp	0	20.95
394.16	0.94204	6	96	mem	con	mod	mod	mod	nt	nt	tg	tg	right	nt	cr	0.54204	wh/0588.bmp	0.05	21
396.72	3.6	6	n/a	mem	con	mod	n/a	n/a	feedback	n/a	n/a	n/a	n/a	n/a	n/a	n/a	n/a	n/a	n/a
401.76	7.2	7	n/a	mem	con	low	n/a	n/a	instructions	n/a	n/a	n/a	n/a	n/a	n/a	n/a	n/a	n/a	n/a
410	1.1869	7	97	mem	con	low	low	low	tg	tg	nt	nt	left	nt	ms	0.7869	nh/0198_nh.bmp	0	21
412.88	1.00738	7	98	mem	con	low	low	low	tg	tg	nt	nt	left	nt	ms	0.60738	nh/0022_nh.bmp	0	21
415.76	0.95892	7	99	mem	con	low	low	low	tg	tg	tg	nt	left	nt	ms	0.55892	wh/0516.bmp	0	21
418.64	0.93975	7	100	mem	con	low	low	low	nt	nt	nt	tg	right	nt	cr	0.53975	nh/0113_nh.bmp	0.05	21.05
422.96	1.3827	7	101	mem	con	low	low	low	nt	nt	nt	nt	right	tg	fa	0.9827	nh/0695_nh.bmp	-0.1	20.95
425.84	0.9225	7	102	mem	con	low	low	low	nt	nt	nt	nt	left	nt	cr	0.5225	nh/0710_nh.bmp	0.05	21
428.72	0.94144	7	103	mem	con	low	low	low	tg	tg	tg	nt	left	nt	ms	0.54144	wh/0610.bmp	0	21
431.6	0.89545	7	104	mem	con	low	low	low	nt	nt	tg	nt	left	nt	cr	0.49545	wh/0483.bmp	0.05	21.05
434.48	1.12373	7	105	mem	con	low	low	low	nt	nt	tg	nt	left	nt	cr	0.72373	wh/0146.bmp	0.05	21.1
438.8	0.9147	7	106	mem	con	low	low	low	tg	tg	tg	nt	left	nt	ms	0.5147	wh/0737.bmp	0	21.1
441.68	1.27694	7	107	mem	con	low	low	low	nt	nt	nt	nt	right	tg	fa	0.87694	nh/0571_nh.bmp	-0.1	21
445.28	1.14882	7	108	mem	con	low	low	low	tg	tg	tg	nt	left	nt	ms	0.74882	wh/0990.bmp	0	21
448.16	1.8408	7	109	mem	con	low	low	low	nt	nt	tg	tg	left	tg	fa	1.4408	wh/0452.bmp	-0.1	20.9
451.04	0.94377	7	110	mem	con	low	low	low	tg	tg	nt	tg	right	nt	ms	0.54377	nh/0041_nh.bmp	0	20.9
454.64	2.56	7	111	mem	con	low	low	low	tg	tg	nt	tg	n/a	mr	n/a	n/a	nh/0830_nh.bmp	0	20.9
458.96	1.30897	7	112	mem	con	low	low	low	nt	nt	tg	nt	left	nt	cr	0.90897	wh/0206.bmp	0.05	20.95
461.52	3.6	7	n/a	mem	con	low	n/a	n/a	feedback	n/a	n/a	n/a	n/a	n/a	n/a	n/a	n/a	n/a	n/a
465.12	7.2	8	n/a	per	lib	mod	n/a	n/a	instructions	n/a	n/a	n/a	n/a	n/a	n/a	n/a	n/a	n/a	n/a
473.36	1.7058	8	113	per	lib	mod	low	mod	nt	nt	nt	tg	left	tg	fa	1.3058	nh/0870_nh.bmp	0	20.95
476.24	2.56	8	114	per	lib	mod	low	mod	nt	tg	nt	tg	n/a	mr	n/a	n/a	nh/0673_nh.bmp	0	20.95
480.56	1.35991	8	115	per	lib	mod	low	mod	tg	nt	tg	nt	right	tg	ht	0.95991	wh/0267.bmp	0.05	21
483.44	1.02957	8	116	per	lib	mod	low	mod	nt	tg	nt	tg	right	nt	cr	0.62957	nh/0924_nh.bmp	0.05	21.05
486.32	0.95027	8	117	per	lib	mod	low	mod	tg	nt	tg	tg	left	tg	ht	0.55027	wh/0092.bmp	0.05	21.1
489.2	0.9839	8	118	per	lib	mod	low	mod	nt	nt	nt	tg	left	tg	fa	0.5839	nh/0220_nh.bmp	0	21.1
492.8	1.37489	8	119	per	lib	mod	low	mod	tg	tg	tg	tg	left	tg	ht	0.97489	wh/0342.bmp	0.05	21.15
497.12	1.32494	8	120	per	lib	mod	low	mod	nt	nt	nt	tg	right	nt	cr	0.92494	nh/0025_nh.bmp	0.05	21.2
500	0.89732	8	121	per	lib	mod	low	mod	tg	tg	tg	tg	left	tg	ht	0.49732	wh/0416.bmp	0.05	21.25
502.88	0.93411	8	122	per	lib	mod	low	mod	nt	tg	nt	tg	left	tg	fa	0.53411	nh/0732_nh.bmp	0	21.25
507.2	1.1347	8	123	per	lib	mod	low	mod	tg	nt	tg	tg	left	tg	ht	0.7347	wh/0277.bmp	0.05	21.3
511.52	0.92881	8	124	per	lib	mod	low	mod	tg	tg	tg	nt	right	tg	ht	0.52881	wh/0091.bmp	0.05	21.35
514.4	1.38896	8	125	per	lib	mod	low	mod	nt	nt	nt	tg	right	nt	cr	0.98896	nh/0699_nh.bmp	0.05	21.4
517.28	0.91376	8	126	per	lib	mod	low	mod	tg	tg	tg	tg	left	tg	ht	0.51376	wh/0084.bmp	0.05	21.45
521.6	1.08886	8	127	per	lib	mod	low	mod	tg	nt	tg	tg	left	tg	ht	0.68886	wh/0572.bmp	0.05	21.5
524.48	1.19775	8	128	per	lib	mod	low	mod	nt	tg	nt	nt	left	nt	cr	0.79775	nh/0663_nh.bmp	0.05	21.55
527.76	3.6	8	n/a	per	lib	mod	n/a	n/a	feedback	n/a	n/a	n/a	n/a	n/a	n/a	n/a	n/a	n/a	n/a
