onset	duration	trial	pres	ts_blk	ts_trl	task	crit	disc	mem_disc	per_disc	per_type	accuracy	stim_file
7.20	0.72	1	1	7	44	mem	lib	mod	mod	low	nt	ht	nh/0939_nh.bmp
7.92	0.72	2	1	7	28	per	con	mod	mod	mod	nt	cr	nh/0318_nh.bmp
8.64	0.72	3	1	8	41	per	con	low	mod	low	nt	cr	nh/0248_nh.bmp
9.36	0.72	4	1	7	124	per	lib	mod	low	mod	tg	ht	wh/0091.bmp
10.08	0.72	5	1	8	50	per	lib	low	mod	low	tg	ht	wh/0253.bmp
10.80	0.72	6	1	8	82	mem	con	mod	mod	low	tg	ht	wh/0143.bmp
11.52	0.72	7	1	6	27	per	con	mod	mod	mod	nt	cr	nh/0995_nh.bmp
12.24	0.72	8	1	5	82	mem	con	mod	mod	low	tg	ms	wh/0892.bmp
12.96	0.72	9	1	7	19	per	con	mod	mod	mod	tg	ht	wh/0778.bmp
13.68	0.72	10	1	5	71	per	con	low	low	low	nt	fa	nh/0135_nh.bmp
14.40	0.72	11	1	7	33	mem	lib	mod	mod	low	tg	ht	wh/0521.bmp
15.12	0.72	12	1	5	90	mem	con	mod	mod	low	nt	ms	nh/0678_nh.bmp
15.84	0.72	13	1	7	67	per	lib	low	low	low	tg	ht	wh/0636.bmp
16.56	0.72	14	1	6	36	mem	lib	mod	mod	low	nt	ht	nh/0064_nh.bmp
17.28	0.72	15	1	8	87	mem	con	mod	mod	low	nt	ms	nh/0647_nh.bmp
18.00	0.72	16	1	5	44	mem	lib	mod	mod	mod	nt	ht	nh/0366_nh.bmp
18.72	0.72	17	1	7	86	mem	con	mod	mod	mod	tg	ht	wh/0821.bmp
19.44	0.72	18	2	8	41	per	con	low	mod	low	nt	cr	nh/0248_nh.bmp
20.16	0.72	19	1	5	11	per	lib	low	mod	low	nt	fa	nh/0374_nh.bmp
20.88	0.72	20	1	6	38	mem	lib	mod	mod	low	nt	ht	nh/1014_nh.bmp
21.60	0.72	21	1	5	98	per	con	mod	low	mod	tg	ht	wh/0837.bmp
22.32	0.72	22	1	5	24	per	lib	mod	mod	mod	nt	cr	nh/0715_nh.bmp
23.04	0.72	23	1	7	73	per	lib	low	low	low	nt	fa	nh/0043_nh.bmp
23.76	0.72	24	1	6	101	per	lib	mod	low	mod	tg	ht	wh/0559.bmp
24.48	0.72	25	1	7	25	per	con	mod	mod	mod	nt	cr	nh/0564_nh.bmp
25.20	0.72	26	1	7	4	mem	lib	low	low	low	tg	ht	wh/1011.bmp
25.92	0.72	27	1	6	103	per	lib	mod	low	mod	nt	cr	nh/0389_nh.bmp
26.64	0.72	28	1	8	52	per	lib	low	mod	low	nt	fa	nh/0612_nh.bmp
27.36	0.72	29	2	7	33	mem	lib	mod	mod	low	tg	ht	wh/0521.bmp
28.08	0.72	30	1	8	40	per	con	low	mod	low	nt	cr	nh/0176_nh.bmp
28.80	0.72	31	1	6	122	per	lib	low	low	low	tg	ms	wh/0617.bmp
29.52	0.72	32	1	6	58	mem	con	mod	mod	mod	nt	ht	nh/0020_nh.bmp
30.24	0.72	33	1	7	31	per	con	mod	mod	mod	tg	ht	wh/0385.bmp
30.96	0.72	34	1	5	6	per	lib	low	mod	low	nt	fa	nh/0165_nh.bmp
31.68	0.72	35	1	5	45	mem	lib	mod	mod	mod	nt	ht	nh/0179_nh.bmp
32.40	0.72	36	1	6	25	per	con	mod	mod	mod	tg	ht	wh/0599.bmp
33.12	0.72	37	1	7	32	per	con	mod	mod	mod	nt	cr	nh/0835_nh.bmp
33.84	0.72	38	1	5	27	per	lib	mod	mod	mod	tg	ht	wh/0609.bmp
34.56	0.72	39	1	8	46	per	con	low	mod	low	tg	ht	wh/0394.bmp
35.28	0.72	40	1	6	23	per	con	mod	mod	mod	tg	ht	wh/0408.bmp
36.00	0.72	41	1	5	43	mem	lib	mod	mod	mod	nt	ht	nh/0629_nh.bmp
36.72	0.72	42	1	8	93	mem	con	mod	mod	low	tg	ms	wh/0262.bmp
37.44	0.72	43	1	8	126	per	con	mod	low	mod	tg	ht	wh/0867.bmp
38.16	0.72	44	1	6	81	per	con	low	mod	low	tg	ms	wh/0820.bmp
38.88	0.72	45	1	7	34	mem	lib	mod	mod	low	tg	ht	wh/0450.bmp
39.60	0.72	46	1	6	26	per	con	mod	mod	mod	nt	cr	nh/0560_nh.bmp
40.32	0.72	47	2	7	44	mem	lib	mod	mod	low	nt	ht	nh/0939_nh.bmp
41.04	0.72	48	1	6	33	mem	lib	mod	mod	low	nt	ht	nh/0640_nh.bmp
41.76	0.72	49	1	8	31	mem	lib	mod	mod	mod	nt	ht	nh/0586_nh.bmp
42.48	0.72	50	1	6	94	per	con	low	mod	low	nt	cr	nh/0241_nh.bmp
43.20	0.72	51	1	8	22	mem	lib	mod	mod	mod	nt	ht	nh/0852_nh.bmp
43.92	0.72	52	1	6	93	per	con	low	mod	low	nt	cr	nh/0574_nh.bmp
44.64	0.72	53	1	7	35	mem	lib	mod	mod	low	nt	ms	nh/0255_nh.bmp
45.36	0.72	54	1	7	40	mem	lib	mod	mod	low	tg	ht	wh/0172.bmp
46.08	0.72	55	2	8	50	per	lib	low	mod	low	tg	ht	wh/0253.bmp
46.80	0.72	56	1	8	72	mem	con	low	low	mod	nt	ms	nh/0373_nh.bmp
47.52	0.72	57	1	6	72	mem	con	low	low	low	nt	ms	nh/0005_nh.bmp
48.24	0.72	58	1	8	38	per	con	low	mod	low	tg	ms	wh/0401.bmp
48.96	0.72	59	1	8	58	per	lib	low	mod	low	tg	ht	wh/0297.bmp
49.68	0.72	60	1	7	68	per	lib	low	low	low	nt	cr	nh/0994_nh.bmp
50.40	0.72	61	1	6	68	mem	con	low	low	low	tg	ms	wh/0181.bmp
51.12	0.72	62	1	5	37	mem	lib	mod	mod	mod	tg	ht	wh/0549.bmp
51.84	0.72	63	2	6	58	mem	con	mod	mod	mod	nt	ht	nh/0020_nh.bmp
52.56	0.72	64	1	8	104	per	lib	mod	mod	mod	nt	cr	nh/0294_nh.bmp
53.28	0.72	65	1	8	20	mem	lib	mod	mod	mod	tg	ht	wh/0763.bmp
54.00	0.72	66	1	5	86	mem	con	mod	mod	low	tg	ht	wh/1019.bmp
54.72	0.72	67	1	8	103	per	lib	mod	mod	mod	nt	cr	nh/0441_nh.bmp
55.44	0.72	68	1	7	81	mem	con	mod	mod	mod	nt	ht	nh/0915_nh.bmp
56.16	0.72	69	2	8	52	per	lib	low	mod	low	nt	fa	nh/0612_nh.bmp
56.88	0.72	70	1	8	3	mem	lib	low	low	mod	tg	n/a	wh/0839.bmp
57.60	0.72	71	1	7	21	per	con	mod	mod	mod	tg	ms	wh/0399.bmp
58.32	0.72	72	1	6	117	per	lib	low	low	low	nt	cr	nh/0570_nh.bmp
59.04	0.72	73	1	8	128	per	con	mod	low	mod	nt	cr	nh/1002_nh.bmp
59.76	0.72	74	1	6	40	mem	lib	mod	mod	low	tg	ht	wh/0254.bmp
60.48	0.72	75	1	6	43	mem	lib	mod	mod	low	tg	ht	wh/0139.bmp
61.20	0.72	76	2	7	40	mem	lib	mod	mod	low	tg	ht	wh/0172.bmp
61.92	0.72	77	2	6	38	mem	lib	mod	mod	low	nt	ht	nh/1014_nh.bmp
62.64	0.72	78	1	8	34	per	con	low	mod	low	tg	ht	wh/0453.bmp
63.36	0.72	79	2	7	35	mem	lib	mod	mod	low	nt	ms	nh/0255_nh.bmp
64.08	0.72	80	1	5	88	mem	con	mod	mod	low	nt	ht	nh/0618_nh.bmp
64.80	0.72	81	2	5	43	mem	lib	mod	mod	mod	nt	ht	nh/0629_nh.bmp
65.52	0.72	82	1	6	105	per	lib	mod	low	mod	nt	cr	nh/0668_nh.bmp
66.24	0.72	83	1	8	35	per	con	low	mod	low	nt	cr	nh/0814_nh.bmp
66.96	0.72	84	2	6	94	per	con	low	mod	low	nt	cr	nh/0241_nh.bmp
67.68	0.72	85	1	7	38	mem	lib	mod	mod	low	tg	ms	wh/0388.bmp
68.40	0.72	86	1	7	91	mem	con	mod	mod	mod	tg	ht	wh/0275.bmp
69.12	0.72	87	2	6	27	per	con	mod	mod	mod	nt	cr	nh/0995_nh.bmp
69.84	0.72	88	2	7	25	per	con	mod	mod	mod	nt	cr	nh/0564_nh.bmp
70.56	0.72	89	2	8	58	per	lib	low	mod	low	tg	ht	wh/0297.bmp
71.28	0.72	90	2	7	86	mem	con	mod	mod	mod	tg	ht	wh/0821.bmp
72.00	0.72	91	2	5	82	mem	con	mod	mod	low	tg	ms	wh/0892.bmp
72.72	0.72	92	1	5	106	per	con	mod	low	mod	nt	cr	nh/0749_nh.bmp
73.44	0.72	93	2	5	6	per	lib	low	mod	low	nt	fa	nh/0165_nh.bmp
74.16	0.72	94	2	8	46	per	con	low	mod	low	tg	ht	wh/0394.bmp
74.88	0.72	95	1	5	109	per	con	mod	low	mod	tg	ms	wh/0016.bmp
75.60	0.72	96	1	8	21	mem	lib	mod	mod	mod	tg	ht	wh/0978.bmp
76.32	0.72	97	1	5	84	mem	con	mod	mod	low	nt	ht	nh/0023_nh.bmp
77.04	0.72	98	1	7	27	per	con	mod	mod	mod	nt	fa	nh/0086_nh.bmp
77.76	0.72	99	1	8	55	per	lib	low	mod	low	nt	fa	nh/0863_nh.bmp
78.48	0.72	100	1	6	52	mem	con	mod	mod	mod	nt	ms	nh/0378_nh.bmp
79.20	0.72	101	1	5	38	mem	lib	mod	mod	mod	tg	ht	wh/0436.bmp
79.92	0.72	102	2	8	104	per	lib	mod	mod	mod	nt	cr	nh/0294_nh.bmp
80.64	0.72	103	2	8	87	mem	con	mod	mod	low	nt	ms	nh/0647_nh.bmp
81.36	0.72	104	1	7	108	mem	con	low	low	low	tg	ms	wh/0990.bmp
82.08	0.72	105	2	8	55	per	lib	low	mod	low	nt	fa	nh/0863_nh.bmp
82.80	0.72	106	1	5	2	per	lib	low	mod	low	nt	fa	nh/0578_nh.bmp
83.52	0.72	107	2	8	22	mem	lib	mod	mod	mod	nt	ht	nh/0852_nh.bmp
84.24	0.72	108	2	5	88	mem	con	mod	mod	low	nt	ht	nh/0618_nh.bmp
84.96	0.72	109	1	5	96	mem	con	mod	mod	low	tg	ht	wh/0986.bmp
85.68	0.72	110	1	8	86	mem	con	mod	mod	low	nt	ms	nh/0247_nh.bmp
86.40	0.72	111	2	8	93	mem	con	mod	mod	low	tg	ms	wh/0262.bmp
87.12	0.72	112	1	8	105	per	lib	mod	mod	mod	nt	cr	nh/0888_nh.bmp
87.84	0.72	113	2	6	33	mem	lib	mod	mod	low	nt	ht	nh/0640_nh.bmp
88.56	0.72	114	1	5	87	mem	con	mod	mod	low	nt	ms	nh/0018_nh.bmp
89.28	0.72	115	3	8	93	mem	con	mod	mod	low	tg	ms	wh/0262.bmp
90.00	0.72	116	3	8	46	per	con	low	mod	low	tg	ht	wh/0394.bmp
90.72	0.72	117	2	7	38	mem	lib	mod	mod	low	tg	ms	wh/0388.bmp
91.44	0.72	118	1	7	20	per	con	mod	mod	mod	tg	ht	wh/0735.bmp
92.16	0.72	119	1	5	94	mem	con	mod	mod	low	tg	ms	wh/0170.bmp
92.88	0.72	120	1	5	115	mem	con	low	low	mod	nt	ms	nh/0953_nh.bmp
93.60	0.72	121	1	8	18	mem	lib	mod	mod	mod	nt	ht	nh/0300_nh.bmp
94.32	0.72	122	2	6	36	mem	lib	mod	mod	low	nt	ht	nh/0064_nh.bmp
95.04	0.72	123	2	6	93	per	con	low	mod	low	nt	cr	nh/0574_nh.bmp
95.76	0.72	124	1	8	107	per	lib	mod	mod	mod	nt	cr	nh/0060_nh.bmp
96.48	0.72	125	2	5	24	per	lib	mod	mod	mod	nt	cr	nh/0715_nh.bmp
97.20	0.72	126	1	5	50	mem	lib	low	low	mod	tg	ht	wh/0037.bmp
97.92	0.72	127	2	7	19	per	con	mod	mod	mod	tg	ht	wh/0778.bmp
98.64	0.72	128	2	8	34	per	con	low	mod	low	tg	ht	wh/0453.bmp
99.36	0.72	129	1	5	73	per	con	low	low	low	tg	ms	wh/0352.bmp
100.08	0.72	130	2	8	35	per	con	low	mod	low	nt	cr	nh/0814_nh.bmp
100.80	0.72	131	1	7	56	per	con	low	low	low	nt	cr	nh/0468_nh.bmp
101.52	0.72	132	1	5	3	per	lib	low	mod	low	tg	ms	wh/0118.bmp
102.24	0.72	133	1	6	82	per	con	low	mod	low	tg	ms	wh/0073.bmp
102.96	0.72	134	1	5	29	per	lib	mod	mod	mod	tg	ms	wh/0269.bmp
103.68	0.72	135	3	5	43	mem	lib	mod	mod	mod	nt	ht	nh/0629_nh.bmp
104.40	0.72	136	1	8	61	per	lib	low	mod	low	tg	ht	wh/0157.bmp
105.12	0.72	137	2	5	38	mem	lib	mod	mod	mod	tg	ht	wh/0436.bmp
105.84	0.72	138	2	8	86	mem	con	mod	mod	low	nt	ms	nh/0247_nh.bmp
106.56	0.72	139	1	8	115	per	con	mod	low	mod	nt	cr	nh/0982_nh.bmp
107.28	0.72	140	1	7	99	mem	con	low	low	low	tg	ms	wh/0516.bmp
108.00	0.72	141	3	8	34	per	con	low	mod	low	tg	ht	wh/0453.bmp
108.72	0.72	142	3	7	86	mem	con	mod	mod	mod	tg	ht	wh/0821.bmp
109.44	0.72	143	1	8	110	per	lib	mod	mod	mod	tg	ht	wh/0420.bmp
110.16	0.72	144	1	6	42	mem	lib	mod	mod	low	tg	ht	wh/0012.bmp
110.88	0.72	145	2	5	87	mem	con	mod	mod	low	nt	ms	nh/0018_nh.bmp
111.60	0.72	146	1	8	49	per	lib	low	mod	low	nt	cr	nh/0519_nh.bmp
112.32	0.72	147	1	8	85	mem	con	mod	mod	low	nt	ms	nh/0164_nh.bmp
113.04	0.72	148	3	5	87	mem	con	mod	mod	low	nt	ms	nh/0018_nh.bmp
113.76	0.72	149	1	8	19	mem	lib	mod	mod	mod	tg	ht	wh/0544.bmp
114.48	0.72	150	2	8	21	mem	lib	mod	mod	mod	tg	ht	wh/0978.bmp
115.20	0.72	151	2	5	27	per	lib	mod	mod	mod	tg	ht	wh/0609.bmp
115.92	0.72	152	1	6	55	mem	con	mod	mod	mod	nt	ht	nh/0717_nh.bmp
116.64	0.72	153	1	8	60	per	lib	low	mod	low	tg	ht	wh/0883.bmp
117.36	0.72	154	1	7	92	mem	con	mod	mod	mod	nt	ms	nh/0968_nh.bmp
118.08	0.72	155	1	7	2	mem	lib	low	low	low	nt	ht	nh/0587_nh.bmp
118.80	0.72	156	2	6	25	per	con	mod	mod	mod	tg	ht	wh/0599.bmp
119.52	0.72	157	1	5	13	per	lib	low	mod	low	tg	ht	wh/0403.bmp
120.24	0.72	158	2	8	107	per	lib	mod	mod	mod	nt	cr	nh/0060_nh.bmp
120.96	0.72	159	1	6	62	mem	con	mod	mod	mod	tg	ht	wh/0603.bmp
121.68	0.72	160	1	5	23	per	lib	mod	mod	mod	nt	fa	nh/0764_nh.bmp
122.40	0.72	161	1	6	18	per	con	mod	mod	mod	nt	cr	nh/0337_nh.bmp
123.12	0.72	162	1	7	119	per	lib	mod	low	mod	tg	ht	wh/0342.bmp
123.84	0.72	163	2	5	2	per	lib	low	mod	low	nt	fa	nh/0578_nh.bmp
124.56	0.72	164	1	6	29	per	con	mod	mod	mod	nt	cr	nh/0623_nh.bmp
125.28	0.72	165	1	8	9	mem	lib	low	low	mod	tg	ht	wh/0186.bmp
126.00	0.72	166	1	8	39	per	con	low	mod	low	nt	cr	nh/0114_nh.bmp
126.72	0.72	167	1	5	4	per	lib	low	mod	low	tg	ht	wh/0793.bmp
127.44	0.72	168	1	6	37	mem	lib	mod	mod	low	tg	ht	wh/0780.bmp
128.16	0.72	169	3	7	38	mem	lib	mod	mod	low	tg	ms	wh/0388.bmp
128.88	0.72	170	3	7	33	mem	lib	mod	mod	low	tg	ht	wh/0521.bmp
129.60	0.72	171	2	8	82	mem	con	mod	mod	low	tg	ht	wh/0143.bmp
130.32	0.72	172	3	7	40	mem	lib	mod	mod	low	tg	ht	wh/0172.bmp
131.04	0.72	173	2	8	60	per	lib	low	mod	low	tg	ht	wh/0883.bmp
131.76	0.72	174	2	6	29	per	con	mod	mod	mod	nt	cr	nh/0623_nh.bmp
132.48	0.72	175	1	7	15	mem	lib	low	low	low	tg	ht	wh/0058.bmp
133.20	0.72	176	1	5	60	mem	lib	low	low	mod	nt	ht	nh/0537_nh.bmp
133.92	0.72	177	3	6	38	mem	lib	mod	mod	low	nt	ht	nh/1014_nh.bmp
134.64	0.72	178	1	8	90	mem	con	mod	mod	low	nt	ht	nh/0734_nh.bmp
135.36	0.72	179	4	5	43	mem	lib	mod	mod	mod	nt	ht	nh/0629_nh.bmp
136.08	0.72	180	1	5	21	per	lib	mod	mod	mod	tg	ht	wh/0871.bmp
136.80	0.72	181	1	6	104	per	lib	mod	low	mod	tg	ht	wh/0532.bmp
137.52	0.72	182	3	8	52	per	lib	low	mod	low	nt	fa	nh/0612_nh.bmp
138.24	0.72	183	2	6	23	per	con	mod	mod	mod	tg	ht	wh/0408.bmp
138.96	0.72	184	1	7	95	mem	con	mod	mod	mod	nt	ms	nh/0590_nh.bmp
139.68	0.72	185	4	8	93	mem	con	mod	mod	low	tg	ms	wh/0262.bmp
140.40	0.72	186	2	5	3	per	lib	low	mod	low	tg	ms	wh/0118.bmp
141.12	0.72	187	1	5	78	per	con	low	low	low	tg	ms	wh/0480.bmp
141.84	0.72	188	3	8	104	per	lib	mod	mod	mod	nt	cr	nh/0294_nh.bmp
142.56	0.72	189	1	5	39	mem	lib	mod	mod	mod	tg	ht	wh/0822.bmp
143.28	0.72	190	1	7	36	mem	lib	mod	mod	low	nt	ms	nh/0848_nh.bmp
144.00	0.72	191	4	8	52	per	lib	low	mod	low	nt	fa	nh/0612_nh.bmp
144.72	0.72	192	4	8	104	per	lib	mod	mod	mod	nt	cr	nh/0294_nh.bmp
145.44	0.72	193	1	7	83	mem	con	mod	mod	mod	tg	ht	wh/0666.bmp
146.16	0.72	194	1	6	99	per	lib	mod	low	mod	nt	cr	nh/0840_nh.bmp
146.88	0.72	195	3	5	3	per	lib	low	mod	low	tg	ms	wh/0118.bmp
147.60	0.72	196	1	6	85	per	con	low	mod	low	tg	ms	wh/0491.bmp
148.32	0.72	197	1	6	41	mem	lib	mod	mod	low	nt	ht	nh/0111_nh.bmp
149.04	0.72	198	2	5	86	mem	con	mod	mod	low	tg	ht	wh/1019.bmp
149.76	0.72	199	2	8	90	mem	con	mod	mod	low	nt	ht	nh/0734_nh.bmp
150.48	0.72	200	3	5	82	mem	con	mod	mod	low	tg	ms	wh/0892.bmp
151.20	0.72	201	1	6	51	mem	con	mod	mod	mod	tg	ht	wh/0239.bmp
151.92	0.72	202	3	5	2	per	lib	low	mod	low	nt	fa	nh/0578_nh.bmp
152.64	0.72	203	2	8	103	per	lib	mod	mod	mod	nt	cr	nh/0441_nh.bmp
153.36	0.72	204	4	7	86	mem	con	mod	mod	mod	tg	ht	wh/0821.bmp
154.08	0.72	205	1	8	83	mem	con	mod	mod	low	tg	ms	wh/0249.bmp
154.80	0.72	206	2	8	20	mem	lib	mod	mod	mod	tg	ht	wh/0763.bmp
155.52	0.72	207	4	5	82	mem	con	mod	mod	low	tg	ms	wh/0892.bmp
156.24	0.72	208	2	7	81	mem	con	mod	mod	mod	nt	ht	nh/0915_nh.bmp
156.96	0.72	209	4	5	3	per	lib	low	mod	low	tg	ms	wh/0118.bmp
157.68	0.72	210	1	6	30	per	con	mod	mod	mod	tg	ht	wh/0797.bmp
158.40	0.72	211	3	8	86	mem	con	mod	mod	low	nt	ms	nh/0247_nh.bmp
159.12	0.72	212	2	6	30	per	con	mod	mod	mod	tg	ht	wh/0797.bmp
159.84	0.72	213	2	5	29	per	lib	mod	mod	mod	tg	ms	wh/0269.bmp
160.56	0.72	214	1	6	87	per	con	low	mod	low	nt	cr	nh/0875_nh.bmp
161.28	0.72	215	1	5	12	per	lib	low	mod	low	nt	cr	nh/0193_nh.bmp
162.00	0.72	216	2	8	18	mem	lib	mod	mod	mod	nt	ht	nh/0300_nh.bmp
162.72	0.72	217	2	6	85	per	con	low	mod	low	tg	ms	wh/0491.bmp
163.44	0.72	218	2	6	41	mem	lib	mod	mod	low	nt	ht	nh/0111_nh.bmp
164.16	0.72	219	1	7	69	per	lib	low	low	low	tg	ht	wh/0106.bmp
164.88	0.72	220	2	8	40	per	con	low	mod	low	nt	cr	nh/0176_nh.bmp
165.60	0.72	221	1	7	84	mem	con	mod	mod	mod	nt	ht	nh/0827_nh.bmp
166.32	0.72	222	2	7	91	mem	con	mod	mod	mod	tg	ht	wh/0275.bmp
167.04	0.72	223	2	7	31	per	con	mod	mod	mod	tg	ht	wh/0385.bmp
167.76	0.72	224	2	5	84	mem	con	mod	mod	low	nt	ht	nh/0023_nh.bmp
168.48	0.72	225	5	8	52	per	lib	low	mod	low	nt	fa	nh/0612_nh.bmp
169.20	0.72	226	3	8	58	per	lib	low	mod	low	tg	ht	wh/0297.bmp
169.92	0.72	227	2	8	38	per	con	low	mod	low	tg	ms	wh/0401.bmp
170.64	0.72	228	3	8	41	per	con	low	mod	low	nt	cr	nh/0248_nh.bmp
171.36	0.72	229	2	5	12	per	lib	low	mod	low	nt	cr	nh/0193_nh.bmp
172.08	0.72	230	2	6	18	per	con	mod	mod	mod	nt	cr	nh/0337_nh.bmp
172.80	0.72	231	2	6	26	per	con	mod	mod	mod	nt	cr	nh/0560_nh.bmp
173.52	0.72	232	3	7	81	mem	con	mod	mod	mod	nt	ht	nh/0915_nh.bmp
174.24	0.72	233	2	8	61	per	lib	low	mod	low	tg	ht	wh/0157.bmp
174.96	0.72	234	2	5	13	per	lib	low	mod	low	tg	ht	wh/0403.bmp
175.68	0.72	235	3	5	88	mem	con	mod	mod	low	nt	ht	nh/0618_nh.bmp
176.40	0.72	236	3	8	60	per	lib	low	mod	low	tg	ht	wh/0883.bmp
177.12	0.72	237	3	7	19	per	con	mod	mod	mod	tg	ht	wh/0778.bmp
177.84	0.72	238	3	6	93	per	con	low	mod	low	nt	cr	nh/0574_nh.bmp
178.56	0.72	239	1	5	15	per	lib	low	mod	low	tg	ms	wh/0746.bmp
179.28	0.72	240	1	6	110	per	lib	mod	low	mod	tg	ht	wh/0631.bmp
180.00	0.72	241	2	5	44	mem	lib	mod	mod	mod	nt	ht	nh/0366_nh.bmp
180.72	0.72	242	3	8	103	per	lib	mod	mod	mod	nt	cr	nh/0441_nh.bmp
181.44	0.72	243	2	7	34	mem	lib	mod	mod	low	tg	ht	wh/0450.bmp
182.16	0.72	244	3	8	40	per	con	low	mod	low	nt	cr	nh/0176_nh.bmp
182.88	0.72	245	1	7	88	mem	con	mod	mod	mod	tg	ht	wh/0638.bmp
183.60	0.72	246	4	8	41	per	con	low	mod	low	nt	cr	nh/0248_nh.bmp
184.32	0.72	247	2	5	4	per	lib	low	mod	low	tg	ht	wh/0793.bmp
185.04	0.72	248	2	6	82	per	con	low	mod	low	tg	ms	wh/0073.bmp
185.76	0.72	249	2	5	11	per	lib	low	mod	low	nt	fa	nh/0374_nh.bmp
186.48	0.72	250	3	5	4	per	lib	low	mod	low	tg	ht	wh/0793.bmp
187.20	0.72	251	1	6	11	mem	lib	low	low	low	nt	ms	nh/0677_nh.bmp
187.92	0.72	252	1	7	71	per	lib	low	low	low	tg	ms	wh/0728.bmp
188.64	0.72	253	2	6	87	per	con	low	mod	low	nt	cr	nh/0875_nh.bmp
189.36	0.72	254	1	6	24	per	con	mod	mod	mod	tg	ht	wh/0833.bmp
190.08	0.72	255	1	6	83	per	con	low	mod	low	tg	ht	wh/0582.bmp
190.80	0.72	256	2	7	83	mem	con	mod	mod	mod	tg	ht	wh/0666.bmp
191.52	0.72	257	2	5	94	mem	con	mod	mod	low	tg	ms	wh/0170.bmp
192.24	0.72	258	3	7	31	per	con	mod	mod	mod	tg	ht	wh/0385.bmp
192.96	0.72	259	2	7	27	per	con	mod	mod	mod	nt	fa	nh/0086_nh.bmp
193.68	0.72	260	3	8	87	mem	con	mod	mod	low	nt	ms	nh/0647_nh.bmp
194.40	0.72	261	3	8	35	per	con	low	mod	low	nt	cr	nh/0814_nh.bmp
195.12	0.72	262	2	8	39	per	con	low	mod	low	nt	cr	nh/0114_nh.bmp
195.84	0.72	263	2	6	52	mem	con	mod	mod	mod	nt	ms	nh/0378_nh.bmp
196.56	0.72	264	2	5	96	mem	con	mod	mod	low	tg	ht	wh/0986.bmp
197.28	0.72	265	3	6	29	per	con	mod	mod	mod	nt	cr	nh/0623_nh.bmp
198.00	0.72	266	1	6	59	mem	con	mod	mod	mod	nt	ht	nh/0952_nh.bmp
198.72	0.72	267	2	6	62	mem	con	mod	mod	mod	tg	ht	wh/0603.bmp
199.44	0.72	268	1	8	96	mem	con	mod	mod	low	tg	ms	wh/0108.bmp
200.16	0.72	269	1	8	123	per	con	mod	low	mod	tg	ht	wh/0372.bmp
200.88	0.72	270	4	8	103	per	lib	mod	mod	mod	nt	cr	nh/0441_nh.bmp
201.60	0.72	271	2	6	51	mem	con	mod	mod	mod	tg	ht	wh/0239.bmp
202.32	0.72	272	4	8	60	per	lib	low	mod	low	tg	ht	wh/0883.bmp
203.04	0.72	273	1	8	78	mem	con	low	low	mod	nt	ht	nh/0945_nh.bmp
203.76	0.72	274	3	8	20	mem	lib	mod	mod	mod	tg	ht	wh/0763.bmp
204.48	0.72	275	2	6	37	mem	lib	mod	mod	low	tg	ht	wh/0780.bmp
205.20	0.72	276	3	6	51	mem	con	mod	mod	mod	tg	ht	wh/0239.bmp
205.92	0.72	277	1	6	1	mem	lib	low	low	low	tg	ms	wh/0676.bmp
206.64	0.72	278	3	6	23	per	con	mod	mod	mod	tg	ht	wh/0408.bmp
207.36	0.72	279	4	6	93	per	con	low	mod	low	nt	cr	nh/0574_nh.bmp
208.08	0.72	280	3	8	38	per	con	low	mod	low	tg	ms	wh/0401.bmp
208.80	0.72	281	3	5	94	mem	con	mod	mod	low	tg	ms	wh/0170.bmp
209.52	0.72	282	3	7	83	mem	con	mod	mod	mod	tg	ht	wh/0666.bmp
210.24	0.72	283	3	5	38	mem	lib	mod	mod	mod	tg	ht	wh/0436.bmp
210.96	0.72	284	3	5	24	per	lib	mod	mod	mod	nt	cr	nh/0715_nh.bmp
211.68	0.72	285	3	5	12	per	lib	low	mod	low	nt	cr	nh/0193_nh.bmp
212.40	0.72	286	4	6	23	per	con	mod	mod	mod	tg	ht	wh/0408.bmp
213.12	0.72	287	4	8	86	mem	con	mod	mod	low	nt	ms	nh/0247_nh.bmp
213.84	0.72	288	1	8	69	mem	con	low	low	mod	tg	ms	wh/0622.bmp
214.56	0.72	289	5	8	104	per	lib	mod	mod	mod	nt	cr	nh/0294_nh.bmp
215.28	0.72	290	3	5	11	per	lib	low	mod	low	nt	fa	nh/0374_nh.bmp
216.00	0.72	291	3	7	25	per	con	mod	mod	mod	nt	cr	nh/0564_nh.bmp
216.72	0.72	292	1	8	116	per	con	mod	low	mod	nt	cr	nh/0395_nh.bmp
217.44	0.72	293	3	8	82	mem	con	mod	mod	low	tg	ht	wh/0143.bmp
218.16	0.72	294	4	8	46	per	con	low	mod	low	tg	ht	wh/0394.bmp
218.88	0.72	295	4	7	25	per	con	mod	mod	mod	nt	cr	nh/0564_nh.bmp
219.60	0.72	296	2	7	20	per	con	mod	mod	mod	tg	ht	wh/0735.bmp
220.32	0.72	297	1	6	64	mem	con	mod	mod	mod	tg	ht	wh/0556.bmp
221.04	0.72	298	1	8	57	per	lib	low	mod	low	nt	fa	nh/0024_nh.bmp
221.76	0.72	299	3	5	86	mem	con	mod	mod	low	tg	ht	wh/1019.bmp
222.48	0.72	300	1	5	124	mem	con	low	low	mod	tg	ms	wh/0093.bmp
223.20	0.72	301	1	6	92	per	con	low	mod	low	nt	cr	nh/1004_nh.bmp
223.92	0.72	302	1	6	123	per	lib	low	low	low	tg	ms	wh/0063.bmp
224.64	0.72	303	2	6	92	per	con	low	mod	low	nt	cr	nh/1004_nh.bmp
225.36	0.72	304	4	5	4	per	lib	low	mod	low	tg	ht	wh/0793.bmp
226.08	0.72	305	1	8	48	per	con	low	mod	low	tg	ms	wh/0756.bmp
226.80	0.72	306	2	6	24	per	con	mod	mod	mod	tg	ht	wh/0833.bmp
227.52	0.72	307	1	7	1	mem	lib	low	low	low	tg	ms	wh/0202.bmp
228.24	0.72	308	2	5	37	mem	lib	mod	mod	mod	tg	ht	wh/0549.bmp
228.96	0.72	309	4	8	20	mem	lib	mod	mod	mod	tg	ht	wh/0763.bmp
229.68	0.72	310	2	7	88	mem	con	mod	mod	mod	tg	ht	wh/0638.bmp
230.40	0.72	311	1	5	48	mem	lib	mod	mod	mod	tg	ht	wh/0971.bmp
231.12	0.72	312	3	7	88	mem	con	mod	mod	mod	tg	ht	wh/0638.bmp
231.84	0.72	313	1	5	31	per	lib	mod	mod	mod	nt	cr	nh/0851_nh.bmp
232.56	0.72	314	2	5	90	mem	con	mod	mod	low	nt	ms	nh/0678_nh.bmp
233.28	0.72	315	2	7	32	per	con	mod	mod	mod	nt	cr	nh/0835_nh.bmp
234.00	0.72	316	3	8	107	per	lib	mod	mod	mod	nt	cr	nh/0060_nh.bmp
234.72	0.72	317	3	7	20	per	con	mod	mod	mod	tg	ht	wh/0735.bmp
235.44	0.72	318	1	6	13	mem	lib	low	low	low	tg	ht	wh/0360.bmp
236.16	0.72	319	3	6	82	per	con	low	mod	low	tg	ms	wh/0073.bmp
236.88	0.72	320	3	6	25	per	con	mod	mod	mod	tg	ht	wh/0599.bmp
237.60	0.72	321	1	8	16	mem	lib	low	low	mod	nt	ht	nh/0046_nh.bmp
238.32	0.72	322	4	7	81	mem	con	mod	mod	mod	nt	ht	nh/0915_nh.bmp
239.04	0.72	323	5	8	86	mem	con	mod	mod	low	nt	ms	nh/0247_nh.bmp
239.76	0.72	324	1	8	27	mem	lib	mod	mod	mod	tg	ht	wh/0552.bmp
240.48	0.72	325	2	6	83	per	con	low	mod	low	tg	ht	wh/0582.bmp
241.20	0.72	326	2	8	83	mem	con	mod	mod	low	tg	ms	wh/0249.bmp
241.92	0.72	327	2	8	31	mem	lib	mod	mod	mod	nt	ht	nh/0586_nh.bmp
242.64	0.72	328	2	5	48	mem	lib	mod	mod	mod	tg	ht	wh/0971.bmp
243.36	0.72	329	2	5	45	mem	lib	mod	mod	mod	nt	ht	nh/0179_nh.bmp
244.08	0.72	330	5	5	82	mem	con	mod	mod	low	tg	ms	wh/0892.bmp
244.80	0.72	331	2	5	21	per	lib	mod	mod	mod	tg	ht	wh/0871.bmp
245.52	0.72	332	3	8	90	mem	con	mod	mod	low	nt	ht	nh/0734_nh.bmp
246.24	0.72	333	3	7	27	per	con	mod	mod	mod	nt	fa	nh/0086_nh.bmp
246.96	0.72	334	3	6	24	per	con	mod	mod	mod	tg	ht	wh/0833.bmp
247.68	0.72	335	2	7	92	mem	con	mod	mod	mod	nt	ms	nh/0968_nh.bmp
248.40	0.72	336	4	5	88	mem	con	mod	mod	low	nt	ht	nh/0618_nh.bmp
249.12	0.72	337	5	5	43	mem	lib	mod	mod	mod	nt	ht	nh/0629_nh.bmp
249.84	0.72	338	1	6	79	mem	con	low	low	low	tg	ht	wh/0224.bmp
250.56	0.72	339	5	8	46	per	con	low	mod	low	tg	ht	wh/0394.bmp
251.28	0.72	340	6	5	82	mem	con	mod	mod	low	tg	ms	wh/0892.bmp
252.00	0.72	341	1	8	109	per	lib	mod	mod	mod	tg	ht	wh/0958.bmp
252.72	0.72	342	2	6	42	mem	lib	mod	mod	low	tg	ht	wh/0012.bmp
253.44	0.72	343	2	8	48	per	con	low	mod	low	tg	ms	wh/0756.bmp
254.16	0.72	344	4	6	51	mem	con	mod	mod	mod	tg	ht	wh/0239.bmp
254.88	0.72	345	3	8	48	per	con	low	mod	low	tg	ms	wh/0756.bmp
255.60	0.72	346	3	5	6	per	lib	low	mod	low	nt	fa	nh/0165_nh.bmp
256.32	0.72	347	4	5	24	per	lib	mod	mod	mod	nt	cr	nh/0715_nh.bmp
257.04	0.72	348	1	5	101	per	con	mod	low	mod	nt	cr	nh/0907_nh.bmp
257.76	0.72	349	4	5	2	per	lib	low	mod	low	nt	fa	nh/0578_nh.bmp
258.48	0.72	350	3	5	45	mem	lib	mod	mod	mod	nt	ht	nh/0179_nh.bmp
259.20	0.72	351	2	8	85	mem	con	mod	mod	low	nt	ms	nh/0164_nh.bmp
259.92	0.72	352	2	6	64	mem	con	mod	mod	mod	tg	ht	wh/0556.bmp
260.64	0.72	353	4	6	82	per	con	low	mod	low	tg	ms	wh/0073.bmp
261.36	0.72	354	3	8	39	per	con	low	mod	low	nt	cr	nh/0114_nh.bmp
262.08	0.72	355	2	8	96	mem	con	mod	mod	low	tg	ms	wh/0108.bmp
262.80	0.72	356	2	6	40	mem	lib	mod	mod	low	tg	ht	wh/0254.bmp
263.52	0.72	357	3	8	83	mem	con	mod	mod	low	tg	ms	wh/0249.bmp
264.24	0.72	358	2	8	27	mem	lib	mod	mod	mod	tg	ht	wh/0552.bmp
264.96	0.72	359	1	5	25	per	lib	mod	mod	mod	nt	fa	nh/0495_nh.bmp
265.68	0.72	360	1	5	26	per	lib	mod	mod	mod	tg	ht	wh/0602.bmp
266.40	0.72	361	4	8	90	mem	con	mod	mod	low	nt	ht	nh/0734_nh.bmp
267.12	0.72	362	4	8	38	per	con	low	mod	low	tg	ms	wh/0401.bmp
267.84	0.72	363	3	6	92	per	con	low	mod	low	nt	cr	nh/1004_nh.bmp
268.56	0.72	364	4	8	48	per	con	low	mod	low	tg	ms	wh/0756.bmp
269.28	0.72	365	3	6	83	per	con	low	mod	low	tg	ht	wh/0582.bmp
270.00	0.72	366	1	6	15	mem	lib	low	low	low	nt	ht	nh/0138_nh.bmp
270.72	0.72	367	2	5	39	mem	lib	mod	mod	mod	tg	ht	wh/0822.bmp
271.44	0.72	368	6	8	86	mem	con	mod	mod	low	nt	ms	nh/0247_nh.bmp
272.16	0.72	369	3	7	92	mem	con	mod	mod	mod	nt	ms	nh/0968_nh.bmp
272.88	0.72	370	4	6	25	per	con	mod	mod	mod	tg	ht	wh/0599.bmp
273.60	0.72	371	4	6	29	per	con	mod	mod	mod	nt	cr	nh/0623_nh.bmp
274.32	0.72	372	3	6	18	per	con	mod	mod	mod	nt	cr	nh/0337_nh.bmp
275.04	0.72	373	5	6	82	per	con	low	mod	low	tg	ms	wh/0073.bmp
275.76	0.72	374	3	7	34	mem	lib	mod	mod	low	tg	ht	wh/0450.bmp
276.48	0.72	375	3	6	52	mem	con	mod	mod	mod	nt	ms	nh/0378_nh.bmp
277.20	0.72	376	2	8	49	per	lib	low	mod	low	nt	cr	nh/0519_nh.bmp
277.92	0.72	377	3	5	13	per	lib	low	mod	low	tg	ht	wh/0403.bmp
278.64	0.72	378	1	7	9	mem	lib	low	low	low	nt	ht	nh/0147_nh.bmp
279.36	0.72	379	4	7	92	mem	con	mod	mod	mod	nt	ms	nh/0968_nh.bmp
280.08	0.72	380	2	7	21	per	con	mod	mod	mod	tg	ms	wh/0399.bmp
280.80	0.72	381	3	7	91	mem	con	mod	mod	mod	tg	ht	wh/0275.bmp
281.52	0.72	382	4	8	107	per	lib	mod	mod	mod	nt	cr	nh/0060_nh.bmp
282.24	0.72	383	4	7	19	per	con	mod	mod	mod	tg	ht	wh/0778.bmp
282.96	0.72	384	2	6	59	mem	con	mod	mod	mod	nt	ht	nh/0952_nh.bmp
283.68	0.72	385	3	8	22	mem	lib	mod	mod	mod	nt	ht	nh/0852_nh.bmp
284.40	0.72	386	3	5	21	per	lib	mod	mod	mod	tg	ht	wh/0871.bmp
285.12	0.72	387	3	6	27	per	con	mod	mod	mod	nt	cr	nh/0995_nh.bmp
285.84	0.72	388	2	7	28	per	con	mod	mod	mod	nt	cr	nh/0318_nh.bmp
286.56	0.72	389	4	7	33	mem	lib	mod	mod	low	tg	ht	wh/0521.bmp
287.28	0.72	390	2	8	19	mem	lib	mod	mod	mod	tg	ht	wh/0544.bmp
288.00	0.72	391	1	5	74	per	con	low	low	low	nt	cr	nh/0260_nh.bmp
288.72	0.72	392	4	7	34	mem	lib	mod	mod	low	tg	ht	wh/0450.bmp
289.44	0.72	393	3	6	85	per	con	low	mod	low	tg	ms	wh/0491.bmp
290.16	0.72	394	6	5	43	mem	lib	mod	mod	mod	nt	ht	nh/0629_nh.bmp
290.88	0.72	395	2	8	57	per	lib	low	mod	low	nt	fa	nh/0024_nh.bmp
291.60	0.72	396	3	8	50	per	lib	low	mod	low	tg	ht	wh/0253.bmp
292.32	0.72	397	3	5	84	mem	con	mod	mod	low	nt	ht	nh/0023_nh.bmp
293.04	0.72	398	3	6	58	mem	con	mod	mod	mod	nt	ht	nh/0020_nh.bmp
293.76	0.72	399	3	5	90	mem	con	mod	mod	low	nt	ms	nh/0678_nh.bmp
294.48	0.72	400	1	7	116	per	lib	mod	low	mod	nt	cr	nh/0924_nh.bmp
295.20	0.72	401	4	6	38	mem	lib	mod	mod	low	nt	ht	nh/1014_nh.bmp
295.92	0.72	402	3	6	26	per	con	mod	mod	mod	nt	cr	nh/0560_nh.bmp
296.64	0.72	403	4	5	86	mem	con	mod	mod	low	tg	ht	wh/1019.bmp
297.36	0.72	404	1	5	46	mem	lib	mod	mod	mod	nt	ms	nh/0056_nh.bmp
298.08	0.72	405	3	6	42	mem	lib	mod	mod	low	tg	ht	wh/0012.bmp
298.80	0.72	406	1	8	124	per	con	mod	low	mod	tg	ht	wh/0221.bmp
299.52	0.72	407	1	7	110	mem	con	low	low	low	nt	ms	nh/0041_nh.bmp
300.24	0.72	408	4	6	42	mem	lib	mod	mod	low	tg	ht	wh/0012.bmp
300.96	0.72	409	1	6	60	mem	con	mod	mod	mod	tg	ht	wh/0694.bmp
301.68	0.72	410	3	5	96	mem	con	mod	mod	low	tg	ht	wh/0986.bmp
302.40	0.72	411	3	8	18	mem	lib	mod	mod	mod	nt	ht	nh/0300_nh.bmp
303.12	0.72	412	3	6	59	mem	con	mod	mod	mod	nt	ht	nh/0952_nh.bmp
303.84	0.72	413	4	5	90	mem	con	mod	mod	low	nt	ms	nh/0678_nh.bmp
304.56	0.72	414	5	8	38	per	con	low	mod	low	tg	ms	wh/0401.bmp
305.28	0.72	415	3	6	62	mem	con	mod	mod	mod	tg	ht	wh/0603.bmp
306.00	0.72	416	5	8	48	per	con	low	mod	low	tg	ms	wh/0756.bmp
306.72	0.72	417	1	8	23	mem	lib	mod	mod	mod	nt	ht	nh/0832_nh.bmp
307.44	0.72	418	5	5	4	per	lib	low	mod	low	tg	ht	wh/0793.bmp
308.16	0.72	419	3	6	40	mem	lib	mod	mod	low	tg	ht	wh/0254.bmp
308.88	0.72	420	1	6	114	per	lib	low	low	low	nt	cr	nh/0880_nh.bmp
309.60	0.72	421	1	8	102	per	lib	mod	mod	mod	tg	ht	wh/0686.bmp
310.32	0.72	422	4	6	83	per	con	low	mod	low	tg	ht	wh/0582.bmp
311.04	0.72	423	4	6	27	per	con	mod	mod	mod	nt	cr	nh/0995_nh.bmp
311.76	0.72	424	4	6	24	per	con	mod	mod	mod	tg	ht	wh/0833.bmp
312.48	0.72	425	1	7	70	per	lib	low	low	low	nt	cr	nh/0034_nh.bmp
313.20	0.72	426	1	8	12	mem	lib	low	low	mod	nt	ht	nh/0227_nh.bmp
313.92	0.72	427	1	7	106	mem	con	low	low	low	tg	ms	wh/0737.bmp
314.64	0.72	428	2	5	15	per	lib	low	mod	low	tg	ms	wh/0746.bmp
315.36	0.72	429	2	8	102	per	lib	mod	mod	mod	tg	ht	wh/0686.bmp
316.08	0.72	430	4	8	34	per	con	low	mod	low	tg	ht	wh/0453.bmp
316.80	0.72	431	1	7	122	per	lib	mod	low	mod	nt	fa	nh/0732_nh.bmp
317.52	0.72	432	2	8	105	per	lib	mod	mod	mod	nt	cr	nh/0888_nh.bmp
318.24	0.72	433	3	8	96	mem	con	mod	mod	low	tg	ms	wh/0108.bmp
318.96	0.72	434	2	6	43	mem	lib	mod	mod	low	tg	ht	wh/0139.bmp
319.68	0.72	435	3	8	21	mem	lib	mod	mod	mod	tg	ht	wh/0978.bmp
320.40	0.72	436	4	8	96	mem	con	mod	mod	low	tg	ms	wh/0108.bmp
321.12	0.72	437	1	5	77	per	con	low	low	low	tg	ht	wh/0767.bmp
321.84	0.72	438	5	7	25	per	con	mod	mod	mod	nt	cr	nh/0564_nh.bmp
322.56	0.72	439	5	5	88	mem	con	mod	mod	low	nt	ht	nh/0618_nh.bmp
323.28	0.72	440	1	7	42	mem	lib	mod	mod	low	nt	ht	nh/0042_nh.bmp
324.00	0.72	441	2	7	84	mem	con	mod	mod	mod	nt	ht	nh/0827_nh.bmp
324.72	0.72	442	3	5	15	per	lib	low	mod	low	tg	ms	wh/0746.bmp
325.44	0.72	443	4	5	15	per	lib	low	mod	low	tg	ms	wh/0746.bmp
326.16	0.72	444	1	8	100	per	lib	mod	mod	mod	tg	ht	wh/0546.bmp
326.88	0.72	445	3	5	39	mem	lib	mod	mod	mod	tg	ht	wh/0822.bmp
327.60	0.72	446	5	8	103	per	lib	mod	mod	mod	nt	cr	nh/0441_nh.bmp
328.32	0.72	447	1	5	97	per	con	mod	low	mod	tg	ht	wh/0948.bmp
329.04	0.72	448	1	6	113	per	lib	low	low	low	nt	cr	nh/0280_nh.bmp
329.76	0.72	449	4	8	50	per	lib	low	mod	low	tg	ht	wh/0253.bmp
330.48	0.72	450	1	7	59	per	con	low	low	low	nt	cr	nh/0285_nh.bmp
331.20	0.72	451	3	6	30	per	con	mod	mod	mod	tg	ht	wh/0797.bmp
331.92	0.72	452	1	5	66	per	con	low	low	low	tg	ht	wh/0376.bmp
332.64	0.72	453	1	7	121	per	lib	mod	low	mod	tg	ht	wh/0416.bmp
333.36	0.72	454	4	6	40	mem	lib	mod	mod	low	tg	ht	wh/0254.bmp
334.08	0.72	455	4	7	40	mem	lib	mod	mod	low	tg	ht	wh/0172.bmp
334.80	0.72	456	5	8	41	per	con	low	mod	low	nt	cr	nh/0248_nh.bmp
335.52	0.72	457	5	5	86	mem	con	mod	mod	low	tg	ht	wh/1019.bmp
336.24	0.72	458	1	7	126	per	lib	mod	low	mod	tg	ht	wh/0084.bmp
336.96	0.72	459	3	8	105	per	lib	mod	mod	mod	nt	cr	nh/0888_nh.bmp
337.68	0.72	460	3	7	35	mem	lib	mod	mod	low	nt	ms	nh/0255_nh.bmp
338.40	0.72	461	5	7	40	mem	lib	mod	mod	low	tg	ht	wh/0172.bmp
339.12	0.72	462	3	8	85	mem	con	mod	mod	low	nt	ms	nh/0164_nh.bmp
339.84	0.72	463	4	8	22	mem	lib	mod	mod	mod	nt	ht	nh/0852_nh.bmp
340.56	0.72	464	4	8	83	mem	con	mod	mod	low	tg	ms	wh/0249.bmp
341.28	0.72	465	4	8	18	mem	lib	mod	mod	mod	nt	ht	nh/0300_nh.bmp
342.00	0.72	466	2	6	55	mem	con	mod	mod	mod	nt	ht	nh/0717_nh.bmp
342.72	0.72	467	2	5	31	per	lib	mod	mod	mod	nt	cr	nh/0851_nh.bmp
343.44	0.72	468	4	7	83	mem	con	mod	mod	mod	tg	ht	wh/0666.bmp
344.16	0.72	469	4	6	59	mem	con	mod	mod	mod	nt	ht	nh/0952_nh.bmp
344.88	0.72	470	3	6	41	mem	lib	mod	mod	low	nt	ht	nh/0111_nh.bmp
345.60	0.72	471	4	8	21	mem	lib	mod	mod	mod	tg	ht	wh/0978.bmp
346.32	0.72	472	5	7	19	per	con	mod	mod	mod	tg	ht	wh/0778.bmp
347.04	0.72	473	4	5	6	per	lib	low	mod	low	nt	fa	nh/0165_nh.bmp
347.76	0.72	474	2	5	46	mem	lib	mod	mod	mod	nt	ms	nh/0056_nh.bmp
348.48	0.72	475	3	5	29	per	lib	mod	mod	mod	tg	ms	wh/0269.bmp
349.20	0.72	476	4	5	87	mem	con	mod	mod	low	nt	ms	nh/0018_nh.bmp
349.92	0.72	477	1	8	15	mem	lib	low	low	mod	tg	ms	wh/0611.bmp
350.64	0.72	478	3	8	57	per	lib	low	mod	low	nt	fa	nh/0024_nh.bmp
351.36	0.72	479	2	8	100	per	lib	mod	mod	mod	tg	ht	wh/0546.bmp
352.08	0.72	480	4	6	85	per	con	low	mod	low	tg	ms	wh/0491.bmp
352.80	0.72	481	4	5	94	mem	con	mod	mod	low	tg	ms	wh/0170.bmp
353.52	0.72	482	5	5	90	mem	con	mod	mod	low	nt	ms	nh/0678_nh.bmp
354.24	0.72	483	4	6	18	per	con	mod	mod	mod	nt	cr	nh/0337_nh.bmp
354.96	0.72	484	4	8	39	per	con	low	mod	low	nt	cr	nh/0114_nh.bmp
355.68	0.72	485	3	6	33	mem	lib	mod	mod	low	nt	ht	nh/0640_nh.bmp
356.40	0.72	486	5	8	90	mem	con	mod	mod	low	nt	ht	nh/0734_nh.bmp
357.12	0.72	487	3	7	28	per	con	mod	mod	mod	nt	cr	nh/0318_nh.bmp
357.84	0.72	488	4	7	88	mem	con	mod	mod	mod	tg	ht	wh/0638.bmp
358.56	0.72	489	4	8	85	mem	con	mod	mod	low	nt	ms	nh/0164_nh.bmp
359.28	0.72	490	3	6	37	mem	lib	mod	mod	low	tg	ht	wh/0780.bmp
360.00	0.72	491	4	7	27	per	con	mod	mod	mod	nt	fa	nh/0086_nh.bmp
360.72	0.72	492	4	5	11	per	lib	low	mod	low	nt	fa	nh/0374_nh.bmp
361.44	0.72	493	5	5	2	per	lib	low	mod	low	nt	fa	nh/0578_nh.bmp
362.16	0.72	494	4	8	58	per	lib	low	mod	low	tg	ht	wh/0297.bmp
362.88	0.72	495	5	8	20	mem	lib	mod	mod	mod	tg	ht	wh/0763.bmp
363.60	0.72	496	3	5	31	per	lib	mod	mod	mod	nt	cr	nh/0851_nh.bmp
364.32	0.72	497	3	6	94	per	con	low	mod	low	nt	cr	nh/0241_nh.bmp
365.04	0.72	498	1	6	16	mem	lib	low	low	low	tg	ht	wh/0842.bmp
365.76	0.72	499	2	7	36	mem	lib	mod	mod	low	nt	ms	nh/0848_nh.bmp
366.48	0.72	500	1	5	72	per	con	low	low	low	nt	cr	nh/0268_nh.bmp
367.20	0.72	501	3	5	37	mem	lib	mod	mod	mod	tg	ht	wh/0549.bmp
367.92	0.72	502	1	5	113	mem	con	low	low	mod	tg	ht	wh/0418.bmp
368.64	0.72	503	2	5	23	per	lib	mod	mod	mod	nt	fa	nh/0764_nh.bmp
369.36	0.72	504	3	7	44	mem	lib	mod	mod	low	nt	ht	nh/0939_nh.bmp
370.08	0.72	505	6	8	103	per	lib	mod	mod	mod	nt	cr	nh/0441_nh.bmp
370.80	0.72	506	5	7	81	mem	con	mod	mod	mod	nt	ht	nh/0915_nh.bmp
371.52	0.72	507	3	7	84	mem	con	mod	mod	mod	nt	ht	nh/0827_nh.bmp
372.24	0.72	508	4	8	105	per	lib	mod	mod	mod	nt	cr	nh/0888_nh.bmp
372.96	0.72	509	5	6	40	mem	lib	mod	mod	low	tg	ht	wh/0254.bmp
373.68	0.72	510	4	5	39	mem	lib	mod	mod	mod	tg	ht	wh/0822.bmp
374.40	0.72	511	3	5	23	per	lib	mod	mod	mod	nt	fa	nh/0764_nh.bmp
375.12	0.72	512	4	6	58	mem	con	mod	mod	mod	nt	ht	nh/0020_nh.bmp
375.84	0.72	513	2	5	26	per	lib	mod	mod	mod	tg	ht	wh/0602.bmp
376.56	0.72	514	1	7	98	mem	con	low	low	low	nt	ms	nh/0022_nh.bmp
377.28	0.72	515	4	7	84	mem	con	mod	mod	mod	nt	ht	nh/0827_nh.bmp
378.00	0.72	516	5	6	59	mem	con	mod	mod	mod	nt	ht	nh/0952_nh.bmp
378.72	0.72	517	4	5	84	mem	con	mod	mod	low	nt	ht	nh/0023_nh.bmp
379.44	0.72	518	1	6	98	per	lib	mod	low	mod	nt	fa	nh/1008_nh.bmp
380.16	0.72	519	3	5	27	per	lib	mod	mod	mod	tg	ht	wh/0609.bmp
380.88	0.72	520	5	7	27	per	con	mod	mod	mod	nt	fa	nh/0086_nh.bmp
381.60	0.72	521	1	7	49	per	con	low	low	low	tg	ht	wh/0154.bmp
382.32	0.72	522	2	7	42	mem	lib	mod	mod	low	nt	ht	nh/0042_nh.bmp
383.04	0.72	523	1	7	79	per	lib	low	low	low	tg	ms	wh/0518.bmp
383.76	0.72	524	2	8	23	mem	lib	mod	mod	mod	nt	ht	nh/0832_nh.bmp
384.48	0.72	525	5	7	33	mem	lib	mod	mod	low	tg	ht	wh/0521.bmp
385.20	0.72	526	5	8	18	mem	lib	mod	mod	mod	nt	ht	nh/0300_nh.bmp
385.92	0.72	527	3	5	48	mem	lib	mod	mod	mod	tg	ht	wh/0971.bmp
386.64	0.72	528	2	7	95	mem	con	mod	mod	mod	nt	ms	nh/0590_nh.bmp
387.36	0.72	529	3	8	27	mem	lib	mod	mod	mod	tg	ht	wh/0552.bmp
388.08	0.72	530	4	7	91	mem	con	mod	mod	mod	tg	ht	wh/0275.bmp
388.80	0.72	531	5	6	27	per	con	mod	mod	mod	nt	cr	nh/0995_nh.bmp
389.52	0.72	532	4	5	96	mem	con	mod	mod	low	tg	ht	wh/0986.bmp
390.24	0.72	533	4	8	27	mem	lib	mod	mod	mod	tg	ht	wh/0552.bmp
390.96	0.72	534	1	5	79	per	con	low	low	low	nt	cr	nh/0566_nh.bmp
391.68	0.72	535	5	5	11	per	lib	low	mod	low	nt	fa	nh/0374_nh.bmp
392.40	0.72	536	3	5	26	per	lib	mod	mod	mod	tg	ht	wh/0602.bmp
393.12	0.72	537	1	7	55	per	con	low	low	low	tg	ms	wh/1015.bmp
393.84	0.72	538	4	6	26	per	con	mod	mod	mod	nt	cr	nh/0560_nh.bmp
394.56	0.72	539	3	6	43	mem	lib	mod	mod	low	tg	ht	wh/0139.bmp
395.28	0.72	540	4	5	26	per	lib	mod	mod	mod	tg	ht	wh/0602.bmp
396.00	0.72	541	3	8	61	per	lib	low	mod	low	tg	ht	wh/0157.bmp
396.72	0.72	542	1	5	121	mem	con	low	low	mod	nt	ms	nh/0308_nh.bmp
397.44	0.72	543	5	8	107	per	lib	mod	mod	mod	nt	cr	nh/0060_nh.bmp
398.16	0.72	544	1	8	117	per	con	mod	low	mod	tg	ht	wh/0305.bmp
398.88	0.72	545	4	8	82	mem	con	mod	mod	low	tg	ht	wh/0143.bmp
399.60	0.72	546	3	6	64	mem	con	mod	mod	mod	tg	ht	wh/0556.bmp
400.32	0.72	547	4	6	64	mem	con	mod	mod	mod	tg	ht	wh/0556.bmp
401.04	0.72	548	1	6	69	mem	con	low	low	low	nt	ms	nh/0639_nh.bmp
401.76	0.72	549	4	5	21	per	lib	mod	mod	mod	tg	ht	wh/0871.bmp
402.48	0.72	550	1	6	67	mem	con	low	low	low	nt	ms	nh/0144_nh.bmp
403.20	0.72	551	5	8	58	per	lib	low	mod	low	tg	ht	wh/0297.bmp
403.92	0.72	552	1	6	7	mem	lib	low	low	low	tg	ht	wh/0859.bmp
404.64	0.72	553	4	5	38	mem	lib	mod	mod	mod	tg	ht	wh/0436.bmp
405.36	0.72	554	4	5	37	mem	lib	mod	mod	mod	tg	ht	wh/0549.bmp
406.08	0.72	555	3	6	55	mem	con	mod	mod	mod	nt	ht	nh/0717_nh.bmp
406.80	0.72	556	5	5	6	per	lib	low	mod	low	nt	fa	nh/0165_nh.bmp
407.52	0.72	557	4	6	30	per	con	mod	mod	mod	tg	ht	wh/0797.bmp
408.24	0.72	558	4	6	37	mem	lib	mod	mod	low	tg	ht	wh/0780.bmp
408.96	0.72	559	4	6	41	mem	lib	mod	mod	low	nt	ht	nh/0111_nh.bmp
409.68	0.72	560	1	8	4	mem	lib	low	low	mod	tg	ht	wh/0349.bmp
410.40	0.72	561	4	5	31	per	lib	mod	mod	mod	nt	cr	nh/0851_nh.bmp
411.12	0.72	562	4	8	57	per	lib	low	mod	low	nt	fa	nh/0024_nh.bmp
411.84	0.72	563	5	8	21	mem	lib	mod	mod	mod	tg	ht	wh/0978.bmp
412.56	0.72	564	4	5	27	per	lib	mod	mod	mod	tg	ht	wh/0609.bmp
413.28	0.72	565	3	7	95	mem	con	mod	mod	mod	nt	ms	nh/0590_nh.bmp
414.00	0.72	566	5	5	84	mem	con	mod	mod	low	nt	ht	nh/0023_nh.bmp
414.72	0.72	567	4	8	87	mem	con	mod	mod	low	nt	ms	nh/0647_nh.bmp
415.44	0.72	568	3	8	31	mem	lib	mod	mod	mod	nt	ht	nh/0586_nh.bmp
416.16	0.72	569	2	6	60	mem	con	mod	mod	mod	tg	ht	wh/0694.bmp
416.88	0.72	570	4	6	55	mem	con	mod	mod	mod	nt	ht	nh/0717_nh.bmp
417.60	0.72	571	2	8	110	per	lib	mod	mod	mod	tg	ht	wh/0420.bmp
418.32	0.72	572	3	8	55	per	lib	low	mod	low	nt	fa	nh/0863_nh.bmp
419.04	0.72	573	5	6	85	per	con	low	mod	low	tg	ms	wh/0491.bmp
419.76	0.72	574	1	5	123	mem	con	low	low	mod	nt	ms	nh/0869_nh.bmp
420.48	0.72	575	3	8	100	per	lib	mod	mod	mod	tg	ht	wh/0546.bmp
421.20	0.72	576	4	5	48	mem	lib	mod	mod	mod	tg	ht	wh/0971.bmp
421.92	0.72	577	1	7	111	mem	con	low	low	low	nt	n/a	nh/0830_nh.bmp
422.64	0.72	578	3	7	21	per	con	mod	mod	mod	tg	ms	wh/0399.bmp
423.36	0.72	579	3	6	60	mem	con	mod	mod	mod	tg	ht	wh/0694.bmp
424.08	0.72	580	1	7	64	per	con	low	low	low	tg	ms	wh/0258.bmp
424.80	0.72	581	3	8	102	per	lib	mod	mod	mod	tg	ht	wh/0686.bmp
425.52	0.72	582	3	8	49	per	lib	low	mod	low	nt	cr	nh/0519_nh.bmp
426.24	0.72	583	5	6	83	per	con	low	mod	low	tg	ht	wh/0582.bmp
426.96	0.72	584	3	8	23	mem	lib	mod	mod	mod	nt	ht	nh/0832_nh.bmp
427.68	0.72	585	4	7	44	mem	lib	mod	mod	low	nt	ht	nh/0939_nh.bmp
428.40	0.72	586	4	7	20	per	con	mod	mod	mod	tg	ht	wh/0735.bmp
429.12	0.72	587	5	6	51	mem	con	mod	mod	mod	tg	ht	wh/0239.bmp
429.84	0.72	588	5	7	91	mem	con	mod	mod	mod	tg	ht	wh/0275.bmp
430.56	0.72	589	5	8	60	per	lib	low	mod	low	tg	ht	wh/0883.bmp
431.28	0.72	590	6	6	59	mem	con	mod	mod	mod	nt	ht	nh/0952_nh.bmp
432.00	0.72	591	4	7	35	mem	lib	mod	mod	low	nt	ms	nh/0255_nh.bmp
432.72	0.72	592	5	6	41	mem	lib	mod	mod	low	nt	ht	nh/0111_nh.bmp
433.44	0.72	593	3	8	110	per	lib	mod	mod	mod	tg	ht	wh/0420.bmp
434.16	0.72	594	5	8	34	per	con	low	mod	low	tg	ht	wh/0453.bmp
434.88	0.72	595	5	8	39	per	con	low	mod	low	nt	cr	nh/0114_nh.bmp
435.60	0.72	596	4	6	52	mem	con	mod	mod	mod	nt	ms	nh/0378_nh.bmp
436.32	0.72	597	4	5	23	per	lib	mod	mod	mod	nt	fa	nh/0764_nh.bmp
437.04	0.72	598	1	5	57	mem	lib	low	low	mod	nt	ms	nh/0625_nh.bmp
437.76	0.72	599	2	5	25	per	lib	mod	mod	mod	nt	fa	nh/0495_nh.bmp
438.48	0.72	600	1	5	102	per	con	mod	low	mod	tg	ms	wh/0207.bmp
439.20	0.72	601	4	8	40	per	con	low	mod	low	nt	cr	nh/0176_nh.bmp
439.92	0.72	602	1	6	106	per	lib	mod	low	mod	tg	ht	wh/0101.bmp
440.64	0.72	603	2	8	109	per	lib	mod	mod	mod	tg	ht	wh/0958.bmp
441.36	0.72	604	6	7	19	per	con	mod	mod	mod	tg	ht	wh/0778.bmp
442.08	0.72	605	4	7	38	mem	lib	mod	mod	low	tg	ms	wh/0388.bmp
442.80	0.72	606	6	8	58	per	lib	low	mod	low	tg	ht	wh/0297.bmp
443.52	0.72	607	3	5	46	mem	lib	mod	mod	mod	nt	ms	nh/0056_nh.bmp
444.24	0.72	608	1	6	119	per	lib	low	low	low	tg	ms	wh/0045.bmp
444.96	0.72	609	4	8	55	per	lib	low	mod	low	nt	fa	nh/0863_nh.bmp
445.68	0.72	610	5	5	26	per	lib	mod	mod	mod	tg	ht	wh/0602.bmp
446.40	0.72	611	5	5	3	per	lib	low	mod	low	tg	ms	wh/0118.bmp
447.12	0.72	612	5	8	57	per	lib	low	mod	low	nt	fa	nh/0024_nh.bmp
447.84	0.72	613	5	8	83	mem	con	mod	mod	low	tg	ms	wh/0249.bmp
448.56	0.72	614	3	8	19	mem	lib	mod	mod	mod	tg	ht	wh/0544.bmp
449.28	0.72	615	1	7	58	per	con	low	low	low	nt	cr	nh/0136_nh.bmp
450.00	0.72	616	1	6	125	per	lib	low	low	low	nt	cr	nh/0929_nh.bmp
450.72	0.72	617	4	8	35	per	con	low	mod	low	nt	cr	nh/0814_nh.bmp
451.44	0.72	618	2	6	81	per	con	low	mod	low	tg	ms	wh/0820.bmp
452.16	0.72	619	4	8	61	per	lib	low	mod	low	tg	ht	wh/0157.bmp
452.88	0.72	620	6	5	6	per	lib	low	mod	low	nt	fa	nh/0165_nh.bmp
453.60	0.72	621	3	7	32	per	con	mod	mod	mod	nt	cr	nh/0835_nh.bmp
454.32	0.72	622	5	7	38	mem	lib	mod	mod	low	tg	ms	wh/0388.bmp
455.04	0.72	623	1	6	9	mem	lib	low	low	low	nt	ht	nh/0175_nh.bmp
455.76	0.72	624	4	6	62	mem	con	mod	mod	mod	tg	ht	wh/0603.bmp
456.48	0.72	625	3	6	81	per	con	low	mod	low	tg	ms	wh/0820.bmp
457.20	0.72	626	3	7	42	mem	lib	mod	mod	low	nt	ht	nh/0042_nh.bmp
457.92	0.72	627	5	8	61	per	lib	low	mod	low	tg	ht	wh/0157.bmp
458.64	0.72	628	5	7	44	mem	lib	mod	mod	low	nt	ht	nh/0939_nh.bmp
459.36	0.72	629	1	7	97	mem	con	low	low	low	nt	ms	nh/0198_nh.bmp
460.08	0.72	630	5	5	87	mem	con	mod	mod	low	nt	ms	nh/0018_nh.bmp
460.80	0.72	631	4	8	19	mem	lib	mod	mod	mod	tg	ht	wh/0544.bmp
461.52	0.72	632	5	6	30	per	con	mod	mod	mod	tg	ht	wh/0797.bmp
462.24	0.72	633	5	7	86	mem	con	mod	mod	mod	tg	ht	wh/0821.bmp
462.96	0.72	634	3	5	44	mem	lib	mod	mod	mod	nt	ht	nh/0366_nh.bmp
463.68	0.72	635	6	6	83	per	con	low	mod	low	tg	ht	wh/0582.bmp
464.40	0.72	636	6	6	41	mem	lib	mod	mod	low	nt	ht	nh/0111_nh.bmp
465.12	0.72	637	3	8	109	per	lib	mod	mod	mod	tg	ht	wh/0958.bmp
465.84	0.72	638	6	7	86	mem	con	mod	mod	mod	tg	ht	wh/0821.bmp
466.56	0.72	639	6	5	4	per	lib	low	mod	low	tg	ht	wh/0793.bmp
467.28	0.72	640	4	7	42	mem	lib	mod	mod	low	nt	ht	nh/0042_nh.bmp
468.00	0.72	641	4	6	33	mem	lib	mod	mod	low	nt	ht	nh/0640_nh.bmp
468.72	0.72	642	6	8	18	mem	lib	mod	mod	mod	nt	ht	nh/0300_nh.bmp
469.44	0.72	643	4	8	110	per	lib	mod	mod	mod	tg	ht	wh/0420.bmp
470.16	0.72	644	5	8	85	mem	con	mod	mod	low	nt	ms	nh/0164_nh.bmp
470.88	0.72	645	4	7	28	per	con	mod	mod	mod	nt	cr	nh/0318_nh.bmp
471.60	0.72	646	6	8	60	per	lib	low	mod	low	tg	ht	wh/0883.bmp
472.32	0.72	647	5	8	87	mem	con	mod	mod	low	nt	ms	nh/0647_nh.bmp
473.04	0.72	648	5	5	39	mem	lib	mod	mod	mod	tg	ht	wh/0822.bmp
473.76	0.72	649	5	7	20	per	con	mod	mod	mod	tg	ht	wh/0735.bmp
474.48	0.72	650	5	6	38	mem	lib	mod	mod	low	nt	ht	nh/1014_nh.bmp
475.20	0.72	651	5	8	96	mem	con	mod	mod	low	tg	ms	wh/0108.bmp
475.92	0.72	652	4	5	29	per	lib	mod	mod	mod	tg	ms	wh/0269.bmp
476.64	0.72	653	4	8	102	per	lib	mod	mod	mod	tg	ht	wh/0686.bmp
477.36	0.72	654	6	5	39	mem	lib	mod	mod	mod	tg	ht	wh/0822.bmp
478.08	0.72	655	6	8	46	per	con	low	mod	low	tg	ht	wh/0394.bmp
478.80	0.72	656	6	8	61	per	lib	low	mod	low	tg	ht	wh/0157.bmp
479.52	0.72	657	4	8	23	mem	lib	mod	mod	mod	nt	ht	nh/0832_nh.bmp
480.24	0.72	658	1	5	52	mem	lib	low	low	mod	nt	ht	nh/0234_nh.bmp
480.96	0.72	659	5	6	25	per	con	mod	mod	mod	tg	ht	wh/0599.bmp
481.68	0.72	660	1	5	53	mem	lib	low	low	mod	tg	ht	wh/0475.bmp
482.40	0.72	661	5	8	102	per	lib	mod	mod	mod	tg	ht	wh/0686.bmp
483.12	0.72	662	1	6	70	mem	con	low	low	low	nt	ms	nh/0219_nh.bmp
483.84	0.72	663	3	6	36	mem	lib	mod	mod	low	nt	ht	nh/0064_nh.bmp
484.56	0.72	664	4	5	45	mem	lib	mod	mod	mod	nt	ht	nh/0179_nh.bmp
485.28	0.72	665	5	6	58	mem	con	mod	mod	mod	nt	ht	nh/0020_nh.bmp
486.00	0.72	666	5	6	42	mem	lib	mod	mod	low	tg	ht	wh/0012.bmp
486.72	0.72	667	5	8	93	mem	con	mod	mod	low	tg	ms	wh/0262.bmp
487.44	0.72	668	4	6	36	mem	lib	mod	mod	low	nt	ht	nh/0064_nh.bmp
488.16	0.72	669	5	8	23	mem	lib	mod	mod	mod	nt	ht	nh/0832_nh.bmp
488.88	0.72	670	1	5	114	mem	con	low	low	mod	tg	n/a	wh/0188.bmp
489.60	0.72	671	5	7	42	mem	lib	mod	mod	low	nt	ht	nh/0042_nh.bmp
490.32	0.72	672	5	5	15	per	lib	low	mod	low	tg	ms	wh/0746.bmp
491.04	0.72	673	1	5	58	mem	lib	low	low	mod	nt	ht	nh/0051_nh.bmp
491.76	0.72	674	6	8	21	mem	lib	mod	mod	mod	tg	ht	wh/0978.bmp
492.48	0.72	675	5	6	29	per	con	mod	mod	mod	nt	cr	nh/0623_nh.bmp
493.20	0.72	676	5	5	96	mem	con	mod	mod	low	tg	ht	wh/0986.bmp
493.92	0.72	677	5	5	37	mem	lib	mod	mod	mod	tg	ht	wh/0549.bmp
494.64	0.72	678	3	6	87	per	con	low	mod	low	nt	cr	nh/0875_nh.bmp
495.36	0.72	679	5	6	52	mem	con	mod	mod	mod	nt	ms	nh/0378_nh.bmp
496.08	0.72	680	6	8	34	per	con	low	mod	low	tg	ht	wh/0453.bmp
496.80	0.72	681	6	8	102	per	lib	mod	mod	mod	tg	ht	wh/0686.bmp
497.52	0.72	682	1	8	6	mem	lib	low	low	mod	nt	ht	nh/0921_nh.bmp
498.24	0.72	683	4	5	44	mem	lib	mod	mod	mod	nt	ht	nh/0366_nh.bmp
498.96	0.72	684	6	5	2	per	lib	low	mod	low	nt	fa	nh/0578_nh.bmp
499.68	0.72	685	1	6	78	mem	con	low	low	low	tg	ms	wh/0770.bmp
500.40	0.72	686	4	6	60	mem	con	mod	mod	mod	tg	ht	wh/0694.bmp
501.12	0.72	687	6	5	37	mem	lib	mod	mod	mod	tg	ht	wh/0549.bmp
501.84	0.72	688	6	5	90	mem	con	mod	mod	low	nt	ms	nh/0678_nh.bmp
502.56	0.72	689	1	7	103	mem	con	low	low	low	tg	ms	wh/0610.bmp
503.28	0.72	690	1	7	63	per	con	low	low	low	nt	cr	nh/0865_nh.bmp
504.00	0.72	691	5	5	27	per	lib	mod	mod	mod	tg	ht	wh/0609.bmp
504.72	0.72	692	3	7	36	mem	lib	mod	mod	low	nt	ms	nh/0848_nh.bmp
505.44	0.72	693	5	7	34	mem	lib	mod	mod	low	tg	ht	wh/0450.bmp
506.16	0.72	694	6	8	38	per	con	low	mod	low	tg	ms	wh/0401.bmp
506.88	0.72	695	6	8	90	mem	con	mod	mod	low	nt	ht	nh/0734_nh.bmp
507.60	0.72	696	5	5	24	per	lib	mod	mod	mod	nt	cr	nh/0715_nh.bmp
508.32	0.72	697	1	7	114	per	lib	mod	low	mod	nt	n/a	nh/0673_nh.bmp
509.04	0.72	698	6	6	30	per	con	mod	mod	mod	tg	ht	wh/0797.bmp
509.76	0.72	699	5	7	83	mem	con	mod	mod	mod	tg	ht	wh/0666.bmp
510.48	0.72	700	5	8	82	mem	con	mod	mod	low	tg	ht	wh/0143.bmp
511.20	0.72	701	6	6	25	per	con	mod	mod	mod	tg	ht	wh/0599.bmp
511.92	0.72	702	5	5	45	mem	lib	mod	mod	mod	nt	ht	nh/0179_nh.bmp
512.64	0.72	703	6	6	85	per	con	low	mod	low	tg	ms	wh/0491.bmp
513.36	0.72	704	6	8	20	mem	lib	mod	mod	mod	tg	ht	wh/0763.bmp
514.08	0.72	705	6	5	84	mem	con	mod	mod	low	nt	ht	nh/0023_nh.bmp
514.80	0.72	706	5	5	48	mem	lib	mod	mod	mod	tg	ht	wh/0971.bmp
515.52	0.72	707	1	5	63	mem	lib	low	low	mod	tg	ht	wh/0334.bmp
516.24	0.72	708	5	6	26	per	con	mod	mod	mod	nt	cr	nh/0560_nh.bmp
516.96	0.72	709	5	6	64	mem	con	mod	mod	mod	tg	ht	wh/0556.bmp
517.68	0.72	710	5	6	18	per	con	mod	mod	mod	nt	cr	nh/0337_nh.bmp
518.40	0.72	711	4	5	46	mem	lib	mod	mod	mod	nt	ms	nh/0056_nh.bmp
519.12	0.72	712	4	7	21	per	con	mod	mod	mod	tg	ms	wh/0399.bmp
519.84	0.72	713	6	7	40	mem	lib	mod	mod	low	tg	ht	wh/0172.bmp
520.56	0.72	714	5	6	93	per	con	low	mod	low	nt	cr	nh/0574_nh.bmp
521.28	0.72	715	6	8	104	per	lib	mod	mod	mod	nt	cr	nh/0294_nh.bmp
522.00	0.72	716	6	7	20	per	con	mod	mod	mod	tg	ht	wh/0735.bmp
522.72	0.72	717	4	8	31	mem	lib	mod	mod	mod	nt	ht	nh/0586_nh.bmp
523.44	0.72	718	6	6	40	mem	lib	mod	mod	low	tg	ht	wh/0254.bmp
524.16	0.72	719	5	6	37	mem	lib	mod	mod	low	tg	ht	wh/0780.bmp
524.88	0.72	720	6	6	29	per	con	mod	mod	mod	nt	cr	nh/0623_nh.bmp
525.60	0.72	721	5	7	28	per	con	mod	mod	mod	nt	cr	nh/0318_nh.bmp
526.32	0.72	722	6	6	26	per	con	mod	mod	mod	nt	cr	nh/0560_nh.bmp
527.04	0.72	723	1	5	116	mem	con	low	low	mod	nt	ms	nh/0779_nh.bmp
527.76	0.72	724	5	5	44	mem	lib	mod	mod	mod	nt	ht	nh/0366_nh.bmp
528.48	0.72	725	5	8	31	mem	lib	mod	mod	mod	nt	ht	nh/0586_nh.bmp
529.20	0.72	726	4	6	92	per	con	low	mod	low	nt	cr	nh/1004_nh.bmp
529.92	0.72	727	5	7	35	mem	lib	mod	mod	low	nt	ms	nh/0255_nh.bmp
530.64	0.72	728	5	5	31	per	lib	mod	mod	mod	nt	cr	nh/0851_nh.bmp
531.36	0.72	729	1	7	13	mem	lib	low	low	low	tg	ht	wh/0226.bmp
532.08	0.72	730	5	8	40	per	con	low	mod	low	nt	cr	nh/0176_nh.bmp
532.80	0.72	731	6	5	11	per	lib	low	mod	low	nt	fa	nh/0374_nh.bmp
533.52	0.72	732	5	8	35	per	con	low	mod	low	nt	cr	nh/0814_nh.bmp
534.24	0.72	733	4	7	31	per	con	mod	mod	mod	tg	ht	wh/0385.bmp
534.96	0.72	734	6	5	15	per	lib	low	mod	low	tg	ms	wh/0746.bmp
535.68	0.72	735	1	5	103	per	con	mod	low	mod	nt	cr	nh/0180_nh.bmp
536.40	0.72	736	6	8	35	per	con	low	mod	low	nt	cr	nh/0814_nh.bmp
537.12	0.72	737	4	8	109	per	lib	mod	mod	mod	tg	ht	wh/0958.bmp
537.84	0.72	738	5	5	23	per	lib	mod	mod	mod	nt	fa	nh/0764_nh.bmp
538.56	0.72	739	6	5	3	per	lib	low	mod	low	tg	ms	wh/0118.bmp
539.28	0.72	740	5	8	55	per	lib	low	mod	low	nt	fa	nh/0863_nh.bmp
540.00	0.72	741	5	8	27	mem	lib	mod	mod	mod	tg	ht	wh/0552.bmp
540.72	0.72	742	6	8	31	mem	lib	mod	mod	mod	nt	ht	nh/0586_nh.bmp
541.44	0.72	743	5	8	110	per	lib	mod	mod	mod	tg	ht	wh/0420.bmp
542.16	0.72	744	6	8	41	per	con	low	mod	low	nt	cr	nh/0248_nh.bmp
542.88	0.72	745	3	5	25	per	lib	mod	mod	mod	nt	fa	nh/0495_nh.bmp
543.60	0.72	746	5	8	50	per	lib	low	mod	low	tg	ht	wh/0253.bmp
544.32	0.72	747	6	7	81	mem	con	mod	mod	mod	nt	ht	nh/0915_nh.bmp
545.04	0.72	748	5	6	36	mem	lib	mod	mod	low	nt	ht	nh/0064_nh.bmp
545.76	0.72	749	4	6	94	per	con	low	mod	low	nt	cr	nh/0241_nh.bmp
546.48	0.72	750	4	6	87	per	con	low	mod	low	nt	cr	nh/0875_nh.bmp
547.20	0.72	751	4	7	32	per	con	mod	mod	mod	nt	cr	nh/0835_nh.bmp
547.92	0.72	752	6	6	51	mem	con	mod	mod	mod	tg	ht	wh/0239.bmp
548.64	0.72	753	6	6	27	per	con	mod	mod	mod	nt	cr	nh/0995_nh.bmp
549.36	0.72	754	4	5	12	per	lib	low	mod	low	nt	cr	nh/0193_nh.bmp
550.08	0.72	755	1	7	3	mem	lib	low	low	low	nt	ht	nh/0506_nh.bmp
550.80	0.72	756	5	6	94	per	con	low	mod	low	nt	cr	nh/0241_nh.bmp
551.52	0.72	757	5	6	55	mem	con	mod	mod	mod	nt	ht	nh/0717_nh.bmp
552.24	0.72	758	5	6	33	mem	lib	mod	mod	low	nt	ht	nh/0640_nh.bmp
552.96	0.72	759	6	5	86	mem	con	mod	mod	low	tg	ht	wh/1019.bmp
553.68	0.72	760	5	8	22	mem	lib	mod	mod	mod	nt	ht	nh/0852_nh.bmp
554.40	0.72	761	4	8	49	per	lib	low	mod	low	nt	cr	nh/0519_nh.bmp
555.12	0.72	762	1	8	76	mem	con	low	low	mod	tg	ms	wh/0751.bmp
555.84	0.72	763	4	5	25	per	lib	mod	mod	mod	nt	fa	nh/0495_nh.bmp
556.56	0.72	764	4	5	13	per	lib	low	mod	low	tg	ht	wh/0403.bmp
557.28	0.72	765	1	5	112	per	con	mod	low	mod	nt	cr	nh/0545_nh.bmp
558.00	0.72	766	6	8	85	mem	con	mod	mod	low	nt	ms	nh/0164_nh.bmp
558.72	0.72	767	4	6	43	mem	lib	mod	mod	low	tg	ht	wh/0139.bmp
559.44	0.72	768	5	5	29	per	lib	mod	mod	mod	tg	ms	wh/0269.bmp
560.16	0.72	769	5	5	38	mem	lib	mod	mod	mod	tg	ht	wh/0436.bmp
560.88	0.72	770	5	5	21	per	lib	mod	mod	mod	tg	ht	wh/0871.bmp
561.60	0.72	771	1	7	75	per	lib	low	low	low	nt	fa	nh/0657_nh.bmp
562.32	0.72	772	5	6	62	mem	con	mod	mod	mod	tg	ht	wh/0603.bmp
563.04	0.72	773	6	5	29	per	lib	mod	mod	mod	tg	ms	wh/0269.bmp
563.76	0.72	774	1	8	113	per	con	mod	low	mod	nt	cr	nh/0381_nh.bmp
564.48	0.72	775	5	7	31	per	con	mod	mod	mod	tg	ht	wh/0385.bmp
565.20	0.72	776	6	5	27	per	lib	mod	mod	mod	tg	ht	wh/0609.bmp
565.92	0.72	777	1	8	67	mem	con	low	low	mod	tg	ms	wh/0402.bmp
566.64	0.72	778	1	6	80	mem	con	low	low	low	tg	ht	wh/0240.bmp
567.36	0.72	779	6	6	38	mem	lib	mod	mod	low	nt	ht	nh/1014_nh.bmp
568.08	0.72	780	6	6	18	per	con	mod	mod	mod	nt	cr	nh/0337_nh.bmp
568.80	0.72	781	6	8	22	mem	lib	mod	mod	mod	nt	ht	nh/0852_nh.bmp
569.52	0.72	782	1	5	51	mem	lib	low	low	mod	tg	ht	wh/1005.bmp
570.24	0.72	783	5	5	46	mem	lib	mod	mod	mod	nt	ms	nh/0056_nh.bmp
570.96	0.72	784	6	7	91	mem	con	mod	mod	mod	tg	ht	wh/0275.bmp
571.68	0.72	785	6	5	45	mem	lib	mod	mod	mod	nt	ht	nh/0179_nh.bmp
572.40	0.72	786	5	8	49	per	lib	low	mod	low	nt	cr	nh/0519_nh.bmp
573.12	0.72	787	5	6	23	per	con	mod	mod	mod	tg	ht	wh/0408.bmp
573.84	0.72	788	6	7	44	mem	lib	mod	mod	low	nt	ht	nh/0939_nh.bmp
574.56	0.72	789	5	5	12	per	lib	low	mod	low	nt	cr	nh/0193_nh.bmp
575.28	0.72	790	6	8	83	mem	con	mod	mod	low	tg	ms	wh/0249.bmp
576.00	0.72	791	1	8	77	mem	con	low	low	mod	tg	ms	wh/1016.bmp
576.72	0.72	792	6	5	88	mem	con	mod	mod	low	nt	ht	nh/0618_nh.bmp
577.44	0.72	793	6	6	42	mem	lib	mod	mod	low	tg	ht	wh/0012.bmp
578.16	0.72	794	1	7	57	per	con	low	low	low	tg	ms	wh/0482.bmp
578.88	0.72	795	4	8	100	per	lib	mod	mod	mod	tg	ht	wh/0546.bmp
579.60	0.72	796	4	7	95	mem	con	mod	mod	mod	nt	ms	nh/0590_nh.bmp
580.32	0.72	797	5	7	32	per	con	mod	mod	mod	nt	cr	nh/0835_nh.bmp
581.04	0.72	798	6	5	96	mem	con	mod	mod	low	tg	ht	wh/0986.bmp
581.76	0.72	799	6	8	107	per	lib	mod	mod	mod	nt	cr	nh/0060_nh.bmp
582.48	0.72	800	6	6	52	mem	con	mod	mod	mod	nt	ms	nh/0378_nh.bmp
583.20	0.72	801	5	6	43	mem	lib	mod	mod	low	tg	ht	wh/0139.bmp
583.92	0.72	802	6	6	37	mem	lib	mod	mod	low	tg	ht	wh/0780.bmp
584.64	0.72	803	5	8	100	per	lib	mod	mod	mod	tg	ht	wh/0546.bmp
585.36	0.72	804	6	6	58	mem	con	mod	mod	mod	nt	ht	nh/0020_nh.bmp
586.08	0.72	805	5	7	84	mem	con	mod	mod	mod	nt	ht	nh/0827_nh.bmp
586.80	0.72	806	6	8	23	mem	lib	mod	mod	mod	nt	ht	nh/0832_nh.bmp
587.52	0.72	807	1	8	14	mem	lib	low	low	mod	nt	ht	nh/0347_nh.bmp
588.24	0.72	808	6	8	93	mem	con	mod	mod	low	tg	ms	wh/0262.bmp
588.96	0.72	809	6	8	55	per	lib	low	mod	low	nt	fa	nh/0863_nh.bmp
589.68	0.72	810	1	5	128	mem	con	low	low	mod	tg	ms	wh/0951.bmp
590.40	0.72	811	5	5	94	mem	con	mod	mod	low	tg	ms	wh/0170.bmp
591.12	0.72	812	6	7	25	per	con	mod	mod	mod	nt	cr	nh/0564_nh.bmp
591.84	0.72	813	5	8	105	per	lib	mod	mod	mod	nt	cr	nh/0888_nh.bmp
592.56	0.72	814	6	7	38	mem	lib	mod	mod	low	tg	ms	wh/0388.bmp
593.28	0.72	815	5	7	21	per	con	mod	mod	mod	tg	ms	wh/0399.bmp
594.00	0.72	816	6	7	31	per	con	mod	mod	mod	tg	ht	wh/0385.bmp
594.72	0.72	817	5	7	92	mem	con	mod	mod	mod	nt	ms	nh/0968_nh.bmp
595.44	0.72	818	4	7	36	mem	lib	mod	mod	low	nt	ms	nh/0848_nh.bmp
596.16	0.72	819	6	5	94	mem	con	mod	mod	low	tg	ms	wh/0170.bmp
596.88	0.72	820	6	6	82	per	con	low	mod	low	tg	ms	wh/0073.bmp
597.60	0.72	821	6	8	50	per	lib	low	mod	low	tg	ht	wh/0253.bmp
598.32	0.72	822	6	8	96	mem	con	mod	mod	low	tg	ms	wh/0108.bmp
599.04	0.72	823	5	6	92	per	con	low	mod	low	nt	cr	nh/1004_nh.bmp
599.76	0.72	824	6	8	105	per	lib	mod	mod	mod	nt	cr	nh/0888_nh.bmp
600.48	0.72	825	5	7	88	mem	con	mod	mod	mod	tg	ht	wh/0638.bmp
601.20	0.72	826	6	7	34	mem	lib	mod	mod	low	tg	ht	wh/0450.bmp
601.92	0.72	827	6	8	39	per	con	low	mod	low	nt	cr	nh/0114_nh.bmp
602.64	0.72	828	6	8	87	mem	con	mod	mod	low	nt	ms	nh/0647_nh.bmp
603.36	0.72	829	1	6	115	per	lib	low	low	low	tg	ms	wh/0244.bmp
604.08	0.72	830	6	6	36	mem	lib	mod	mod	low	nt	ht	nh/0064_nh.bmp
604.80	0.72	831	6	8	82	mem	con	mod	mod	low	tg	ht	wh/0143.bmp
605.52	0.72	832	6	5	44	mem	lib	mod	mod	mod	nt	ht	nh/0366_nh.bmp
606.24	0.72	833	5	7	36	mem	lib	mod	mod	low	nt	ms	nh/0848_nh.bmp
606.96	0.72	834	4	6	81	per	con	low	mod	low	tg	ms	wh/0820.bmp
607.68	0.72	835	6	5	31	per	lib	mod	mod	mod	nt	cr	nh/0851_nh.bmp
608.40	0.72	836	6	7	21	per	con	mod	mod	mod	tg	ms	wh/0399.bmp
609.12	0.72	837	6	7	32	per	con	mod	mod	mod	nt	cr	nh/0835_nh.bmp
609.84	0.72	838	6	5	12	per	lib	low	mod	low	nt	cr	nh/0193_nh.bmp
610.56	0.72	839	6	8	40	per	con	low	mod	low	nt	cr	nh/0176_nh.bmp
611.28	0.72	840	5	6	24	per	con	mod	mod	mod	tg	ht	wh/0833.bmp
612.00	0.72	841	5	8	109	per	lib	mod	mod	mod	tg	ht	wh/0958.bmp
612.72	0.72	842	6	6	94	per	con	low	mod	low	nt	cr	nh/0241_nh.bmp
613.44	0.72	843	6	8	52	per	lib	low	mod	low	nt	fa	nh/0612_nh.bmp
614.16	0.72	844	6	6	33	mem	lib	mod	mod	low	nt	ht	nh/0640_nh.bmp
614.88	0.72	845	6	6	92	per	con	low	mod	low	nt	cr	nh/1004_nh.bmp
615.60	0.72	846	6	7	35	mem	lib	mod	mod	low	nt	ms	nh/0255_nh.bmp
616.32	0.72	847	6	7	83	mem	con	mod	mod	mod	tg	ht	wh/0666.bmp
617.04	0.72	848	6	6	64	mem	con	mod	mod	mod	tg	ht	wh/0556.bmp
617.76	0.72	849	6	7	42	mem	lib	mod	mod	low	nt	ht	nh/0042_nh.bmp
618.48	0.72	850	6	5	26	per	lib	mod	mod	mod	tg	ht	wh/0602.bmp
619.20	0.72	851	6	7	92	mem	con	mod	mod	mod	nt	ms	nh/0968_nh.bmp
619.92	0.72	852	5	6	81	per	con	low	mod	low	tg	ms	wh/0820.bmp
620.64	0.72	853	1	7	128	per	lib	mod	low	mod	nt	cr	nh/0663_nh.bmp
621.36	0.72	854	6	5	48	mem	lib	mod	mod	mod	tg	ht	wh/0971.bmp
622.08	0.72	855	5	8	19	mem	lib	mod	mod	mod	tg	ht	wh/0544.bmp
622.80	0.72	856	1	8	79	mem	con	low	low	mod	nt	ms	nh/0980_nh.bmp
623.52	0.72	857	5	7	95	mem	con	mod	mod	mod	nt	ms	nh/0590_nh.bmp
624.24	0.72	858	5	6	60	mem	con	mod	mod	mod	tg	ht	wh/0694.bmp
624.96	0.72	859	5	5	13	per	lib	low	mod	low	tg	ht	wh/0403.bmp
625.68	0.72	860	6	7	28	per	con	mod	mod	mod	nt	cr	nh/0318_nh.bmp
626.40	0.72	861	6	8	27	mem	lib	mod	mod	mod	tg	ht	wh/0552.bmp
627.12	0.72	862	1	7	7	mem	lib	low	low	low	nt	ht	nh/0089_nh.bmp
627.84	0.72	863	6	6	81	per	con	low	mod	low	tg	ms	wh/0820.bmp
628.56	0.72	864	6	6	93	per	con	low	mod	low	nt	cr	nh/0574_nh.bmp
629.28	0.72	865	1	8	65	mem	con	low	low	mod	nt	ms	nh/0688_nh.bmp
630.00	0.72	866	5	6	87	per	con	low	mod	low	nt	cr	nh/0875_nh.bmp
630.72	0.72	867	5	5	25	per	lib	mod	mod	mod	nt	fa	nh/0495_nh.bmp
631.44	0.72	868	6	7	84	mem	con	mod	mod	mod	nt	ht	nh/0827_nh.bmp
632.16	0.72	869	6	6	87	per	con	low	mod	low	nt	cr	nh/0875_nh.bmp
632.88	0.72	870	6	6	62	mem	con	mod	mod	mod	tg	ht	wh/0603.bmp
633.60	0.72	871	6	8	48	per	con	low	mod	low	tg	ms	wh/0756.bmp
634.32	0.72	872	6	7	88	mem	con	mod	mod	mod	tg	ht	wh/0638.bmp
635.04	0.72	873	6	5	21	per	lib	mod	mod	mod	tg	ht	wh/0871.bmp
635.76	0.72	874	6	5	46	mem	lib	mod	mod	mod	nt	ms	nh/0056_nh.bmp
636.48	0.72	875	6	6	43	mem	lib	mod	mod	low	tg	ht	wh/0139.bmp
637.20	0.72	876	6	8	100	per	lib	mod	mod	mod	tg	ht	wh/0546.bmp
637.92	0.72	877	6	5	87	mem	con	mod	mod	low	nt	ms	nh/0018_nh.bmp
638.64	0.72	878	6	7	95	mem	con	mod	mod	mod	nt	ms	nh/0590_nh.bmp
639.36	0.72	879	6	7	36	mem	lib	mod	mod	low	nt	ms	nh/0848_nh.bmp
640.08	0.72	880	6	5	24	per	lib	mod	mod	mod	nt	cr	nh/0715_nh.bmp
640.80	0.72	881	6	5	25	per	lib	mod	mod	mod	nt	fa	nh/0495_nh.bmp
641.52	0.72	882	6	5	23	per	lib	mod	mod	mod	nt	fa	nh/0764_nh.bmp
642.24	0.72	883	6	8	109	per	lib	mod	mod	mod	tg	ht	wh/0958.bmp
642.96	0.72	884	6	6	55	mem	con	mod	mod	mod	nt	ht	nh/0717_nh.bmp
643.68	0.72	885	6	8	57	per	lib	low	mod	low	nt	fa	nh/0024_nh.bmp
644.40	0.72	886	1	6	2	mem	lib	low	low	low	nt	ms	nh/0825_nh.bmp
645.12	0.72	887	6	6	24	per	con	mod	mod	mod	tg	ht	wh/0833.bmp
645.84	0.72	888	6	8	49	per	lib	low	mod	low	nt	cr	nh/0519_nh.bmp
646.56	0.72	889	6	7	33	mem	lib	mod	mod	low	tg	ht	wh/0521.bmp
647.28	0.72	890	6	8	19	mem	lib	mod	mod	mod	tg	ht	wh/0544.bmp
648.00	0.72	891	6	8	110	per	lib	mod	mod	mod	tg	ht	wh/0420.bmp
648.72	0.72	892	6	7	27	per	con	mod	mod	mod	nt	fa	nh/0086_nh.bmp
649.44	0.72	893	6	5	38	mem	lib	mod	mod	mod	tg	ht	wh/0436.bmp
650.16	0.72	894	6	6	23	per	con	mod	mod	mod	tg	ht	wh/0408.bmp
650.88	0.72	895	6	6	60	mem	con	mod	mod	mod	tg	ht	wh/0694.bmp
651.60	0.72	896	6	5	13	per	lib	low	mod	low	tg	ht	wh/0403.bmp
