onset	duration	trial	pres	ts_blk	ts_trl	task	crit	disc	mem_disc	per_disc	per_type	accuracy	stim_file
7.20	0.72	1	1	1	58	per	con	low	mod	low	tg	ms	wh/0444.bmp
7.92	0.72	2	1	4	124	per	lib	mod	mod	mod	nt	cr	nh/0358_nh.bmp
8.64	0.72	3	1	4	19	per	con	mod	mod	mod	tg	ht	wh/0151.bmp
9.36	0.72	4	1	2	101	mem	lib	mod	mod	mod	nt	ht	nh/0359_nh.bmp
10.08	0.72	5	1	4	42	per	con	low	mod	low	tg	ht	wh/0291.bmp
10.80	0.72	6	1	2	111	mem	lib	mod	mod	mod	tg	ht	wh/0333.bmp
11.52	0.72	7	1	2	52	mem	con	mod	mod	mod	nt	ms	nh/0665_nh.bmp
12.24	0.72	8	1	1	51	per	con	low	mod	low	tg	ms	wh/0295.bmp
12.96	0.72	9	1	3	107	mem	lib	mod	mod	mod	nt	ht	nh/0427_nh.bmp
13.68	0.72	10	1	3	112	mem	lib	mod	mod	mod	tg	ht	wh/0365.bmp
14.40	0.72	11	1	1	3	mem	con	mod	mod	low	nt	ht	nh/0438_nh.bmp
15.12	0.72	12	1	4	103	mem	con	mod	mod	mod	tg	ht	wh/0448.bmp
15.84	0.72	13	1	4	69	mem	lib	mod	mod	low	nt	ht	nh/0400_nh.bmp
16.56	0.72	14	2	4	69	mem	lib	mod	mod	low	nt	ht	nh/0400_nh.bmp
17.28	0.72	15	1	4	88	per	lib	low	mod	low	tg	ht	wh/0512.bmp
18.00	0.72	16	1	4	66	mem	lib	mod	mod	low	nt	ht	nh/0283_nh.bmp
18.72	0.72	17	1	1	83	mem	lib	mod	mod	low	nt	n/a	nh/0671_nh.bmp
19.44	0.72	18	1	4	79	mem	lib	mod	mod	low	nt	ms	nh/1000_nh.bmp
20.16	0.72	19	1	1	57	per	con	low	mod	low	tg	ms	wh/0415.bmp
20.88	0.72	20	1	1	61	per	con	low	mod	low	nt	cr	nh/0791_nh.bmp
21.60	0.72	21	1	3	109	mem	lib	mod	mod	mod	nt	ms	nh/0061_nh.bmp
22.32	0.72	22	1	2	51	mem	con	mod	mod	mod	tg	ht	wh/0796.bmp
23.04	0.72	23	1	2	47	per	lib	mod	mod	mod	nt	cr	nh/0674_nh.bmp
23.76	0.72	24	1	1	127	per	con	mod	mod	mod	tg	ht	wh/0742.bmp
24.48	0.72	25	1	4	48	per	con	low	mod	low	nt	cr	nh/0424_nh.bmp
25.20	0.72	26	1	4	113	per	lib	mod	mod	mod	nt	cr	nh/0759_nh.bmp
25.92	0.72	27	1	2	60	mem	con	mod	mod	mod	tg	ms	wh/0738.bmp
26.64	0.72	28	1	4	37	per	con	low	mod	low	nt	cr	nh/0236_nh.bmp
27.36	0.72	29	1	1	59	per	con	low	mod	low	nt	cr	nh/0494_nh.bmp
28.08	0.72	30	1	1	41	mem	con	low	low	low	nt	ms	nh/0078_nh.bmp
28.80	0.72	31	1	1	116	per	con	mod	mod	mod	tg	ht	wh/0320.bmp
29.52	0.72	32	1	2	100	mem	lib	mod	mod	mod	tg	ht	wh/0562.bmp
30.24	0.72	33	2	2	51	mem	con	mod	mod	mod	tg	ht	wh/0796.bmp
30.96	0.72	34	1	2	65	per	lib	low	low	low	tg	ht	wh/0327.bmp
31.68	0.72	35	1	4	1	mem	lib	low	low	mod	tg	ms	wh/0606.bmp
32.40	0.72	36	1	2	46	per	lib	mod	mod	mod	nt	cr	nh/0583_nh.bmp
33.12	0.72	37	1	2	99	mem	lib	mod	mod	mod	tg	ms	wh/0628.bmp
33.84	0.72	38	1	2	61	mem	con	mod	mod	mod	tg	ms	wh/0961.bmp
34.56	0.72	39	2	4	66	mem	lib	mod	mod	low	nt	ht	nh/0283_nh.bmp
35.28	0.72	40	2	4	37	per	con	low	mod	low	nt	cr	nh/0236_nh.bmp
36.00	0.72	41	2	1	3	mem	con	mod	mod	low	nt	ht	nh/0438_nh.bmp
36.72	0.72	42	2	1	116	per	con	mod	mod	mod	tg	ht	wh/0320.bmp
37.44	0.72	43	1	2	32	per	con	mod	low	mod	nt	fa	nh/0886_nh.bmp
38.16	0.72	44	1	1	76	per	lib	low	mod	low	nt	cr	nh/0323_nh.bmp
38.88	0.72	45	2	2	61	mem	con	mod	mod	mod	tg	ms	wh/0961.bmp
39.60	0.72	46	1	1	9	mem	con	mod	mod	low	nt	ms	nh/0554_nh.bmp
40.32	0.72	47	1	1	72	per	lib	low	mod	low	nt	cr	nh/0386_nh.bmp
41.04	0.72	48	1	4	43	per	con	low	mod	low	nt	cr	nh/0798_nh.bmp
41.76	0.72	49	1	2	14	mem	con	low	low	mod	tg	ht	wh/0630.bmp
42.48	0.72	50	1	3	5	mem	con	low	low	mod	tg	ht	wh/0317.bmp
43.20	0.72	51	1	2	45	per	lib	mod	mod	mod	nt	cr	nh/0970_nh.bmp
43.92	0.72	52	1	2	20	per	con	mod	low	mod	tg	ht	wh/0950.bmp
44.64	0.72	53	1	1	94	mem	lib	mod	mod	low	nt	ms	nh/0672_nh.bmp
45.36	0.72	54	3	1	116	per	con	mod	mod	mod	tg	ht	wh/0320.bmp
46.08	0.72	55	1	4	111	mem	con	mod	mod	mod	nt	ms	nh/0479_nh.bmp
46.80	0.72	56	1	1	14	mem	con	mod	mod	low	tg	ht	wh/0412.bmp
47.52	0.72	57	1	2	72	per	lib	low	low	low	tg	ht	wh/0110.bmp
48.24	0.72	58	1	1	98	mem	lib	low	low	mod	nt	ms	nh/0773_nh.bmp
48.96	0.72	59	2	3	112	mem	lib	mod	mod	mod	tg	ht	wh/0365.bmp
49.68	0.72	60	1	4	80	mem	lib	mod	mod	low	tg	ht	wh/0641.bmp
50.40	0.72	61	1	4	105	mem	con	mod	mod	mod	nt	ms	nh/0806_nh.bmp
51.12	0.72	62	1	1	125	per	con	mod	mod	mod	nt	cr	nh/1010_nh.bmp
51.84	0.72	63	1	3	47	mem	con	mod	mod	low	tg	ht	wh/0030.bmp
52.56	0.72	64	1	4	128	per	lib	mod	mod	mod	tg	ht	wh/0477.bmp
53.28	0.72	65	1	4	102	mem	con	mod	mod	mod	nt	ms	nh/0689_nh.bmp
54.00	0.72	66	1	3	64	mem	lib	low	low	low	nt	ms	nh/0130_nh.bmp
54.72	0.72	67	2	4	79	mem	lib	mod	mod	low	nt	ms	nh/1000_nh.bmp
55.44	0.72	68	1	3	126	per	lib	mod	low	mod	tg	ht	wh/0230.bmp
56.16	0.72	69	1	4	126	per	lib	mod	mod	mod	nt	cr	nh/0834_nh.bmp
56.88	0.72	70	1	4	83	per	lib	low	mod	low	nt	cr	nh/0757_nh.bmp
57.60	0.72	71	1	2	54	mem	con	mod	mod	mod	tg	ms	wh/0137.bmp
58.32	0.72	72	1	3	13	mem	con	low	low	mod	nt	ms	nh/0826_nh.bmp
59.04	0.72	73	1	2	75	per	lib	low	low	low	tg	ht	wh/0783.bmp
59.76	0.72	74	1	2	102	mem	lib	mod	mod	mod	nt	ht	nh/0331_nh.bmp
60.48	0.72	75	1	2	112	mem	lib	mod	mod	mod	nt	ms	nh/0097_nh.bmp
61.20	0.72	76	1	1	39	mem	con	low	low	low	tg	ms	wh/0989.bmp
61.92	0.72	77	1	2	11	mem	con	low	low	mod	tg	ht	wh/0003.bmp
62.64	0.72	78	1	1	7	mem	con	mod	mod	low	nt	ht	nh/0914_nh.bmp
63.36	0.72	79	2	1	58	per	con	low	mod	low	tg	ms	wh/0444.bmp
64.08	0.72	80	1	4	87	per	lib	low	mod	low	nt	fa	nh/0067_nh.bmp
64.80	0.72	81	1	4	90	per	lib	low	mod	low	nt	cr	nh/0643_nh.bmp
65.52	0.72	82	2	4	42	per	con	low	mod	low	tg	ht	wh/0291.bmp
66.24	0.72	83	2	2	101	mem	lib	mod	mod	mod	nt	ht	nh/0359_nh.bmp
66.96	0.72	84	1	2	58	mem	con	mod	mod	mod	nt	ms	nh/0279_nh.bmp
67.68	0.72	85	2	4	48	per	con	low	mod	low	nt	cr	nh/0424_nh.bmp
68.40	0.72	86	1	1	62	per	con	low	mod	low	nt	fa	nh/0007_nh.bmp
69.12	0.72	87	2	2	45	per	lib	mod	mod	mod	nt	cr	nh/0970_nh.bmp
69.84	0.72	88	1	1	123	per	con	mod	mod	mod	tg	ht	wh/0071.bmp
70.56	0.72	89	2	1	9	mem	con	mod	mod	low	nt	ms	nh/0554_nh.bmp
71.28	0.72	90	1	1	77	per	lib	low	mod	low	tg	ht	wh/0124.bmp
72.00	0.72	91	2	4	102	mem	con	mod	mod	mod	nt	ms	nh/0689_nh.bmp
72.72	0.72	92	2	2	58	mem	con	mod	mod	mod	nt	ms	nh/0279_nh.bmp
73.44	0.72	93	2	4	105	mem	con	mod	mod	mod	nt	ms	nh/0806_nh.bmp
74.16	0.72	94	1	2	62	mem	con	mod	mod	mod	nt	ms	nh/0645_nh.bmp
74.88	0.72	95	1	4	59	mem	con	low	low	low	tg	ms	wh/0824.bmp
75.60	0.72	96	2	2	102	mem	lib	mod	mod	mod	nt	ht	nh/0331_nh.bmp
76.32	0.72	97	2	4	83	per	lib	low	mod	low	nt	cr	nh/0757_nh.bmp
77.04	0.72	98	1	4	27	per	con	mod	mod	mod	nt	cr	nh/0490_nh.bmp
77.76	0.72	99	3	2	45	per	lib	mod	mod	mod	nt	cr	nh/0970_nh.bmp
78.48	0.72	100	2	1	51	per	con	low	mod	low	tg	ms	wh/0295.bmp
79.20	0.72	101	2	4	90	per	lib	low	mod	low	nt	cr	nh/0643_nh.bmp
79.92	0.72	102	1	4	122	per	lib	mod	mod	mod	tg	ms	wh/0809.bmp
80.64	0.72	103	1	4	74	mem	lib	mod	mod	low	tg	ht	wh/0454.bmp
81.36	0.72	104	2	3	47	mem	con	mod	mod	low	tg	ht	wh/0030.bmp
82.08	0.72	105	2	4	43	per	con	low	mod	low	nt	cr	nh/0798_nh.bmp
82.80	0.72	106	1	1	28	per	lib	mod	low	mod	nt	cr	nh/0050_nh.bmp
83.52	0.72	107	2	4	111	mem	con	mod	mod	mod	nt	ms	nh/0479_nh.bmp
84.24	0.72	108	1	4	71	mem	lib	mod	mod	low	nt	ms	nh/0195_nh.bmp
84.96	0.72	109	1	4	11	mem	lib	low	low	mod	nt	ms	nh/0539_nh.bmp
85.68	0.72	110	1	2	56	mem	con	mod	mod	mod	nt	ht	nh/0925_nh.bmp
86.40	0.72	111	2	1	123	per	con	mod	mod	mod	tg	ht	wh/0071.bmp
87.12	0.72	112	1	2	110	mem	lib	mod	mod	mod	nt	ht	nh/0313_nh.bmp
87.84	0.72	113	2	2	100	mem	lib	mod	mod	mod	tg	ht	wh/0562.bmp
88.56	0.72	114	3	4	102	mem	con	mod	mod	mod	nt	ms	nh/0689_nh.bmp
89.28	0.72	115	1	2	42	per	lib	mod	mod	mod	nt	cr	nh/0348_nh.bmp
90.00	0.72	116	3	4	48	per	con	low	mod	low	nt	cr	nh/0424_nh.bmp
90.72	0.72	117	1	4	31	per	con	mod	mod	mod	nt	cr	nh/0753_nh.bmp
91.44	0.72	118	2	4	87	per	lib	low	mod	low	nt	fa	nh/0067_nh.bmp
92.16	0.72	119	1	1	49	per	con	low	mod	low	nt	cr	nh/1013_nh.bmp
92.88	0.72	120	1	1	80	per	lib	low	mod	low	nt	fa	nh/0203_nh.bmp
93.60	0.72	121	1	4	36	per	con	low	mod	low	tg	ms	wh/0390.bmp
94.32	0.72	122	1	4	112	mem	con	mod	mod	mod	tg	ms	wh/0664.bmp
95.04	0.72	123	1	2	87	per	con	low	low	low	nt	fa	nh/0107_nh.bmp
95.76	0.72	124	3	1	3	mem	con	mod	mod	low	nt	ht	nh/0438_nh.bmp
96.48	0.72	125	1	1	66	per	lib	low	mod	low	tg	ht	wh/0661.bmp
97.20	0.72	126	2	2	56	mem	con	mod	mod	mod	nt	ht	nh/0925_nh.bmp
97.92	0.72	127	1	3	92	per	lib	low	low	low	tg	ms	wh/0264.bmp
98.64	0.72	128	3	4	37	per	con	low	mod	low	nt	cr	nh/0236_nh.bmp
99.36	0.72	129	1	3	35	mem	con	mod	mod	low	nt	ht	nh/0081_nh.bmp
100.08	0.72	130	1	3	110	mem	lib	mod	mod	mod	nt	ms	nh/0072_nh.bmp
100.80	0.72	131	1	4	116	per	lib	mod	mod	mod	tg	ht	wh/0861.bmp
101.52	0.72	132	2	4	36	per	con	low	mod	low	tg	ms	wh/0390.bmp
102.24	0.72	133	2	4	71	mem	lib	mod	mod	low	nt	ms	nh/0195_nh.bmp
102.96	0.72	134	1	1	96	mem	lib	mod	mod	low	tg	ms	wh/0212.bmp
103.68	0.72	135	1	4	99	mem	con	mod	mod	mod	tg	ht	wh/0895.bmp
104.40	0.72	136	1	3	99	mem	lib	mod	mod	mod	tg	ht	wh/0931.bmp
105.12	0.72	137	1	1	6	mem	con	mod	mod	low	tg	ht	wh/0459.bmp
105.84	0.72	138	1	1	68	per	lib	low	mod	low	tg	ms	wh/0988.bmp
106.56	0.72	139	3	1	58	per	con	low	mod	low	tg	ms	wh/0444.bmp
107.28	0.72	140	2	2	111	mem	lib	mod	mod	mod	tg	ht	wh/0333.bmp
108.00	0.72	141	1	3	124	per	lib	mod	low	mod	nt	cr	nh/0894_nh.bmp
108.72	0.72	142	1	1	91	mem	lib	mod	mod	low	tg	ht	wh/0496.bmp
109.44	0.72	143	3	1	9	mem	con	mod	mod	low	nt	ms	nh/0554_nh.bmp
110.16	0.72	144	2	3	107	mem	lib	mod	mod	mod	nt	ht	nh/0427_nh.bmp
110.88	0.72	145	2	2	60	mem	con	mod	mod	mod	tg	ms	wh/0738.bmp
111.60	0.72	146	3	1	123	per	con	mod	mod	mod	tg	ht	wh/0071.bmp
112.32	0.72	147	2	1	14	mem	con	mod	mod	low	tg	ht	wh/0412.bmp
113.04	0.72	148	1	3	44	mem	con	mod	mod	low	tg	ms	wh/0246.bmp
113.76	0.72	149	2	1	66	per	lib	low	mod	low	tg	ht	wh/0661.bmp
114.48	0.72	150	1	3	108	mem	lib	mod	mod	mod	tg	ht	wh/0049.bmp
115.20	0.72	151	1	1	5	mem	con	mod	mod	low	tg	ms	wh/0263.bmp
115.92	0.72	152	1	3	40	mem	con	mod	mod	low	tg	ht	wh/0410.bmp
116.64	0.72	153	1	4	21	per	con	mod	mod	mod	tg	ht	wh/0705.bmp
117.36	0.72	154	1	1	111	mem	lib	low	low	mod	nt	ht	nh/0517_nh.bmp
118.08	0.72	155	2	4	112	mem	con	mod	mod	mod	tg	ms	wh/0664.bmp
118.80	0.72	156	1	4	97	mem	con	mod	mod	mod	nt	ms	nh/0592_nh.bmp
119.52	0.72	157	2	2	112	mem	lib	mod	mod	mod	nt	ms	nh/0097_nh.bmp
120.24	0.72	158	1	4	78	mem	lib	mod	mod	low	tg	ms	wh/0132.bmp
120.96	0.72	159	1	1	67	per	lib	low	mod	low	tg	ms	wh/0511.bmp
121.68	0.72	160	1	3	42	mem	con	mod	mod	low	nt	ht	nh/0509_nh.bmp
122.40	0.72	161	2	1	127	per	con	mod	mod	mod	tg	ht	wh/0742.bmp
123.12	0.72	162	1	3	97	mem	lib	mod	mod	mod	tg	ms	wh/0604.bmp
123.84	0.72	163	4	2	45	per	lib	mod	mod	mod	nt	cr	nh/0970_nh.bmp
124.56	0.72	164	3	4	111	mem	con	mod	mod	mod	nt	ms	nh/0479_nh.bmp
125.28	0.72	165	3	4	71	mem	lib	mod	mod	low	nt	ms	nh/0195_nh.bmp
126.00	0.72	166	1	1	75	per	lib	low	mod	low	nt	cr	nh/0368_nh.bmp
126.72	0.72	167	2	1	83	mem	lib	mod	mod	low	nt	n/a	nh/0671_nh.bmp
127.44	0.72	168	3	2	112	mem	lib	mod	mod	mod	nt	ms	nh/0097_nh.bmp
128.16	0.72	169	1	4	3	mem	lib	low	low	mod	nt	ht	nh/0667_nh.bmp
128.88	0.72	170	2	1	61	per	con	low	mod	low	nt	cr	nh/0791_nh.bmp
129.60	0.72	171	1	3	118	per	lib	mod	low	mod	nt	cr	nh/0304_nh.bmp
130.32	0.72	172	1	1	90	mem	lib	mod	mod	low	tg	ht	wh/0882.bmp
131.04	0.72	173	1	2	76	per	lib	low	low	low	tg	ht	wh/0335.bmp
131.76	0.72	174	1	3	52	mem	lib	low	low	low	nt	ht	nh/0430_nh.bmp
132.48	0.72	175	2	1	96	mem	lib	mod	mod	low	tg	ms	wh/0212.bmp
133.20	0.72	176	1	4	81	per	lib	low	mod	low	tg	ms	wh/0976.bmp
133.92	0.72	177	3	4	87	per	lib	low	mod	low	nt	fa	nh/0067_nh.bmp
134.64	0.72	178	2	4	27	per	con	mod	mod	mod	nt	cr	nh/0490_nh.bmp
135.36	0.72	179	1	1	88	mem	lib	mod	mod	low	nt	ht	nh/0259_nh.bmp
136.08	0.72	180	4	1	123	per	con	mod	mod	mod	tg	ht	wh/0071.bmp
136.80	0.72	181	4	1	3	mem	con	mod	mod	low	nt	ht	nh/0438_nh.bmp
137.52	0.72	182	2	4	116	per	lib	mod	mod	mod	tg	ht	wh/0861.bmp
138.24	0.72	183	2	1	91	mem	lib	mod	mod	low	tg	ht	wh/0496.bmp
138.96	0.72	184	2	4	88	per	lib	low	mod	low	tg	ht	wh/0512.bmp
139.68	0.72	185	2	4	103	mem	con	mod	mod	mod	tg	ht	wh/0448.bmp
140.40	0.72	186	1	4	91	per	lib	low	mod	low	tg	ms	wh/0683.bmp
141.12	0.72	187	1	1	121	per	con	mod	mod	mod	nt	cr	nh/0487_nh.bmp
141.84	0.72	188	2	1	125	per	con	mod	mod	mod	nt	cr	nh/1010_nh.bmp
142.56	0.72	189	3	1	127	per	con	mod	mod	mod	tg	ht	wh/0742.bmp
143.28	0.72	190	1	3	100	mem	lib	mod	mod	mod	nt	ht	nh/0943_nh.bmp
144.00	0.72	191	2	3	42	mem	con	mod	mod	low	nt	ht	nh/0509_nh.bmp
144.72	0.72	192	1	1	46	mem	con	low	low	low	tg	ht	wh/0169.bmp
145.44	0.72	193	3	1	14	mem	con	mod	mod	low	tg	ht	wh/0412.bmp
146.16	0.72	194	2	4	80	mem	lib	mod	mod	low	tg	ht	wh/0641.bmp
146.88	0.72	195	2	1	59	per	con	low	mod	low	nt	cr	nh/0494_nh.bmp
147.60	0.72	196	1	1	11	mem	con	mod	mod	low	nt	ht	nh/0765_nh.bmp
148.32	0.72	197	1	2	123	mem	lib	low	low	low	tg	ms	wh/0987.bmp
149.04	0.72	198	2	3	109	mem	lib	mod	mod	mod	nt	ms	nh/0061_nh.bmp
149.76	0.72	199	2	1	7	mem	con	mod	mod	low	nt	ht	nh/0914_nh.bmp
150.48	0.72	200	1	1	18	per	lib	mod	low	mod	nt	cr	nh/0555_nh.bmp
151.20	0.72	201	4	4	37	per	con	low	mod	low	nt	cr	nh/0236_nh.bmp
151.92	0.72	202	1	1	119	per	con	mod	mod	mod	tg	ht	wh/0901.bmp
152.64	0.72	203	1	3	39	mem	con	mod	mod	low	nt	ms	nh/0315_nh.bmp
153.36	0.72	204	3	1	7	mem	con	mod	mod	low	nt	ht	nh/0914_nh.bmp
154.08	0.72	205	5	1	3	mem	con	mod	mod	low	nt	ht	nh/0438_nh.bmp
154.80	0.72	206	3	4	112	mem	con	mod	mod	mod	tg	ms	wh/0664.bmp
155.52	0.72	207	2	1	11	mem	con	mod	mod	low	nt	ht	nh/0765_nh.bmp
156.24	0.72	208	1	4	44	per	con	low	mod	low	tg	ht	wh/0131.bmp
156.96	0.72	209	3	3	47	mem	con	mod	mod	low	tg	ht	wh/0030.bmp
157.68	0.72	210	2	4	124	per	lib	mod	mod	mod	nt	cr	nh/0358_nh.bmp
158.40	0.72	211	2	1	57	per	con	low	mod	low	tg	ms	wh/0415.bmp
159.12	0.72	212	4	1	127	per	con	mod	mod	mod	tg	ht	wh/0742.bmp
159.84	0.72	213	1	2	68	per	lib	low	low	low	nt	cr	nh/0167_nh.bmp
160.56	0.72	214	1	1	113	per	con	mod	mod	mod	nt	fa	nh/0576_nh.bmp
161.28	0.72	215	2	4	99	mem	con	mod	mod	mod	tg	ht	wh/0895.bmp
162.00	0.72	216	1	4	41	per	con	low	mod	low	tg	ms	wh/0523.bmp
162.72	0.72	217	4	1	7	mem	con	mod	mod	low	nt	ht	nh/0914_nh.bmp
163.44	0.72	218	4	4	112	mem	con	mod	mod	mod	tg	ms	wh/0664.bmp
164.16	0.72	219	1	2	105	mem	lib	mod	mod	mod	tg	ms	wh/0799.bmp
164.88	0.72	220	3	1	125	per	con	mod	mod	mod	nt	cr	nh/1010_nh.bmp
165.60	0.72	221	3	4	42	per	con	low	mod	low	tg	ht	wh/0291.bmp
166.32	0.72	222	3	1	91	mem	lib	mod	mod	low	tg	ht	wh/0496.bmp
167.04	0.72	223	2	4	126	per	lib	mod	mod	mod	nt	cr	nh/0834_nh.bmp
167.76	0.72	224	1	4	4	mem	lib	low	low	mod	tg	ht	wh/0346.bmp
168.48	0.72	225	2	1	90	mem	lib	mod	mod	low	tg	ht	wh/0882.bmp
169.20	0.72	226	2	1	6	mem	con	mod	mod	low	tg	ht	wh/0459.bmp
169.92	0.72	227	2	4	19	per	con	mod	mod	mod	tg	ht	wh/0151.bmp
170.64	0.72	228	1	4	28	per	con	mod	mod	mod	tg	ht	wh/0343.bmp
171.36	0.72	229	2	2	52	mem	con	mod	mod	mod	nt	ms	nh/0665_nh.bmp
172.08	0.72	230	4	3	47	mem	con	mod	mod	low	tg	ht	wh/0030.bmp
172.80	0.72	231	3	4	126	per	lib	mod	mod	mod	nt	cr	nh/0834_nh.bmp
173.52	0.72	232	2	2	46	per	lib	mod	mod	mod	nt	cr	nh/0583_nh.bmp
174.24	0.72	233	1	1	50	per	con	low	mod	low	tg	ms	wh/0312.bmp
174.96	0.72	234	1	4	17	per	con	mod	mod	mod	tg	ms	wh/0538.bmp
175.68	0.72	235	2	2	47	per	lib	mod	mod	mod	nt	cr	nh/0674_nh.bmp
176.40	0.72	236	2	3	40	mem	con	mod	mod	low	tg	ht	wh/0410.bmp
177.12	0.72	237	1	3	19	per	con	low	low	low	tg	ms	wh/0026.bmp
177.84	0.72	238	2	3	35	mem	con	mod	mod	low	nt	ht	nh/0081_nh.bmp
178.56	0.72	239	1	3	87	per	lib	low	low	low	tg	ms	wh/0632.bmp
179.28	0.72	240	3	2	111	mem	lib	mod	mod	mod	tg	ht	wh/0333.bmp
180.00	0.72	241	3	1	66	per	lib	low	mod	low	tg	ht	wh/0661.bmp
180.72	0.72	242	1	1	101	mem	lib	low	low	mod	tg	ht	wh/0102.bmp
181.44	0.72	243	1	4	106	mem	con	mod	mod	mod	tg	ms	wh/0229.bmp
182.16	0.72	244	3	3	42	mem	con	mod	mod	low	nt	ht	nh/0509_nh.bmp
182.88	0.72	245	3	1	59	per	con	low	mod	low	nt	cr	nh/0494_nh.bmp
183.60	0.72	246	2	1	67	per	lib	low	mod	low	tg	ms	wh/0511.bmp
184.32	0.72	247	3	4	103	mem	con	mod	mod	mod	tg	ht	wh/0448.bmp
185.04	0.72	248	3	3	112	mem	lib	mod	mod	mod	tg	ht	wh/0365.bmp
185.76	0.72	249	3	1	6	mem	con	mod	mod	low	tg	ht	wh/0459.bmp
186.48	0.72	250	4	1	58	per	con	low	mod	low	tg	ms	wh/0444.bmp
187.20	0.72	251	2	1	88	mem	lib	mod	mod	low	nt	ht	nh/0259_nh.bmp
187.92	0.72	252	3	1	51	per	con	low	mod	low	tg	ms	wh/0295.bmp
188.64	0.72	253	1	4	55	mem	con	low	low	low	nt	ms	nh/0276_nh.bmp
189.36	0.72	254	3	2	51	mem	con	mod	mod	mod	tg	ht	wh/0796.bmp
190.08	0.72	255	3	4	80	mem	lib	mod	mod	low	tg	ht	wh/0641.bmp
190.80	0.72	256	2	4	17	per	con	mod	mod	mod	tg	ms	wh/0538.bmp
191.52	0.72	257	1	4	117	per	lib	mod	mod	mod	tg	ht	wh/0039.bmp
192.24	0.72	258	2	4	41	per	con	low	mod	low	tg	ms	wh/0523.bmp
192.96	0.72	259	3	1	57	per	con	low	mod	low	tg	ms	wh/0415.bmp
193.68	0.72	260	2	3	108	mem	lib	mod	mod	mod	tg	ht	wh/0049.bmp
194.40	0.72	261	3	4	124	per	lib	mod	mod	mod	nt	cr	nh/0358_nh.bmp
195.12	0.72	262	2	4	106	mem	con	mod	mod	mod	tg	ms	wh/0229.bmp
195.84	0.72	263	2	3	100	mem	lib	mod	mod	mod	nt	ht	nh/0943_nh.bmp
196.56	0.72	264	1	3	85	per	lib	low	low	low	nt	cr	nh/0310_nh.bmp
197.28	0.72	265	3	4	41	per	con	low	mod	low	tg	ms	wh/0523.bmp
198.00	0.72	266	1	1	128	per	con	mod	mod	mod	nt	cr	nh/1006_nh.bmp
198.72	0.72	267	4	2	111	mem	lib	mod	mod	mod	tg	ht	wh/0333.bmp
199.44	0.72	268	2	3	44	mem	con	mod	mod	low	tg	ms	wh/0246.bmp
200.16	0.72	269	1	1	27	per	lib	mod	low	mod	tg	ht	wh/0913.bmp
200.88	0.72	270	1	1	42	mem	con	low	low	low	tg	ht	wh/0357.bmp
201.60	0.72	271	4	1	59	per	con	low	mod	low	nt	cr	nh/0494_nh.bmp
202.32	0.72	272	4	3	112	mem	lib	mod	mod	mod	tg	ht	wh/0365.bmp
203.04	0.72	273	3	1	90	mem	lib	mod	mod	low	tg	ht	wh/0882.bmp
203.76	0.72	274	1	2	35	per	lib	mod	mod	mod	tg	ht	wh/0413.bmp
204.48	0.72	275	5	1	7	mem	con	mod	mod	low	nt	ht	nh/0914_nh.bmp
205.20	0.72	276	2	4	31	per	con	mod	mod	mod	nt	cr	nh/0753_nh.bmp
205.92	0.72	277	2	1	128	per	con	mod	mod	mod	nt	cr	nh/1006_nh.bmp
206.64	0.72	278	4	4	41	per	con	low	mod	low	tg	ms	wh/0523.bmp
207.36	0.72	279	1	3	73	per	con	mod	low	mod	nt	cr	nh/0474_nh.bmp
208.08	0.72	280	1	2	121	mem	lib	low	low	low	nt	ms	nh/0911_nh.bmp
208.80	0.72	281	3	2	52	mem	con	mod	mod	mod	nt	ms	nh/0665_nh.bmp
209.52	0.72	282	1	4	16	mem	lib	low	low	mod	tg	ms	wh/0557.bmp
210.24	0.72	283	3	3	100	mem	lib	mod	mod	mod	nt	ht	nh/0943_nh.bmp
210.96	0.72	284	1	4	2	mem	lib	low	low	mod	tg	ms	wh/0993.bmp
211.68	0.72	285	1	3	43	mem	con	mod	mod	low	nt	ht	nh/0575_nh.bmp
212.40	0.72	286	2	3	99	mem	lib	mod	mod	mod	tg	ht	wh/0931.bmp
213.12	0.72	287	4	4	102	mem	con	mod	mod	mod	nt	ms	nh/0689_nh.bmp
213.84	0.72	288	1	2	1	mem	con	low	low	mod	tg	ms	wh/0033.bmp
214.56	0.72	289	2	4	91	per	lib	low	mod	low	tg	ms	wh/0683.bmp
215.28	0.72	290	2	1	75	per	lib	low	mod	low	nt	cr	nh/0368_nh.bmp
216.00	0.72	291	1	2	34	per	lib	mod	mod	mod	tg	ht	wh/0104.bmp
216.72	0.72	292	1	2	33	per	lib	mod	mod	mod	tg	ht	wh/0761.bmp
217.44	0.72	293	3	4	79	mem	lib	mod	mod	low	nt	ms	nh/1000_nh.bmp
218.16	0.72	294	1	3	60	mem	lib	low	low	low	tg	ms	wh/0808.bmp
218.88	0.72	295	2	4	117	per	lib	mod	mod	mod	tg	ht	wh/0039.bmp
219.60	0.72	296	4	1	90	mem	lib	mod	mod	low	tg	ht	wh/0882.bmp
220.32	0.72	297	1	2	26	per	con	mod	low	mod	tg	ms	wh/0547.bmp
221.04	0.72	298	3	3	108	mem	lib	mod	mod	mod	tg	ht	wh/0049.bmp
221.76	0.72	299	1	3	59	mem	lib	low	low	low	tg	ht	wh/0127.bmp
222.48	0.72	300	1	2	4	mem	con	low	low	mod	nt	ms	nh/0567_nh.bmp
223.20	0.72	301	3	2	56	mem	con	mod	mod	mod	nt	ht	nh/0925_nh.bmp
223.92	0.72	302	3	3	99	mem	lib	mod	mod	mod	tg	ht	wh/0931.bmp
224.64	0.72	303	3	2	60	mem	con	mod	mod	mod	tg	ms	wh/0738.bmp
225.36	0.72	304	2	4	74	mem	lib	mod	mod	low	tg	ht	wh/0454.bmp
226.08	0.72	305	3	4	105	mem	con	mod	mod	mod	nt	ms	nh/0806_nh.bmp
226.80	0.72	306	2	2	34	per	lib	mod	mod	mod	tg	ht	wh/0104.bmp
227.52	0.72	307	2	2	110	mem	lib	mod	mod	mod	nt	ht	nh/0313_nh.bmp
228.24	0.72	308	3	4	99	mem	con	mod	mod	mod	tg	ht	wh/0895.bmp
228.96	0.72	309	3	4	66	mem	lib	mod	mod	low	nt	ht	nh/0283_nh.bmp
229.68	0.72	310	1	3	3	mem	con	low	low	mod	tg	ms	wh/0937.bmp
230.40	0.72	311	3	1	128	per	con	mod	mod	mod	nt	cr	nh/1006_nh.bmp
231.12	0.72	312	3	3	107	mem	lib	mod	mod	mod	nt	ht	nh/0427_nh.bmp
231.84	0.72	313	4	4	71	mem	lib	mod	mod	low	nt	ms	nh/0195_nh.bmp
232.56	0.72	314	2	3	97	mem	lib	mod	mod	mod	tg	ms	wh/0604.bmp
233.28	0.72	315	1	4	25	per	con	mod	mod	mod	nt	cr	nh/0282_nh.bmp
234.00	0.72	316	3	4	43	per	con	low	mod	low	nt	cr	nh/0798_nh.bmp
234.72	0.72	317	2	2	35	per	lib	mod	mod	mod	tg	ht	wh/0413.bmp
235.44	0.72	318	1	1	107	mem	lib	low	low	mod	nt	ms	nh/0917_nh.bmp
236.16	0.72	319	3	4	90	per	lib	low	mod	low	nt	cr	nh/0643_nh.bmp
236.88	0.72	320	1	3	128	per	lib	mod	low	mod	tg	ht	wh/0004.bmp
237.60	0.72	321	4	3	99	mem	lib	mod	mod	mod	tg	ht	wh/0931.bmp
238.32	0.72	322	2	1	77	per	lib	low	mod	low	tg	ht	wh/0124.bmp
239.04	0.72	323	1	3	38	mem	con	mod	mod	low	tg	ms	wh/0166.bmp
239.76	0.72	324	2	1	119	per	con	mod	mod	mod	tg	ht	wh/0901.bmp
240.48	0.72	325	4	4	124	per	lib	mod	mod	mod	nt	cr	nh/0358_nh.bmp
241.20	0.72	326	1	2	17	per	con	mod	low	mod	tg	ht	wh/0991.bmp
241.92	0.72	327	3	4	117	per	lib	mod	mod	mod	tg	ht	wh/0039.bmp
242.64	0.72	328	2	2	99	mem	lib	mod	mod	mod	tg	ms	wh/0628.bmp
243.36	0.72	329	2	2	42	per	lib	mod	mod	mod	nt	cr	nh/0348_nh.bmp
244.08	0.72	330	1	3	80	per	con	mod	low	mod	nt	cr	nh/0409_nh.bmp
244.80	0.72	331	1	4	50	mem	con	low	low	low	tg	ht	wh/0356.bmp
245.52	0.72	332	1	4	24	per	con	mod	mod	mod	nt	cr	nh/0445_nh.bmp
246.24	0.72	333	3	4	88	per	lib	low	mod	low	tg	ht	wh/0512.bmp
246.96	0.72	334	1	4	53	mem	con	low	low	low	nt	ms	nh/0743_nh.bmp
247.68	0.72	335	1	2	13	mem	con	low	low	mod	tg	ms	wh/0062.bmp
248.40	0.72	336	1	4	35	per	con	low	mod	low	nt	cr	nh/0615_nh.bmp
249.12	0.72	337	1	4	86	per	lib	low	mod	low	tg	ms	wh/0792.bmp
249.84	0.72	338	2	3	110	mem	lib	mod	mod	mod	nt	ms	nh/0072_nh.bmp
250.56	0.72	339	3	4	19	per	con	mod	mod	mod	tg	ht	wh/0151.bmp
251.28	0.72	340	5	1	90	mem	lib	mod	mod	low	tg	ht	wh/0882.bmp
252.00	0.72	341	1	4	12	mem	lib	low	low	mod	nt	ht	nh/1020_nh.bmp
252.72	0.72	342	4	1	91	mem	lib	mod	mod	low	tg	ht	wh/0496.bmp
253.44	0.72	343	3	2	100	mem	lib	mod	mod	mod	tg	ht	wh/0562.bmp
254.16	0.72	344	1	2	79	per	lib	low	low	low	nt	cr	nh/0161_nh.bmp
254.88	0.72	345	1	4	114	per	lib	mod	mod	mod	nt	cr	nh/0344_nh.bmp
255.60	0.72	346	2	1	5	mem	con	mod	mod	low	tg	ms	wh/0263.bmp
256.32	0.72	347	3	2	99	mem	lib	mod	mod	mod	tg	ms	wh/0628.bmp
257.04	0.72	348	2	3	38	mem	con	mod	mod	low	tg	ms	wh/0166.bmp
257.76	0.72	349	2	2	33	per	lib	mod	mod	mod	tg	ht	wh/0761.bmp
258.48	0.72	350	4	3	108	mem	lib	mod	mod	mod	tg	ht	wh/0049.bmp
259.20	0.72	351	2	1	49	per	con	low	mod	low	nt	cr	nh/1013_nh.bmp
259.92	0.72	352	1	3	20	per	con	low	low	low	nt	cr	nh/0500_nh.bmp
260.64	0.72	353	4	2	112	mem	lib	mod	mod	mod	nt	ms	nh/0097_nh.bmp
261.36	0.72	354	3	3	40	mem	con	mod	mod	low	tg	ht	wh/0410.bmp
262.08	0.72	355	2	1	80	per	lib	low	mod	low	nt	fa	nh/0203_nh.bmp
262.80	0.72	356	1	3	25	per	con	low	low	low	tg	ht	wh/0242.bmp
263.52	0.72	357	4	3	100	mem	lib	mod	mod	mod	nt	ht	nh/0943_nh.bmp
264.24	0.72	358	3	4	116	per	lib	mod	mod	mod	tg	ht	wh/0861.bmp
264.96	0.72	359	2	3	43	mem	con	mod	mod	low	nt	ht	nh/0575_nh.bmp
265.68	0.72	360	5	3	100	mem	lib	mod	mod	mod	nt	ht	nh/0943_nh.bmp
266.40	0.72	361	3	2	61	mem	con	mod	mod	mod	tg	ms	wh/0961.bmp
267.12	0.72	362	2	1	72	per	lib	low	mod	low	nt	cr	nh/0386_nh.bmp
267.84	0.72	363	2	4	113	per	lib	mod	mod	mod	nt	cr	nh/0759_nh.bmp
268.56	0.72	364	3	2	101	mem	lib	mod	mod	mod	nt	ht	nh/0359_nh.bmp
269.28	0.72	365	1	2	89	per	con	low	low	low	tg	ms	wh/0245.bmp
270.00	0.72	366	5	1	91	mem	lib	mod	mod	low	tg	ht	wh/0496.bmp
270.72	0.72	367	4	4	117	per	lib	mod	mod	mod	tg	ht	wh/0039.bmp
271.44	0.72	368	1	2	120	mem	lib	low	low	low	nt	ht	nh/0505_nh.bmp
272.16	0.72	369	2	1	76	per	lib	low	mod	low	nt	cr	nh/0323_nh.bmp
272.88	0.72	370	5	3	47	mem	con	mod	mod	low	tg	ht	wh/0030.bmp
273.60	0.72	371	4	2	61	mem	con	mod	mod	mod	tg	ms	wh/0961.bmp
274.32	0.72	372	2	4	128	per	lib	mod	mod	mod	tg	ht	wh/0477.bmp
275.04	0.72	373	3	2	42	per	lib	mod	mod	mod	nt	cr	nh/0348_nh.bmp
275.76	0.72	374	1	1	35	mem	con	low	low	low	nt	ms	nh/0250_nh.bmp
276.48	0.72	375	2	2	62	mem	con	mod	mod	mod	nt	ms	nh/0645_nh.bmp
277.20	0.72	376	5	4	124	per	lib	mod	mod	mod	nt	cr	nh/0358_nh.bmp
277.92	0.72	377	3	1	76	per	lib	low	mod	low	nt	cr	nh/0323_nh.bmp
278.64	0.72	378	2	4	21	per	con	mod	mod	mod	tg	ht	wh/0705.bmp
279.36	0.72	379	1	2	118	mem	lib	low	low	low	nt	ht	nh/0375_nh.bmp
280.08	0.72	380	3	1	67	per	lib	low	mod	low	tg	ms	wh/0511.bmp
280.80	0.72	381	3	1	72	per	lib	low	mod	low	nt	cr	nh/0386_nh.bmp
281.52	0.72	382	1	3	67	per	con	mod	low	mod	tg	ht	wh/0457.bmp
282.24	0.72	383	2	1	62	per	con	low	mod	low	nt	fa	nh/0007_nh.bmp
282.96	0.72	384	4	4	126	per	lib	mod	mod	mod	nt	cr	nh/0834_nh.bmp
283.68	0.72	385	4	4	90	per	lib	low	mod	low	nt	cr	nh/0643_nh.bmp
284.40	0.72	386	1	1	95	mem	lib	mod	mod	low	tg	n/a	wh/0302.bmp
285.12	0.72	387	2	2	105	mem	lib	mod	mod	mod	tg	ms	wh/0799.bmp
285.84	0.72	388	1	3	23	per	con	low	low	low	nt	cr	nh/0653_nh.bmp
286.56	0.72	389	3	2	46	per	lib	mod	mod	mod	nt	cr	nh/0583_nh.bmp
287.28	0.72	390	1	3	7	mem	con	low	low	mod	tg	ht	wh/0985.bmp
288.00	0.72	391	3	2	62	mem	con	mod	mod	mod	nt	ms	nh/0645_nh.bmp
288.72	0.72	392	2	4	81	per	lib	low	mod	low	tg	ms	wh/0976.bmp
289.44	0.72	393	5	4	37	per	con	low	mod	low	nt	cr	nh/0236_nh.bmp
290.16	0.72	394	3	2	35	per	lib	mod	mod	mod	tg	ht	wh/0413.bmp
290.88	0.72	395	3	1	49	per	con	low	mod	low	nt	cr	nh/1013_nh.bmp
291.60	0.72	396	4	1	125	per	con	mod	mod	mod	nt	cr	nh/1010_nh.bmp
292.32	0.72	397	4	4	88	per	lib	low	mod	low	tg	ht	wh/0512.bmp
293.04	0.72	398	4	1	14	mem	con	mod	mod	low	tg	ht	wh/0412.bmp
293.76	0.72	399	1	1	13	mem	con	mod	mod	low	tg	ms	wh/0293.bmp
294.48	0.72	400	2	4	97	mem	con	mod	mod	mod	nt	ms	nh/0592_nh.bmp
295.20	0.72	401	1	4	73	mem	lib	mod	mod	low	tg	ht	wh/0703.bmp
295.92	0.72	402	5	4	71	mem	lib	mod	mod	low	nt	ms	nh/0195_nh.bmp
296.64	0.72	403	1	2	16	mem	con	low	low	mod	nt	ht	nh/0616_nh.bmp
297.36	0.72	404	1	2	44	per	lib	mod	mod	mod	tg	ms	wh/0983.bmp
298.08	0.72	405	5	3	108	mem	lib	mod	mod	mod	tg	ht	wh/0049.bmp
298.80	0.72	406	4	2	42	per	lib	mod	mod	mod	nt	cr	nh/0348_nh.bmp
299.52	0.72	407	3	2	47	per	lib	mod	mod	mod	nt	cr	nh/0674_nh.bmp
300.24	0.72	408	3	3	97	mem	lib	mod	mod	mod	tg	ms	wh/0604.bmp
300.96	0.72	409	2	4	35	per	con	low	mod	low	nt	cr	nh/0615_nh.bmp
301.68	0.72	410	3	4	74	mem	lib	mod	mod	low	tg	ht	wh/0454.bmp
302.40	0.72	411	2	1	50	per	con	low	mod	low	tg	ms	wh/0312.bmp
303.12	0.72	412	3	1	11	mem	con	mod	mod	low	nt	ht	nh/0765_nh.bmp
303.84	0.72	413	4	2	51	mem	con	mod	mod	mod	tg	ht	wh/0796.bmp
304.56	0.72	414	5	2	45	per	lib	mod	mod	mod	nt	cr	nh/0970_nh.bmp
305.28	0.72	415	4	1	76	per	lib	low	mod	low	nt	cr	nh/0323_nh.bmp
306.00	0.72	416	3	1	77	per	lib	low	mod	low	tg	ht	wh/0124.bmp
306.72	0.72	417	1	3	81	per	lib	low	low	low	tg	ms	wh/0565.bmp
307.44	0.72	418	3	1	88	mem	lib	mod	mod	low	nt	ht	nh/0259_nh.bmp
308.16	0.72	419	4	4	103	mem	con	mod	mod	mod	tg	ht	wh/0448.bmp
308.88	0.72	420	1	3	14	mem	con	low	low	mod	nt	ht	nh/0595_nh.bmp
309.60	0.72	421	4	1	67	per	lib	low	mod	low	tg	ms	wh/0511.bmp
310.32	0.72	422	3	2	105	mem	lib	mod	mod	mod	tg	ms	wh/0799.bmp
311.04	0.72	423	1	3	123	per	lib	mod	low	mod	nt	cr	nh/0872_nh.bmp
311.76	0.72	424	4	4	48	per	con	low	mod	low	nt	cr	nh/0424_nh.bmp
312.48	0.72	425	3	1	50	per	con	low	mod	low	tg	ms	wh/0312.bmp
313.20	0.72	426	4	2	56	mem	con	mod	mod	mod	nt	ht	nh/0925_nh.bmp
313.92	0.72	427	1	1	30	per	lib	mod	low	mod	tg	ht	wh/0470.bmp
314.64	0.72	428	4	4	66	mem	lib	mod	mod	low	nt	ht	nh/0283_nh.bmp
315.36	0.72	429	4	4	87	per	lib	low	mod	low	nt	fa	nh/0067_nh.bmp
316.08	0.72	430	4	1	11	mem	con	mod	mod	low	nt	ht	nh/0765_nh.bmp
316.80	0.72	431	2	1	94	mem	lib	mod	mod	low	nt	ms	nh/0672_nh.bmp
317.52	0.72	432	2	4	44	per	con	low	mod	low	tg	ht	wh/0131.bmp
318.24	0.72	433	5	4	90	per	lib	low	mod	low	nt	cr	nh/0643_nh.bmp
318.96	0.72	434	3	2	102	mem	lib	mod	mod	mod	nt	ht	nh/0331_nh.bmp
319.68	0.72	435	4	4	43	per	con	low	mod	low	nt	cr	nh/0798_nh.bmp
320.40	0.72	436	5	4	66	mem	lib	mod	mod	low	nt	ht	nh/0283_nh.bmp
321.12	0.72	437	2	4	73	mem	lib	mod	mod	low	tg	ht	wh/0703.bmp
321.84	0.72	438	4	2	35	per	lib	mod	mod	mod	tg	ht	wh/0413.bmp
322.56	0.72	439	3	3	43	mem	con	mod	mod	low	nt	ht	nh/0575_nh.bmp
323.28	0.72	440	1	3	122	per	lib	mod	low	mod	tg	n/a	wh/0707.bmp
324.00	0.72	441	2	1	121	per	con	mod	mod	mod	nt	cr	nh/0487_nh.bmp
324.72	0.72	442	3	4	113	per	lib	mod	mod	mod	nt	cr	nh/0759_nh.bmp
325.44	0.72	443	3	4	106	mem	con	mod	mod	mod	tg	ms	wh/0229.bmp
326.16	0.72	444	5	4	126	per	lib	mod	mod	mod	nt	cr	nh/0834_nh.bmp
326.88	0.72	445	3	4	73	mem	lib	mod	mod	low	tg	ht	wh/0703.bmp
327.60	0.72	446	2	4	86	per	lib	low	mod	low	tg	ms	wh/0792.bmp
328.32	0.72	447	3	4	31	per	con	mod	mod	mod	nt	cr	nh/0753_nh.bmp
329.04	0.72	448	5	2	56	mem	con	mod	mod	mod	nt	ht	nh/0925_nh.bmp
329.76	0.72	449	4	4	73	mem	lib	mod	mod	low	tg	ht	wh/0703.bmp
330.48	0.72	450	5	1	67	per	lib	low	mod	low	tg	ms	wh/0511.bmp
331.20	0.72	451	1	2	125	mem	lib	low	low	low	tg	ht	wh/0011.bmp
331.92	0.72	452	4	1	88	mem	lib	mod	mod	low	nt	ht	nh/0259_nh.bmp
332.64	0.72	453	3	3	38	mem	con	mod	mod	low	tg	ms	wh/0166.bmp
333.36	0.72	454	4	3	40	mem	con	mod	mod	low	tg	ht	wh/0410.bmp
334.08	0.72	455	1	3	17	per	con	low	low	low	nt	cr	nh/0713_nh.bmp
334.80	0.72	456	3	4	27	per	con	mod	mod	mod	nt	cr	nh/0490_nh.bmp
335.52	0.72	457	2	4	28	per	con	mod	mod	mod	tg	ht	wh/0343.bmp
336.24	0.72	458	1	3	70	per	con	mod	low	mod	nt	cr	nh/0201_nh.bmp
336.96	0.72	459	3	1	94	mem	lib	mod	mod	low	nt	ms	nh/0672_nh.bmp
337.68	0.72	460	3	2	33	per	lib	mod	mod	mod	tg	ht	wh/0761.bmp
338.40	0.72	461	1	1	112	mem	lib	low	low	mod	tg	ht	wh/0069.bmp
339.12	0.72	462	2	4	25	per	con	mod	mod	mod	nt	cr	nh/0282_nh.bmp
339.84	0.72	463	3	4	25	per	con	mod	mod	mod	nt	cr	nh/0282_nh.bmp
340.56	0.72	464	4	4	80	mem	lib	mod	mod	low	tg	ht	wh/0641.bmp
341.28	0.72	465	1	2	5	mem	con	low	low	mod	nt	ht	nh/0891_nh.bmp
342.00	0.72	466	2	1	113	per	con	mod	mod	mod	nt	fa	nh/0576_nh.bmp
342.72	0.72	467	3	4	128	per	lib	mod	mod	mod	tg	ht	wh/0477.bmp
343.44	0.72	468	5	3	99	mem	lib	mod	mod	mod	tg	ht	wh/0931.bmp
344.16	0.72	469	3	4	17	per	con	mod	mod	mod	tg	ms	wh/0538.bmp
344.88	0.72	470	3	1	83	mem	lib	mod	mod	low	nt	n/a	nh/0671_nh.bmp
345.60	0.72	471	2	4	122	per	lib	mod	mod	mod	tg	ms	wh/0809.bmp
346.32	0.72	472	3	1	62	per	con	low	mod	low	nt	fa	nh/0007_nh.bmp
347.04	0.72	473	3	3	110	mem	lib	mod	mod	mod	nt	ms	nh/0072_nh.bmp
347.76	0.72	474	4	2	52	mem	con	mod	mod	mod	nt	ms	nh/0665_nh.bmp
348.48	0.72	475	4	1	50	per	con	low	mod	low	tg	ms	wh/0312.bmp
349.20	0.72	476	6	4	124	per	lib	mod	mod	mod	nt	cr	nh/0358_nh.bmp
349.92	0.72	477	2	1	68	per	lib	low	mod	low	tg	ms	wh/0988.bmp
350.64	0.72	478	3	4	28	per	con	mod	mod	mod	tg	ht	wh/0343.bmp
351.36	0.72	479	3	2	58	mem	con	mod	mod	mod	nt	ms	nh/0279_nh.bmp
352.08	0.72	480	1	1	82	mem	lib	mod	mod	low	nt	ht	nh/0422_nh.bmp
352.80	0.72	481	1	2	92	per	con	low	low	low	nt	cr	nh/0504_nh.bmp
353.52	0.72	482	5	1	14	mem	con	mod	mod	low	tg	ht	wh/0412.bmp
354.24	0.72	483	2	1	13	mem	con	mod	mod	low	tg	ms	wh/0293.bmp
354.96	0.72	484	4	3	97	mem	lib	mod	mod	mod	tg	ms	wh/0604.bmp
355.68	0.72	485	2	2	44	per	lib	mod	mod	mod	tg	ms	wh/0983.bmp
356.40	0.72	486	6	2	45	per	lib	mod	mod	mod	nt	cr	nh/0970_nh.bmp
357.12	0.72	487	3	1	113	per	con	mod	mod	mod	nt	fa	nh/0576_nh.bmp
357.84	0.72	488	4	1	9	mem	con	mod	mod	low	nt	ms	nh/0554_nh.bmp
358.56	0.72	489	2	1	95	mem	lib	mod	mod	low	tg	n/a	wh/0302.bmp
359.28	0.72	490	2	1	82	mem	lib	mod	mod	low	nt	ht	nh/0422_nh.bmp
360.00	0.72	491	2	4	114	per	lib	mod	mod	mod	nt	cr	nh/0344_nh.bmp
360.72	0.72	492	3	4	44	per	con	low	mod	low	tg	ht	wh/0131.bmp
361.44	0.72	493	3	3	44	mem	con	mod	mod	low	tg	ms	wh/0246.bmp
362.16	0.72	494	5	3	112	mem	lib	mod	mod	mod	tg	ht	wh/0365.bmp
362.88	0.72	495	3	4	69	mem	lib	mod	mod	low	nt	ht	nh/0400_nh.bmp
363.60	0.72	496	2	3	39	mem	con	mod	mod	low	nt	ms	nh/0315_nh.bmp
364.32	0.72	497	1	1	32	per	lib	mod	low	mod	tg	ht	wh/0208.bmp
365.04	0.72	498	4	1	57	per	con	low	mod	low	tg	ms	wh/0415.bmp
365.76	0.72	499	3	4	21	per	con	mod	mod	mod	tg	ht	wh/0705.bmp
366.48	0.72	500	1	2	86	per	con	low	low	low	nt	cr	nh/0908_nh.bmp
367.20	0.72	501	4	4	106	mem	con	mod	mod	mod	tg	ms	wh/0229.bmp
367.92	0.72	502	5	1	11	mem	con	mod	mod	low	nt	ht	nh/0765_nh.bmp
368.64	0.72	503	4	4	44	per	con	low	mod	low	tg	ht	wh/0131.bmp
369.36	0.72	504	4	3	43	mem	con	mod	mod	low	nt	ht	nh/0575_nh.bmp
370.08	0.72	505	1	3	77	per	con	mod	low	mod	nt	cr	nh/0085_nh.bmp
370.80	0.72	506	3	4	86	per	lib	low	mod	low	tg	ms	wh/0792.bmp
371.52	0.72	507	1	1	26	per	lib	mod	low	mod	tg	ht	wh/0467.bmp
372.24	0.72	508	4	1	94	mem	lib	mod	mod	low	nt	ms	nh/0672_nh.bmp
372.96	0.72	509	5	1	58	per	con	low	mod	low	tg	ms	wh/0444.bmp
373.68	0.72	510	1	3	51	mem	lib	low	low	low	nt	ms	nh/0120_nh.bmp
374.40	0.72	511	5	4	41	per	con	low	mod	low	tg	ms	wh/0523.bmp
375.12	0.72	512	1	1	34	mem	con	low	low	low	tg	ht	wh/0916.bmp
375.84	0.72	513	5	4	102	mem	con	mod	mod	mod	nt	ms	nh/0689_nh.bmp
376.56	0.72	514	5	1	76	per	lib	low	mod	low	nt	cr	nh/0323_nh.bmp
377.28	0.72	515	5	1	125	per	con	mod	mod	mod	nt	cr	nh/1010_nh.bmp
378.00	0.72	516	5	1	9	mem	con	mod	mod	low	nt	ms	nh/0554_nh.bmp
378.72	0.72	517	1	3	4	mem	con	low	low	mod	nt	ms	nh/0644_nh.bmp
379.44	0.72	518	3	1	96	mem	lib	mod	mod	low	tg	ms	wh/0212.bmp
380.16	0.72	519	4	3	42	mem	con	mod	mod	low	nt	ht	nh/0509_nh.bmp
380.88	0.72	520	3	2	44	per	lib	mod	mod	mod	tg	ms	wh/0983.bmp
381.60	0.72	521	2	4	78	mem	lib	mod	mod	low	tg	ms	wh/0132.bmp
382.32	0.72	522	4	4	105	mem	con	mod	mod	mod	nt	ms	nh/0806_nh.bmp
383.04	0.72	523	4	1	96	mem	lib	mod	mod	low	tg	ms	wh/0212.bmp
383.76	0.72	524	1	2	22	per	con	mod	low	mod	nt	cr	nh/0858_nh.bmp
384.48	0.72	525	5	4	106	mem	con	mod	mod	mod	tg	ms	wh/0229.bmp
385.20	0.72	526	4	4	99	mem	con	mod	mod	mod	tg	ht	wh/0895.bmp
385.92	0.72	527	3	4	97	mem	con	mod	mod	mod	nt	ms	nh/0592_nh.bmp
386.64	0.72	528	3	4	81	per	lib	low	mod	low	tg	ms	wh/0976.bmp
387.36	0.72	529	6	3	47	mem	con	mod	mod	low	tg	ht	wh/0030.bmp
388.08	0.72	530	3	1	95	mem	lib	mod	mod	low	tg	n/a	wh/0302.bmp
388.80	0.72	531	4	4	113	per	lib	mod	mod	mod	nt	cr	nh/0759_nh.bmp
389.52	0.72	532	4	4	69	mem	lib	mod	mod	low	nt	ht	nh/0400_nh.bmp
390.24	0.72	533	5	1	50	per	con	low	mod	low	tg	ms	wh/0312.bmp
390.96	0.72	534	3	4	114	per	lib	mod	mod	mod	nt	cr	nh/0344_nh.bmp
391.68	0.72	535	1	1	99	mem	lib	low	low	mod	tg	ht	wh/0854.bmp
392.40	0.72	536	3	1	75	per	lib	low	mod	low	nt	cr	nh/0368_nh.bmp
393.12	0.72	537	1	3	120	per	lib	mod	low	mod	nt	cr	nh/0214_nh.bmp
393.84	0.72	538	4	4	17	per	con	mod	mod	mod	tg	ms	wh/0538.bmp
394.56	0.72	539	4	1	49	per	con	low	mod	low	nt	cr	nh/1013_nh.bmp
395.28	0.72	540	4	1	113	per	con	mod	mod	mod	nt	fa	nh/0576_nh.bmp
396.00	0.72	541	5	4	117	per	lib	mod	mod	mod	tg	ht	wh/0039.bmp
396.72	0.72	542	4	2	60	mem	con	mod	mod	mod	tg	ms	wh/0738.bmp
397.44	0.72	543	5	1	57	per	con	low	mod	low	tg	ms	wh/0415.bmp
398.16	0.72	544	4	1	51	per	con	low	mod	low	tg	ms	wh/0295.bmp
398.88	0.72	545	5	4	48	per	con	low	mod	low	nt	cr	nh/0424_nh.bmp
399.60	0.72	546	3	3	35	mem	con	mod	mod	low	nt	ht	nh/0081_nh.bmp
400.32	0.72	547	2	4	24	per	con	mod	mod	mod	nt	cr	nh/0445_nh.bmp
401.04	0.72	548	3	3	109	mem	lib	mod	mod	mod	nt	ms	nh/0061_nh.bmp
401.76	0.72	549	1	1	105	mem	lib	low	low	mod	tg	ms	wh/0723.bmp
402.48	0.72	550	4	4	21	per	con	mod	mod	mod	tg	ht	wh/0705.bmp
403.20	0.72	551	5	4	17	per	con	mod	mod	mod	tg	ms	wh/0538.bmp
403.92	0.72	552	3	4	91	per	lib	low	mod	low	tg	ms	wh/0683.bmp
404.64	0.72	553	4	2	101	mem	lib	mod	mod	mod	nt	ht	nh/0359_nh.bmp
405.36	0.72	554	3	4	83	per	lib	low	mod	low	nt	cr	nh/0757_nh.bmp
406.08	0.72	555	1	2	77	per	lib	low	low	low	nt	fa	nh/0010_nh.bmp
406.80	0.72	556	6	1	91	mem	lib	mod	mod	low	tg	ht	wh/0496.bmp
407.52	0.72	557	5	4	43	per	con	low	mod	low	nt	cr	nh/0798_nh.bmp
408.24	0.72	558	6	1	11	mem	con	mod	mod	low	nt	ht	nh/0765_nh.bmp
408.96	0.72	559	5	4	103	mem	con	mod	mod	mod	tg	ht	wh/0448.bmp
409.68	0.72	560	6	4	17	per	con	mod	mod	mod	tg	ms	wh/0538.bmp
410.40	0.72	561	3	2	34	per	lib	mod	mod	mod	tg	ht	wh/0104.bmp
411.12	0.72	562	4	4	74	mem	lib	mod	mod	low	tg	ht	wh/0454.bmp
411.84	0.72	563	4	4	97	mem	con	mod	mod	mod	nt	ms	nh/0592_nh.bmp
412.56	0.72	564	1	3	93	per	lib	low	low	low	nt	cr	nh/0252_nh.bmp
413.28	0.72	565	4	3	35	mem	con	mod	mod	low	nt	ht	nh/0081_nh.bmp
414.00	0.72	566	3	3	39	mem	con	mod	mod	low	nt	ms	nh/0315_nh.bmp
414.72	0.72	567	2	2	54	mem	con	mod	mod	mod	tg	ms	wh/0137.bmp
415.44	0.72	568	6	1	14	mem	con	mod	mod	low	tg	ht	wh/0412.bmp
416.16	0.72	569	1	2	18	per	con	mod	low	mod	tg	ht	wh/0944.bmp
416.88	0.72	570	5	4	113	per	lib	mod	mod	mod	nt	cr	nh/0759_nh.bmp
417.60	0.72	571	4	4	27	per	con	mod	mod	mod	nt	cr	nh/0490_nh.bmp
418.32	0.72	572	6	3	108	mem	lib	mod	mod	mod	tg	ht	wh/0049.bmp
419.04	0.72	573	3	4	35	per	con	low	mod	low	nt	cr	nh/0615_nh.bmp
419.76	0.72	574	3	4	78	mem	lib	mod	mod	low	tg	ms	wh/0132.bmp
420.48	0.72	575	1	4	82	per	lib	low	mod	low	nt	cr	nh/0174_nh.bmp
421.20	0.72	576	4	2	105	mem	lib	mod	mod	mod	tg	ms	wh/0799.bmp
421.92	0.72	577	1	2	126	mem	lib	low	low	low	tg	ms	wh/0184.bmp
422.64	0.72	578	3	1	5	mem	con	mod	mod	low	tg	ms	wh/0263.bmp
423.36	0.72	579	3	1	121	per	con	mod	mod	mod	nt	cr	nh/0487_nh.bmp
424.08	0.72	580	4	3	38	mem	con	mod	mod	low	tg	ms	wh/0166.bmp
424.80	0.72	581	3	2	54	mem	con	mod	mod	mod	tg	ms	wh/0137.bmp
425.52	0.72	582	5	1	94	mem	lib	mod	mod	low	nt	ms	nh/0672_nh.bmp
426.24	0.72	583	4	4	114	per	lib	mod	mod	mod	nt	cr	nh/0344_nh.bmp
426.96	0.72	584	4	4	116	per	lib	mod	mod	mod	tg	ht	wh/0861.bmp
427.68	0.72	585	5	4	114	per	lib	mod	mod	mod	nt	cr	nh/0344_nh.bmp
428.40	0.72	586	5	3	38	mem	con	mod	mod	low	tg	ms	wh/0166.bmp
429.12	0.72	587	4	1	66	per	lib	low	mod	low	tg	ht	wh/0661.bmp
429.84	0.72	588	5	4	116	per	lib	mod	mod	mod	tg	ht	wh/0861.bmp
430.56	0.72	589	3	4	24	per	con	mod	mod	mod	nt	cr	nh/0445_nh.bmp
431.28	0.72	590	4	2	44	per	lib	mod	mod	mod	tg	ms	wh/0983.bmp
432.00	0.72	591	4	1	128	per	con	mod	mod	mod	nt	cr	nh/1006_nh.bmp
432.72	0.72	592	1	4	56	mem	con	low	low	low	tg	ms	wh/0314.bmp
433.44	0.72	593	4	4	19	per	con	mod	mod	mod	tg	ht	wh/0151.bmp
434.16	0.72	594	5	4	69	mem	lib	mod	mod	low	nt	ht	nh/0400_nh.bmp
434.88	0.72	595	4	4	86	per	lib	low	mod	low	tg	ms	wh/0792.bmp
435.60	0.72	596	5	4	44	per	con	low	mod	low	tg	ht	wh/0131.bmp
436.32	0.72	597	3	1	80	per	lib	low	mod	low	nt	fa	nh/0203_nh.bmp
437.04	0.72	598	4	1	77	per	lib	low	mod	low	tg	ht	wh/0124.bmp
437.76	0.72	599	4	2	100	mem	lib	mod	mod	mod	tg	ht	wh/0562.bmp
438.48	0.72	600	4	3	109	mem	lib	mod	mod	mod	nt	ms	nh/0061_nh.bmp
439.20	0.72	601	5	1	113	per	con	mod	mod	mod	nt	fa	nh/0576_nh.bmp
439.92	0.72	602	1	1	108	mem	lib	low	low	mod	nt	ms	nh/0811_nh.bmp
440.64	0.72	603	6	3	112	mem	lib	mod	mod	mod	tg	ht	wh/0365.bmp
441.36	0.72	604	4	1	72	per	lib	low	mod	low	nt	cr	nh/0386_nh.bmp
442.08	0.72	605	5	1	127	per	con	mod	mod	mod	tg	ht	wh/0742.bmp
442.80	0.72	606	4	1	83	mem	lib	mod	mod	low	nt	n/a	nh/0671_nh.bmp
443.52	0.72	607	6	4	71	mem	lib	mod	mod	low	nt	ms	nh/0195_nh.bmp
444.24	0.72	608	4	1	116	per	con	mod	mod	mod	tg	ht	wh/0320.bmp
444.96	0.72	609	4	1	62	per	con	low	mod	low	nt	fa	nh/0007_nh.bmp
445.68	0.72	610	4	2	99	mem	lib	mod	mod	mod	tg	ms	wh/0628.bmp
446.40	0.72	611	4	3	39	mem	con	mod	mod	low	nt	ms	nh/0315_nh.bmp
447.12	0.72	612	4	4	24	per	con	mod	mod	mod	nt	cr	nh/0445_nh.bmp
447.84	0.72	613	4	4	79	mem	lib	mod	mod	low	nt	ms	nh/1000_nh.bmp
448.56	0.72	614	5	4	80	mem	lib	mod	mod	low	tg	ht	wh/0641.bmp
449.28	0.72	615	6	3	99	mem	lib	mod	mod	mod	tg	ht	wh/0931.bmp
450.00	0.72	616	6	4	116	per	lib	mod	mod	mod	tg	ht	wh/0861.bmp
450.72	0.72	617	4	3	107	mem	lib	mod	mod	mod	nt	ht	nh/0427_nh.bmp
451.44	0.72	618	3	1	13	mem	con	mod	mod	low	tg	ms	wh/0293.bmp
452.16	0.72	619	3	2	110	mem	lib	mod	mod	mod	nt	ht	nh/0313_nh.bmp
452.88	0.72	620	5	3	40	mem	con	mod	mod	low	tg	ht	wh/0410.bmp
453.60	0.72	621	4	2	62	mem	con	mod	mod	mod	nt	ms	nh/0645_nh.bmp
454.32	0.72	622	5	2	99	mem	lib	mod	mod	mod	tg	ms	wh/0628.bmp
455.04	0.72	623	5	2	61	mem	con	mod	mod	mod	tg	ms	wh/0961.bmp
455.76	0.72	624	4	4	83	per	lib	low	mod	low	nt	cr	nh/0757_nh.bmp
456.48	0.72	625	6	1	90	mem	lib	mod	mod	low	tg	ht	wh/0882.bmp
457.20	0.72	626	1	4	57	mem	con	low	low	low	nt	ms	nh/0243_nh.bmp
457.92	0.72	627	5	4	79	mem	lib	mod	mod	low	nt	ms	nh/1000_nh.bmp
458.64	0.72	628	4	4	81	per	lib	low	mod	low	tg	ms	wh/0976.bmp
459.36	0.72	629	5	1	83	mem	lib	mod	mod	low	nt	n/a	nh/0671_nh.bmp
460.08	0.72	630	3	1	68	per	lib	low	mod	low	tg	ms	wh/0988.bmp
460.80	0.72	631	4	1	121	per	con	mod	mod	mod	nt	cr	nh/0487_nh.bmp
461.52	0.72	632	5	4	87	per	lib	low	mod	low	nt	fa	nh/0067_nh.bmp
462.24	0.72	633	6	2	99	mem	lib	mod	mod	mod	tg	ms	wh/0628.bmp
462.96	0.72	634	4	3	110	mem	lib	mod	mod	mod	nt	ms	nh/0072_nh.bmp
463.68	0.72	635	2	4	82	per	lib	low	mod	low	nt	cr	nh/0174_nh.bmp
464.40	0.72	636	3	4	82	per	lib	low	mod	low	nt	cr	nh/0174_nh.bmp
465.12	0.72	637	5	2	44	per	lib	mod	mod	mod	tg	ms	wh/0983.bmp
465.84	0.72	638	5	1	77	per	lib	low	mod	low	tg	ht	wh/0124.bmp
466.56	0.72	639	4	4	91	per	lib	low	mod	low	tg	ms	wh/0683.bmp
467.28	0.72	640	4	2	102	mem	lib	mod	mod	mod	nt	ht	nh/0331_nh.bmp
468.00	0.72	641	4	1	75	per	lib	low	mod	low	nt	cr	nh/0368_nh.bmp
468.72	0.72	642	1	2	23	per	con	mod	low	mod	nt	cr	nh/0440_nh.bmp
469.44	0.72	643	3	4	36	per	con	low	mod	low	tg	ms	wh/0390.bmp
470.16	0.72	644	5	3	42	mem	con	mod	mod	low	nt	ht	nh/0509_nh.bmp
470.88	0.72	645	5	2	105	mem	lib	mod	mod	mod	tg	ms	wh/0799.bmp
471.60	0.72	646	6	3	40	mem	con	mod	mod	low	tg	ht	wh/0410.bmp
472.32	0.72	647	5	4	86	per	lib	low	mod	low	tg	ms	wh/0792.bmp
473.04	0.72	648	4	4	36	per	con	low	mod	low	tg	ms	wh/0390.bmp
473.76	0.72	649	4	2	46	per	lib	mod	mod	mod	nt	cr	nh/0583_nh.bmp
474.48	0.72	650	6	1	94	mem	lib	mod	mod	low	nt	ms	nh/0672_nh.bmp
475.20	0.72	651	3	1	61	per	con	low	mod	low	nt	cr	nh/0791_nh.bmp
475.92	0.72	652	5	2	51	mem	con	mod	mod	mod	tg	ht	wh/0796.bmp
476.64	0.72	653	3	1	82	mem	lib	mod	mod	low	nt	ht	nh/0422_nh.bmp
477.36	0.72	654	1	3	29	per	con	low	low	low	tg	ms	wh/0117.bmp
478.08	0.72	655	5	4	83	per	lib	low	mod	low	nt	cr	nh/0757_nh.bmp
478.80	0.72	656	5	1	51	per	con	low	mod	low	tg	ms	wh/0295.bmp
479.52	0.72	657	4	2	58	mem	con	mod	mod	mod	nt	ms	nh/0279_nh.bmp
480.24	0.72	658	4	1	80	per	lib	low	mod	low	nt	fa	nh/0203_nh.bmp
480.96	0.72	659	4	4	35	per	con	low	mod	low	nt	cr	nh/0615_nh.bmp
481.68	0.72	660	1	1	17	per	lib	mod	low	mod	nt	cr	nh/0813_nh.bmp
482.40	0.72	661	5	3	35	mem	con	mod	mod	low	nt	ht	nh/0081_nh.bmp
483.12	0.72	662	4	2	54	mem	con	mod	mod	mod	tg	ms	wh/0137.bmp
483.84	0.72	663	6	2	61	mem	con	mod	mod	mod	tg	ms	wh/0961.bmp
484.56	0.72	664	4	1	6	mem	con	mod	mod	low	tg	ht	wh/0459.bmp
485.28	0.72	665	4	1	82	mem	lib	mod	mod	low	nt	ht	nh/0422_nh.bmp
486.00	0.72	666	6	4	117	per	lib	mod	mod	mod	tg	ht	wh/0039.bmp
486.72	0.72	667	1	1	24	per	lib	mod	low	mod	nt	cr	nh/0502_nh.bmp
487.44	0.72	668	6	4	106	mem	con	mod	mod	mod	tg	ms	wh/0229.bmp
488.16	0.72	669	5	1	6	mem	con	mod	mod	low	tg	ht	wh/0459.bmp
488.88	0.72	670	5	4	27	per	con	mod	mod	mod	nt	cr	nh/0490_nh.bmp
489.60	0.72	671	6	1	83	mem	lib	mod	mod	low	nt	n/a	nh/0671_nh.bmp
490.32	0.72	672	4	3	44	mem	con	mod	mod	low	tg	ms	wh/0246.bmp
491.04	0.72	673	5	1	80	per	lib	low	mod	low	nt	fa	nh/0203_nh.bmp
491.76	0.72	674	4	2	110	mem	lib	mod	mod	mod	nt	ht	nh/0313_nh.bmp
492.48	0.72	675	5	4	36	per	con	low	mod	low	tg	ms	wh/0390.bmp
493.20	0.72	676	4	1	95	mem	lib	mod	mod	low	tg	n/a	wh/0302.bmp
493.92	0.72	677	6	4	80	mem	lib	mod	mod	low	tg	ht	wh/0641.bmp
494.64	0.72	678	5	4	99	mem	con	mod	mod	mod	tg	ht	wh/0895.bmp
495.36	0.72	679	6	1	6	mem	con	mod	mod	low	tg	ht	wh/0459.bmp
496.08	0.72	680	6	4	44	per	con	low	mod	low	tg	ht	wh/0131.bmp
496.80	0.72	681	1	3	71	per	con	mod	low	mod	tg	ht	wh/0969.bmp
497.52	0.72	682	5	1	96	mem	lib	mod	mod	low	tg	ms	wh/0212.bmp
498.24	0.72	683	5	3	97	mem	lib	mod	mod	mod	tg	ms	wh/0604.bmp
498.96	0.72	684	5	4	73	mem	lib	mod	mod	low	tg	ht	wh/0703.bmp
499.68	0.72	685	6	4	79	mem	lib	mod	mod	low	nt	ms	nh/1000_nh.bmp
500.40	0.72	686	5	1	59	per	con	low	mod	low	nt	cr	nh/0494_nh.bmp
501.12	0.72	687	6	2	51	mem	con	mod	mod	mod	tg	ht	wh/0796.bmp
501.84	0.72	688	5	4	35	per	con	low	mod	low	nt	cr	nh/0615_nh.bmp
502.56	0.72	689	5	2	111	mem	lib	mod	mod	mod	tg	ht	wh/0333.bmp
503.28	0.72	690	6	4	43	per	con	low	mod	low	nt	cr	nh/0798_nh.bmp
504.00	0.72	691	1	3	10	mem	con	low	low	mod	tg	ht	wh/0052.bmp
504.72	0.72	692	5	4	74	mem	lib	mod	mod	low	tg	ht	wh/0454.bmp
505.44	0.72	693	5	2	52	mem	con	mod	mod	mod	nt	ms	nh/0665_nh.bmp
506.16	0.72	694	6	4	35	per	con	low	mod	low	nt	cr	nh/0615_nh.bmp
506.88	0.72	695	1	2	29	per	con	mod	low	mod	nt	cr	nh/0719_nh.bmp
507.60	0.72	696	6	1	59	per	con	low	mod	low	nt	cr	nh/0494_nh.bmp
508.32	0.72	697	6	2	52	mem	con	mod	mod	mod	nt	ms	nh/0665_nh.bmp
509.04	0.72	698	4	4	128	per	lib	mod	mod	mod	tg	ht	wh/0477.bmp
509.76	0.72	699	1	2	85	per	con	low	low	low	tg	ms	wh/0524.bmp
510.48	0.72	700	4	4	31	per	con	mod	mod	mod	nt	cr	nh/0753_nh.bmp
511.20	0.72	701	5	2	35	per	lib	mod	mod	mod	tg	ht	wh/0413.bmp
511.92	0.72	702	6	1	77	per	lib	low	mod	low	tg	ht	wh/0124.bmp
512.64	0.72	703	6	4	36	per	con	low	mod	low	tg	ms	wh/0390.bmp
513.36	0.72	704	5	4	24	per	con	mod	mod	mod	nt	cr	nh/0445_nh.bmp
514.08	0.72	705	3	4	122	per	lib	mod	mod	mod	tg	ms	wh/0809.bmp
514.80	0.72	706	4	2	47	per	lib	mod	mod	mod	nt	cr	nh/0674_nh.bmp
515.52	0.72	707	1	2	128	mem	lib	low	low	low	nt	ht	nh/0309_nh.bmp
516.24	0.72	708	1	4	64	mem	con	low	low	low	nt	ms	nh/0819_nh.bmp
516.96	0.72	709	5	2	62	mem	con	mod	mod	mod	nt	ms	nh/0645_nh.bmp
517.68	0.72	710	5	2	58	mem	con	mod	mod	mod	nt	ms	nh/0279_nh.bmp
518.40	0.72	711	6	4	90	per	lib	low	mod	low	nt	cr	nh/0643_nh.bmp
519.12	0.72	712	5	2	46	per	lib	mod	mod	mod	nt	cr	nh/0583_nh.bmp
519.84	0.72	713	5	1	66	per	lib	low	mod	low	tg	ht	wh/0661.bmp
520.56	0.72	714	4	4	82	per	lib	low	mod	low	nt	cr	nh/0174_nh.bmp
521.28	0.72	715	4	1	5	mem	con	mod	mod	low	tg	ms	wh/0263.bmp
522.00	0.72	716	6	4	114	per	lib	mod	mod	mod	nt	cr	nh/0344_nh.bmp
522.72	0.72	717	1	3	84	per	lib	low	low	low	nt	cr	nh/0021_nh.bmp
523.44	0.72	718	5	4	31	per	con	mod	mod	mod	nt	cr	nh/0753_nh.bmp
524.16	0.72	719	5	2	60	mem	con	mod	mod	mod	tg	ms	wh/0738.bmp
524.88	0.72	720	1	4	60	mem	con	low	low	low	tg	ms	wh/1003.bmp
525.60	0.72	721	5	1	49	per	con	low	mod	low	nt	cr	nh/1013_nh.bmp
526.32	0.72	722	5	4	128	per	lib	mod	mod	mod	tg	ht	wh/0477.bmp
527.04	0.72	723	4	4	122	per	lib	mod	mod	mod	tg	ms	wh/0809.bmp
527.76	0.72	724	5	1	128	per	con	mod	mod	mod	nt	cr	nh/1006_nh.bmp
528.48	0.72	725	5	2	110	mem	lib	mod	mod	mod	nt	ht	nh/0313_nh.bmp
529.20	0.72	726	6	1	57	per	con	low	mod	low	tg	ms	wh/0415.bmp
529.92	0.72	727	6	4	83	per	lib	low	mod	low	nt	cr	nh/0757_nh.bmp
530.64	0.72	728	1	1	38	mem	con	low	low	low	nt	ms	nh/0535_nh.bmp
531.36	0.72	729	5	4	122	per	lib	mod	mod	mod	tg	ms	wh/0809.bmp
532.08	0.72	730	6	1	113	per	con	mod	mod	mod	nt	fa	nh/0576_nh.bmp
532.80	0.72	731	5	4	19	per	con	mod	mod	mod	tg	ht	wh/0151.bmp
533.52	0.72	732	6	2	58	mem	con	mod	mod	mod	nt	ms	nh/0279_nh.bmp
534.24	0.72	733	5	4	21	per	con	mod	mod	mod	tg	ht	wh/0705.bmp
534.96	0.72	734	1	2	94	per	con	low	low	low	tg	ms	wh/0211.bmp
535.68	0.72	735	5	2	102	mem	lib	mod	mod	mod	nt	ht	nh/0331_nh.bmp
536.40	0.72	736	6	1	3	mem	con	mod	mod	low	nt	ht	nh/0438_nh.bmp
537.12	0.72	737	6	1	49	per	con	low	mod	low	nt	cr	nh/1013_nh.bmp
537.84	0.72	738	3	1	119	per	con	mod	mod	mod	tg	ht	wh/0901.bmp
538.56	0.72	739	6	3	42	mem	con	mod	mod	low	nt	ht	nh/0509_nh.bmp
539.28	0.72	740	4	1	68	per	lib	low	mod	low	tg	ms	wh/0988.bmp
540.00	0.72	741	5	1	121	per	con	mod	mod	mod	nt	cr	nh/0487_nh.bmp
540.72	0.72	742	4	1	61	per	con	low	mod	low	nt	cr	nh/0791_nh.bmp
541.44	0.72	743	5	3	110	mem	lib	mod	mod	mod	nt	ms	nh/0072_nh.bmp
542.16	0.72	744	1	3	90	per	lib	low	low	low	nt	fa	nh/0271_nh.bmp
542.88	0.72	745	4	4	28	per	con	mod	mod	mod	tg	ht	wh/0343.bmp
543.60	0.72	746	5	2	42	per	lib	mod	mod	mod	nt	cr	nh/0348_nh.bmp
544.32	0.72	747	5	4	28	per	con	mod	mod	mod	tg	ht	wh/0343.bmp
545.04	0.72	748	6	1	127	per	con	mod	mod	mod	tg	ht	wh/0742.bmp
545.76	0.72	749	5	4	105	mem	con	mod	mod	mod	nt	ms	nh/0806_nh.bmp
546.48	0.72	750	1	3	30	per	con	low	low	low	tg	ms	wh/0877.bmp
547.20	0.72	751	5	4	91	per	lib	low	mod	low	tg	ms	wh/0683.bmp
547.92	0.72	752	5	1	68	per	lib	low	mod	low	tg	ms	wh/0988.bmp
548.64	0.72	753	5	1	82	mem	lib	mod	mod	low	nt	ht	nh/0422_nh.bmp
549.36	0.72	754	5	1	75	per	lib	low	mod	low	nt	cr	nh/0368_nh.bmp
550.08	0.72	755	5	4	82	per	lib	low	mod	low	nt	cr	nh/0174_nh.bmp
550.80	0.72	756	6	4	86	per	lib	low	mod	low	tg	ms	wh/0792.bmp
551.52	0.72	757	5	1	62	per	con	low	mod	low	nt	fa	nh/0007_nh.bmp
552.24	0.72	758	4	4	42	per	con	low	mod	low	tg	ht	wh/0291.bmp
552.96	0.72	759	6	2	56	mem	con	mod	mod	mod	nt	ht	nh/0925_nh.bmp
553.68	0.72	760	4	1	13	mem	con	mod	mod	low	tg	ms	wh/0293.bmp
554.40	0.72	761	6	4	66	mem	lib	mod	mod	low	nt	ht	nh/0283_nh.bmp
555.12	0.72	762	1	3	58	mem	lib	low	low	low	nt	ht	nh/0720_nh.bmp
555.84	0.72	763	5	3	109	mem	lib	mod	mod	mod	nt	ms	nh/0061_nh.bmp
556.56	0.72	764	5	1	123	per	con	mod	mod	mod	tg	ht	wh/0071.bmp
557.28	0.72	765	5	2	47	per	lib	mod	mod	mod	nt	cr	nh/0674_nh.bmp
558.00	0.72	766	6	3	100	mem	lib	mod	mod	mod	nt	ht	nh/0943_nh.bmp
558.72	0.72	767	5	4	88	per	lib	low	mod	low	tg	ht	wh/0512.bmp
559.44	0.72	768	5	4	112	mem	con	mod	mod	mod	tg	ms	wh/0664.bmp
560.16	0.72	769	6	4	41	per	con	low	mod	low	tg	ms	wh/0523.bmp
560.88	0.72	770	5	1	116	per	con	mod	mod	mod	tg	ht	wh/0320.bmp
561.60	0.72	771	6	4	69	mem	lib	mod	mod	low	nt	ht	nh/0400_nh.bmp
562.32	0.72	772	1	2	90	per	con	low	low	low	nt	fa	nh/0828_nh.bmp
563.04	0.72	773	5	1	61	per	con	low	mod	low	nt	cr	nh/0791_nh.bmp
563.76	0.72	774	6	1	75	per	lib	low	mod	low	nt	cr	nh/0368_nh.bmp
564.48	0.72	775	6	1	116	per	con	mod	mod	mod	tg	ht	wh/0320.bmp
565.20	0.72	776	6	3	97	mem	lib	mod	mod	mod	tg	ms	wh/0604.bmp
565.92	0.72	777	1	3	9	mem	con	low	low	mod	nt	ms	nh/0498_nh.bmp
566.64	0.72	778	1	1	47	mem	con	low	low	low	nt	ms	nh/0160_nh.bmp
567.36	0.72	779	6	1	128	per	con	mod	mod	mod	nt	cr	nh/1006_nh.bmp
568.08	0.72	780	6	4	19	per	con	mod	mod	mod	tg	ht	wh/0151.bmp
568.80	0.72	781	6	2	60	mem	con	mod	mod	mod	tg	ms	wh/0738.bmp
569.52	0.72	782	1	2	84	per	con	low	low	low	tg	ms	wh/0363.bmp
570.24	0.72	783	5	1	5	mem	con	mod	mod	low	tg	ms	wh/0263.bmp
570.96	0.72	784	1	3	57	mem	lib	low	low	low	tg	ms	wh/0492.bmp
571.68	0.72	785	6	1	67	per	lib	low	mod	low	tg	ms	wh/0511.bmp
572.40	0.72	786	6	4	48	per	con	low	mod	low	nt	cr	nh/0424_nh.bmp
573.12	0.72	787	5	1	88	mem	lib	mod	mod	low	nt	ht	nh/0259_nh.bmp
573.84	0.72	788	5	4	42	per	con	low	mod	low	tg	ht	wh/0291.bmp
574.56	0.72	789	1	3	75	per	con	mod	low	mod	tg	ht	wh/0726.bmp
575.28	0.72	790	4	4	111	mem	con	mod	mod	mod	nt	ms	nh/0479_nh.bmp
576.00	0.72	791	1	3	76	per	con	mod	low	mod	tg	ht	wh/0620.bmp
576.72	0.72	792	5	4	97	mem	con	mod	mod	mod	nt	ms	nh/0592_nh.bmp
577.44	0.72	793	6	4	91	per	lib	low	mod	low	tg	ms	wh/0683.bmp
578.16	0.72	794	4	4	25	per	con	mod	mod	mod	nt	cr	nh/0282_nh.bmp
578.88	0.72	795	5	4	111	mem	con	mod	mod	mod	nt	ms	nh/0479_nh.bmp
579.60	0.72	796	4	4	78	mem	lib	mod	mod	low	tg	ms	wh/0132.bmp
580.32	0.72	797	6	4	102	mem	con	mod	mod	mod	nt	ms	nh/0689_nh.bmp
581.04	0.72	798	6	1	58	per	con	low	mod	low	tg	ms	wh/0444.bmp
581.76	0.72	799	1	4	10	mem	lib	low	low	mod	nt	ms	nh/0670_nh.bmp
582.48	0.72	800	6	1	80	per	lib	low	mod	low	nt	fa	nh/0203_nh.bmp
583.20	0.72	801	5	1	95	mem	lib	mod	mod	low	tg	n/a	wh/0302.bmp
583.92	0.72	802	6	4	112	mem	con	mod	mod	mod	tg	ms	wh/0664.bmp
584.64	0.72	803	1	3	32	per	con	low	low	low	nt	cr	nh/0171_nh.bmp
585.36	0.72	804	4	2	34	per	lib	mod	mod	mod	tg	ht	wh/0104.bmp
586.08	0.72	805	1	2	117	mem	lib	low	low	low	tg	ht	wh/0471.bmp
586.80	0.72	806	5	2	34	per	lib	mod	mod	mod	tg	ht	wh/0104.bmp
587.52	0.72	807	6	4	122	per	lib	mod	mod	mod	tg	ms	wh/0809.bmp
588.24	0.72	808	6	2	34	per	lib	mod	mod	mod	tg	ht	wh/0104.bmp
588.96	0.72	809	6	2	44	per	lib	mod	mod	mod	tg	ms	wh/0983.bmp
589.68	0.72	810	6	4	73	mem	lib	mod	mod	low	tg	ht	wh/0703.bmp
590.40	0.72	811	5	2	101	mem	lib	mod	mod	mod	nt	ht	nh/0359_nh.bmp
591.12	0.72	812	6	4	126	per	lib	mod	mod	mod	nt	cr	nh/0834_nh.bmp
591.84	0.72	813	6	1	9	mem	con	mod	mod	low	nt	ms	nh/0554_nh.bmp
592.56	0.72	814	6	4	87	per	lib	low	mod	low	nt	fa	nh/0067_nh.bmp
593.28	0.72	815	5	2	112	mem	lib	mod	mod	mod	nt	ms	nh/0097_nh.bmp
594.00	0.72	816	5	4	78	mem	lib	mod	mod	low	tg	ms	wh/0132.bmp
594.72	0.72	817	5	3	39	mem	con	mod	mod	low	nt	ms	nh/0315_nh.bmp
595.44	0.72	818	5	1	72	per	lib	low	mod	low	nt	cr	nh/0386_nh.bmp
596.16	0.72	819	6	2	62	mem	con	mod	mod	mod	nt	ms	nh/0645_nh.bmp
596.88	0.72	820	6	1	66	per	lib	low	mod	low	tg	ht	wh/0661.bmp
597.60	0.72	821	6	4	78	mem	lib	mod	mod	low	tg	ms	wh/0132.bmp
598.32	0.72	822	5	3	43	mem	con	mod	mod	low	nt	ht	nh/0575_nh.bmp
599.04	0.72	823	6	1	121	per	con	mod	mod	mod	nt	cr	nh/0487_nh.bmp
599.76	0.72	824	5	2	54	mem	con	mod	mod	mod	tg	ms	wh/0137.bmp
600.48	0.72	825	1	3	88	per	lib	low	low	low	tg	ms	wh/0484.bmp
601.20	0.72	826	6	1	96	mem	lib	mod	mod	low	tg	ms	wh/0212.bmp
601.92	0.72	827	5	2	100	mem	lib	mod	mod	mod	tg	ht	wh/0562.bmp
602.64	0.72	828	6	4	24	per	con	mod	mod	mod	nt	cr	nh/0445_nh.bmp
603.36	0.72	829	6	3	43	mem	con	mod	mod	low	nt	ht	nh/0575_nh.bmp
604.08	0.72	830	4	2	33	per	lib	mod	mod	mod	tg	ht	wh/0761.bmp
604.80	0.72	831	6	1	5	mem	con	mod	mod	low	tg	ms	wh/0263.bmp
605.52	0.72	832	6	3	38	mem	con	mod	mod	low	tg	ms	wh/0166.bmp
606.24	0.72	833	6	3	110	mem	lib	mod	mod	mod	nt	ms	nh/0072_nh.bmp
606.96	0.72	834	6	1	68	per	lib	low	mod	low	tg	ms	wh/0988.bmp
607.68	0.72	835	5	3	44	mem	con	mod	mod	low	tg	ms	wh/0246.bmp
608.40	0.72	836	5	4	81	per	lib	low	mod	low	tg	ms	wh/0976.bmp
609.12	0.72	837	6	2	112	mem	lib	mod	mod	mod	nt	ms	nh/0097_nh.bmp
609.84	0.72	838	6	2	105	mem	lib	mod	mod	mod	tg	ms	wh/0799.bmp
610.56	0.72	839	6	3	35	mem	con	mod	mod	low	nt	ht	nh/0081_nh.bmp
611.28	0.72	840	6	4	42	per	con	low	mod	low	tg	ht	wh/0291.bmp
612.00	0.72	841	6	4	28	per	con	mod	mod	mod	tg	ht	wh/0343.bmp
612.72	0.72	842	6	1	125	per	con	mod	mod	mod	nt	cr	nh/1010_nh.bmp
613.44	0.72	843	6	2	100	mem	lib	mod	mod	mod	tg	ht	wh/0562.bmp
614.16	0.72	844	6	4	81	per	lib	low	mod	low	tg	ms	wh/0976.bmp
614.88	0.72	845	6	4	74	mem	lib	mod	mod	low	tg	ht	wh/0454.bmp
615.60	0.72	846	6	2	54	mem	con	mod	mod	mod	tg	ms	wh/0137.bmp
616.32	0.72	847	5	2	33	per	lib	mod	mod	mod	tg	ht	wh/0761.bmp
617.04	0.72	848	5	3	107	mem	lib	mod	mod	mod	nt	ht	nh/0427_nh.bmp
617.76	0.72	849	6	4	111	mem	con	mod	mod	mod	nt	ms	nh/0479_nh.bmp
618.48	0.72	850	6	3	109	mem	lib	mod	mod	mod	nt	ms	nh/0061_nh.bmp
619.20	0.72	851	6	3	39	mem	con	mod	mod	low	nt	ms	nh/0315_nh.bmp
619.92	0.72	852	6	1	76	per	lib	low	mod	low	nt	cr	nh/0323_nh.bmp
620.64	0.72	853	5	1	13	mem	con	mod	mod	low	tg	ms	wh/0293.bmp
621.36	0.72	854	6	4	37	per	con	low	mod	low	nt	cr	nh/0236_nh.bmp
622.08	0.72	855	4	1	119	per	con	mod	mod	mod	tg	ht	wh/0901.bmp
622.80	0.72	856	6	2	110	mem	lib	mod	mod	mod	nt	ht	nh/0313_nh.bmp
623.52	0.72	857	5	1	119	per	con	mod	mod	mod	tg	ht	wh/0901.bmp
624.24	0.72	858	6	4	88	per	lib	low	mod	low	tg	ht	wh/0512.bmp
624.96	0.72	859	6	1	88	mem	lib	mod	mod	low	nt	ht	nh/0259_nh.bmp
625.68	0.72	860	6	1	7	mem	con	mod	mod	low	nt	ht	nh/0914_nh.bmp
626.40	0.72	861	6	2	42	per	lib	mod	mod	mod	nt	cr	nh/0348_nh.bmp
627.12	0.72	862	6	4	21	per	con	mod	mod	mod	tg	ht	wh/0705.bmp
627.84	0.72	863	5	4	25	per	con	mod	mod	mod	nt	cr	nh/0282_nh.bmp
628.56	0.72	864	1	3	50	mem	lib	low	low	low	tg	ms	wh/0607.bmp
629.28	0.72	865	6	4	105	mem	con	mod	mod	mod	nt	ms	nh/0806_nh.bmp
630.00	0.72	866	6	2	35	per	lib	mod	mod	mod	tg	ht	wh/0413.bmp
630.72	0.72	867	6	2	33	per	lib	mod	mod	mod	tg	ht	wh/0761.bmp
631.44	0.72	868	6	1	50	per	con	low	mod	low	tg	ms	wh/0312.bmp
632.16	0.72	869	6	1	13	mem	con	mod	mod	low	tg	ms	wh/0293.bmp
632.88	0.72	870	6	4	25	per	con	mod	mod	mod	nt	cr	nh/0282_nh.bmp
633.60	0.72	871	6	1	95	mem	lib	mod	mod	low	tg	n/a	wh/0302.bmp
634.32	0.72	872	6	4	99	mem	con	mod	mod	mod	tg	ht	wh/0895.bmp
635.04	0.72	873	6	2	46	per	lib	mod	mod	mod	nt	cr	nh/0583_nh.bmp
635.76	0.72	874	6	3	107	mem	lib	mod	mod	mod	nt	ht	nh/0427_nh.bmp
636.48	0.72	875	1	2	9	mem	con	low	low	mod	nt	ht	nh/0754_nh.bmp
637.20	0.72	876	6	1	72	per	lib	low	mod	low	nt	cr	nh/0386_nh.bmp
637.92	0.72	877	6	1	51	per	con	low	mod	low	tg	ms	wh/0295.bmp
638.64	0.72	878	1	3	119	per	lib	mod	low	mod	tg	ms	wh/0192.bmp
639.36	0.72	879	6	1	119	per	con	mod	mod	mod	tg	ht	wh/0901.bmp
640.08	0.72	880	6	2	102	mem	lib	mod	mod	mod	nt	ht	nh/0331_nh.bmp
640.80	0.72	881	6	1	61	per	con	low	mod	low	nt	cr	nh/0791_nh.bmp
641.52	0.72	882	6	4	27	per	con	mod	mod	mod	nt	cr	nh/0490_nh.bmp
642.24	0.72	883	6	4	97	mem	con	mod	mod	mod	nt	ms	nh/0592_nh.bmp
642.96	0.72	884	6	2	101	mem	lib	mod	mod	mod	nt	ht	nh/0359_nh.bmp
643.68	0.72	885	6	2	47	per	lib	mod	mod	mod	nt	cr	nh/0674_nh.bmp
644.40	0.72	886	6	4	103	mem	con	mod	mod	mod	tg	ht	wh/0448.bmp
645.12	0.72	887	1	2	70	per	lib	low	low	low	nt	cr	nh/0369_nh.bmp
645.84	0.72	888	6	4	82	per	lib	low	mod	low	nt	cr	nh/0174_nh.bmp
646.56	0.72	889	6	1	123	per	con	mod	mod	mod	tg	ht	wh/0071.bmp
647.28	0.72	890	6	1	82	mem	lib	mod	mod	low	nt	ht	nh/0422_nh.bmp
648.00	0.72	891	6	2	111	mem	lib	mod	mod	mod	tg	ht	wh/0333.bmp
648.72	0.72	892	6	3	44	mem	con	mod	mod	low	tg	ms	wh/0246.bmp
649.44	0.72	893	6	1	62	per	con	low	mod	low	nt	fa	nh/0007_nh.bmp
650.16	0.72	894	6	4	31	per	con	mod	mod	mod	nt	cr	nh/0753_nh.bmp
650.88	0.72	895	6	4	113	per	lib	mod	mod	mod	nt	cr	nh/0759_nh.bmp
651.60	0.72	896	6	4	128	per	lib	mod	mod	mod	tg	ht	wh/0477.bmp
