onset	duration	block	trial	task	crit	disc	mem_disc	per_disc	trial_type	mem_type	per_type	left_option	resp_hand	response	accuracy	response_time	stim_file	pay	pay_tot
7.2	7.2	1	n/a	mem	con	low	n/a	n/a	instructions	n/a	n/a	n/a	n/a	n/a	n/a	n/a	n/a	n/a	n/a
14.72	1.7369	1	1	mem	con	low	low	mod	nt	nt	nt	nt	right	tg	fa	1.3369	nh/0449_nh.bmp	-0.1	4.7
19.04	1.0059	1	2	mem	con	low	low	mod	nt	nt	tg	nt	left	nt	cr	0.6059	wh/0910.bmp	0.05	4.75
21.92	0.85159	1	3	mem	con	low	low	mod	tg	tg	tg	tg	right	nt	ms	0.45159	wh/0937.bmp	0	4.75
26.24	1.4148	1	4	mem	con	low	low	mod	tg	tg	nt	nt	left	nt	ms	1.0148	nh/0644_nh.bmp	0	4.75
29.12	0.88639	1	5	mem	con	low	low	mod	tg	tg	tg	nt	right	tg	ht	0.48639	wh/0317.bmp	0.05	4.8
33.44	1.6557	1	6	mem	con	low	low	mod	nt	nt	nt	nt	left	nt	cr	1.2557	nh/0228_nh.bmp	0.05	4.85
36.32	0.88479	1	7	mem	con	low	low	mod	tg	tg	tg	nt	right	tg	ht	0.48479	wh/0985.bmp	0.05	4.9
40.64	1.6229	1	8	mem	con	low	low	mod	nt	nt	tg	tg	right	nt	cr	1.2229	wh/0406.bmp	0.05	4.95
43.52	0.9898	1	9	mem	con	low	low	mod	tg	tg	nt	tg	right	nt	ms	0.5898	nh/0498_nh.bmp	0	4.95
46.4	1.03769	1	10	mem	con	low	low	mod	tg	tg	tg	tg	left	tg	ht	0.63769	wh/0052.bmp	0.05	5
50	1.13074	1	11	mem	con	low	low	mod	nt	nt	nt	nt	left	nt	cr	0.73074	nh/0885_nh.bmp	0.05	5.05
52.88	1.4539	1	12	mem	con	low	low	mod	nt	nt	tg	nt	right	tg	fa	1.0539	wh/0009.bmp	-0.1	4.95
55.76	1.4879	1	13	mem	con	low	low	mod	tg	tg	nt	nt	left	nt	ms	1.0879	nh/0826_nh.bmp	0	4.95
59.36	1.08393	1	14	mem	con	low	low	mod	tg	tg	nt	tg	left	tg	ht	0.68393	nh/0595_nh.bmp	0.05	5
62.96	1.22576	1	15	mem	con	low	low	mod	nt	nt	tg	tg	right	nt	cr	0.82576	wh/0550.bmp	0.05	5.05
67.28	0.89987	1	16	mem	con	low	low	mod	nt	nt	nt	tg	right	nt	cr	0.49987	nh/0829_nh.bmp	0.05	5.1
71.28	3.6	1	n/a	mem	con	low	n/a	n/a	feedback	n/a	n/a	n/a	n/a	n/a	n/a	n/a	n/a	n/a	n/a
74.88	7.2	2	n/a	per	con	low	n/a	n/a	instructions	n/a	n/a	n/a	n/a	n/a	n/a	n/a	n/a	n/a	n/a
82.4	1.6339	2	17	per	con	low	low	low	nt	tg	nt	nt	left	nt	cr	1.2339	nh/0713_nh.bmp	0.05	5.15
86	0.99673	2	18	per	con	low	low	low	tg	nt	tg	nt	left	nt	ms	0.59673	wh/0330.bmp	0	5.15
88.88	1.22779	2	19	per	con	low	low	low	tg	tg	tg	nt	left	nt	ms	0.82779	wh/0026.bmp	0	5.15
91.76	1.02203	2	20	per	con	low	low	low	nt	tg	nt	tg	right	nt	cr	0.62203	nh/0500_nh.bmp	0.05	5.2
94.64	1.07505	2	21	per	con	low	low	low	nt	nt	nt	tg	right	nt	cr	0.67505	nh/0485_nh.bmp	0.05	5.25
97.52	1.6499	2	22	per	con	low	low	low	nt	nt	nt	nt	right	tg	fa	1.2499	nh/0159_nh.bmp	-0.1	5.15
100.4	0.86553	2	23	per	con	low	low	low	nt	tg	nt	nt	left	nt	cr	0.46553	nh/0653_nh.bmp	0.05	5.2
104	0.93608	2	24	per	con	low	low	low	tg	nt	tg	nt	right	tg	ht	0.53608	wh/0996.bmp	0.05	5.25
106.88	0.8465	2	25	per	con	low	low	low	tg	tg	tg	nt	right	tg	ht	0.4465	wh/0242.bmp	0.05	5.3
110.48	1.25293	2	26	per	con	low	low	low	nt	nt	nt	tg	left	tg	fa	0.85293	nh/0008_nh.bmp	-0.1	5.2
113.36	0.88062	2	27	per	con	low	low	low	nt	nt	nt	tg	right	nt	cr	0.48062	nh/0979_nh.bmp	0.05	5.25
117.68	1.16477	2	28	per	con	low	low	low	tg	nt	tg	nt	left	nt	ms	0.76477	wh/0119.bmp	0	5.25
122	1.05416	2	29	per	con	low	low	low	tg	tg	tg	nt	left	nt	ms	0.65416	wh/0117.bmp	0	5.25
126.32	0.90582	2	30	per	con	low	low	low	tg	tg	tg	tg	right	nt	ms	0.50582	wh/0877.bmp	0	5.25
130.64	1.06002	2	31	per	con	low	low	low	tg	nt	tg	nt	left	nt	ms	0.66002	wh/0747.bmp	0	5.25
134.24	1.23978	2	32	per	con	low	low	low	nt	tg	nt	nt	left	nt	cr	0.83978	nh/0171_nh.bmp	0.05	5.3
138.24	3.6	2	n/a	per	con	low	n/a	n/a	feedback	n/a	n/a	n/a	n/a	n/a	n/a	n/a	n/a	n/a	n/a
141.84	7.2	3	n/a	mem	con	mod	n/a	n/a	instructions	n/a	n/a	n/a	n/a	n/a	n/a	n/a	n/a	n/a	n/a
149.36	1.21689	3	33	mem	con	mod	mod	low	nt	nt	tg	nt	left	nt	cr	0.81689	wh/0298.bmp	0.05	5.35
152.24	1.4827	3	34	mem	con	mod	mod	low	nt	nt	tg	tg	left	tg	fa	1.0827	wh/0897.bmp	-0.1	5.25
155.84	1.04674	3	35	mem	con	mod	mod	low	tg	tg	nt	tg	left	tg	ht	0.64674	nh/0081_nh.bmp	0.05	5.3
159.44	0.98348	3	36	mem	con	mod	mod	low	nt	nt	nt	nt	left	nt	cr	0.58348	nh/0648_nh.bmp	0.05	5.35
162.32	0.98011	3	37	mem	con	mod	mod	low	nt	nt	nt	tg	right	nt	cr	0.58011	nh/0932_nh.bmp	0.05	5.4
165.92	1.20986	3	38	mem	con	mod	mod	low	tg	tg	tg	nt	left	nt	ms	0.80986	wh/0166.bmp	0	5.4
168.8	1.24791	3	39	mem	con	mod	mod	low	tg	tg	nt	tg	right	nt	ms	0.84791	nh/0315_nh.bmp	0	5.4
173.12	1.02972	3	40	mem	con	mod	mod	low	tg	tg	tg	nt	right	tg	ht	0.62972	wh/0410.bmp	0.05	5.45
177.44	1.00086	3	41	mem	con	mod	mod	low	nt	nt	nt	tg	left	tg	fa	0.60086	nh/0105_nh.bmp	-0.1	5.35
181.04	1.9697	3	42	mem	con	mod	mod	low	tg	tg	nt	nt	right	tg	ht	1.5697	nh/0509_nh.bmp	0.05	5.4
183.92	1.5	3	43	mem	con	mod	mod	low	tg	tg	nt	tg	left	tg	ht	1.1	nh/0575_nh.bmp	0.05	5.45
186.8	0.93217	3	44	mem	con	mod	mod	low	tg	tg	tg	nt	left	nt	ms	0.53217	wh/0246.bmp	0	5.45
191.12	1.01761	3	45	mem	con	mod	mod	low	nt	nt	tg	tg	right	nt	cr	0.61761	wh/0704.bmp	0.05	5.5
195.44	1.32593	3	46	mem	con	mod	mod	low	nt	nt	nt	nt	left	nt	cr	0.92593	nh/0265_nh.bmp	0.05	5.55
198.32	0.94946	3	47	mem	con	mod	mod	low	tg	tg	tg	tg	left	tg	ht	0.54946	wh/0030.bmp	0.05	5.6
201.2	0.93369	3	48	mem	con	mod	mod	low	nt	nt	tg	tg	right	nt	cr	0.53369	wh/0379.bmp	0.05	5.65
203.76	3.6	3	n/a	mem	con	mod	n/a	n/a	feedback	n/a	n/a	n/a	n/a	n/a	n/a	n/a	n/a	n/a	n/a
207.36	7.2	4	n/a	mem	lib	low	n/a	n/a	instructions	n/a	n/a	n/a	n/a	n/a	n/a	n/a	n/a	n/a	n/a
214.88	1.04784	4	49	mem	lib	low	low	low	nt	nt	tg	tg	right	nt	cr	0.64784	wh/0126.bmp	0.05	5.7
217.76	1.26277	4	50	mem	lib	low	low	low	tg	tg	tg	nt	left	nt	ms	0.86277	wh/0607.bmp	-0.1	5.6
221.36	1.08171	4	51	mem	lib	low	low	low	tg	tg	nt	tg	right	nt	ms	0.68171	nh/0120_nh.bmp	-0.1	5.5
224.24	1.17184	4	52	mem	lib	low	low	low	tg	tg	nt	tg	left	tg	ht	0.77184	nh/0430_nh.bmp	0.05	5.55
227.84	0.92084	4	53	mem	lib	low	low	low	nt	nt	nt	nt	right	tg	fa	0.52084	nh/0656_nh.bmp	0	5.55
230.72	1.6169	4	54	mem	lib	low	low	low	nt	nt	nt	tg	right	nt	cr	1.2169	nh/0121_nh.bmp	0.05	5.6
234.32	1.03524	4	55	mem	lib	low	low	low	nt	nt	tg	nt	right	tg	fa	0.63524	wh/0423.bmp	0	5.6
237.92	1.12192	4	56	mem	lib	low	low	low	nt	nt	nt	tg	left	tg	fa	0.72192	nh/1022_nh.bmp	0	5.6
240.8	0.93256	4	57	mem	lib	low	low	low	tg	tg	tg	nt	left	nt	ms	0.53256	wh/0492.bmp	-0.1	5.5
245.12	0.83895	4	58	mem	lib	low	low	low	tg	tg	nt	nt	right	tg	ht	0.43895	nh/0720_nh.bmp	0.05	5.55
248	1.8729	4	59	mem	lib	low	low	low	tg	tg	tg	nt	right	tg	ht	1.4729	wh/0127.bmp	0.05	5.6
251.6	0.98602	4	60	mem	lib	low	low	low	tg	tg	tg	nt	left	nt	ms	0.58602	wh/0808.bmp	-0.1	5.5
255.2	1.16682	4	61	mem	lib	low	low	low	nt	nt	nt	nt	left	nt	cr	0.76682	nh/0817_nh.bmp	0.05	5.55
258.08	1.15674	4	62	mem	lib	low	low	low	nt	nt	tg	tg	right	nt	cr	0.75674	wh/1012.bmp	0.05	5.6
261.68	1.22693	4	63	mem	lib	low	low	low	nt	nt	tg	tg	left	tg	fa	0.82693	wh/0794.bmp	0	5.6
264.56	1.23077	4	64	mem	lib	low	low	low	tg	tg	nt	nt	left	nt	ms	0.83077	nh/0130_nh.bmp	-0.1	5.5
267.84	3.6	4	n/a	mem	lib	low	n/a	n/a	feedback	n/a	n/a	n/a	n/a	n/a	n/a	n/a	n/a	n/a	n/a
272.88	7.2	5	n/a	per	con	mod	n/a	n/a	instructions	n/a	n/a	n/a	n/a	n/a	n/a	n/a	n/a	n/a	n/a
280.4	1.00546	5	65	per	con	mod	low	mod	tg	nt	tg	nt	right	tg	ht	0.60546	wh/0696.bmp	0.05	5.55
284	0.93272	5	66	per	con	mod	low	mod	nt	nt	nt	nt	left	nt	cr	0.53272	nh/0476_nh.bmp	0.05	5.6
287.6	1.01407	5	67	per	con	mod	low	mod	tg	tg	tg	nt	right	tg	ht	0.61407	wh/0457.bmp	0.05	5.65
291.2	1.12286	5	68	per	con	mod	low	mod	tg	nt	tg	tg	right	nt	ms	0.72286	wh/0527.bmp	0	5.65
294.08	0.93037	5	69	per	con	mod	low	mod	nt	nt	nt	tg	right	nt	cr	0.53037	nh/0322_nh.bmp	0.05	5.7
298.4	1.33698	5	70	per	con	mod	low	mod	nt	tg	nt	nt	left	nt	cr	0.93698	nh/0201_nh.bmp	0.05	5.75
302	1.26893	5	71	per	con	mod	low	mod	tg	tg	tg	tg	left	tg	ht	0.86893	wh/0969.bmp	0.05	5.8
305.6	0.98221	5	72	per	con	mod	low	mod	tg	nt	tg	nt	right	tg	ht	0.58221	wh/0321.bmp	0.05	5.85
309.2	1.5879	5	73	per	con	mod	low	mod	nt	tg	nt	nt	left	nt	cr	1.1879	nh/0474_nh.bmp	0.05	5.9
313.52	1.5248	5	74	per	con	mod	low	mod	tg	nt	tg	tg	right	nt	ms	1.1248	wh/0272.bmp	0	5.9
316.4	1.02049	5	75	per	con	mod	low	mod	tg	tg	tg	nt	right	tg	ht	0.62049	wh/0726.bmp	0.05	5.95
320.72	0.97925	5	76	per	con	mod	low	mod	tg	tg	tg	tg	left	tg	ht	0.57925	wh/0620.bmp	0.05	6
323.6	1.04934	5	77	per	con	mod	low	mod	nt	tg	nt	nt	left	nt	cr	0.64934	nh/0085_nh.bmp	0.05	6.05
327.92	0.9893	5	78	per	con	mod	low	mod	nt	nt	nt	tg	right	nt	cr	0.5893	nh/0974_nh.bmp	0.05	6.1
332.24	0.87748	5	79	per	con	mod	low	mod	nt	nt	nt	tg	right	nt	cr	0.47748	nh/0887_nh.bmp	0.05	6.15
335.12	0.81546	5	80	per	con	mod	low	mod	nt	tg	nt	tg	right	nt	cr	0.41546	nh/0409_nh.bmp	0.05	6.2
337.68	3.6	5	n/a	per	con	mod	n/a	n/a	feedback	n/a	n/a	n/a	n/a	n/a	n/a	n/a	n/a	n/a	n/a
341.28	7.2	6	n/a	per	lib	low	n/a	n/a	instructions	n/a	n/a	n/a	n/a	n/a	n/a	n/a	n/a	n/a	n/a
350.24	1.28482	6	81	per	lib	low	low	low	tg	tg	tg	nt	left	nt	ms	0.88482	wh/0565.bmp	-0.1	6.1
354.56	1.6177	6	82	per	lib	low	low	low	nt	nt	nt	tg	right	nt	cr	1.2177	nh/0481_nh.bmp	0.05	6.15
358.88	0.81067	6	83	per	lib	low	low	low	nt	nt	nt	tg	right	nt	cr	0.41067	nh/0486_nh.bmp	0.05	6.2
362.48	1.23491	6	84	per	lib	low	low	low	nt	tg	nt	nt	left	nt	cr	0.83491	nh/0021_nh.bmp	0.05	6.25
366.08	0.96224	6	85	per	lib	low	low	low	nt	tg	nt	nt	left	nt	cr	0.56224	nh/0310_nh.bmp	0.05	6.3
368.96	0.9899	6	86	per	lib	low	low	low	tg	nt	tg	nt	right	tg	ht	0.5899	wh/0903.bmp	0.05	6.35
371.84	1.03521	6	87	per	lib	low	low	low	tg	tg	tg	nt	left	nt	ms	0.63521	wh/0632.bmp	-0.1	6.25
374.72	0.93284	6	88	per	lib	low	low	low	tg	tg	tg	nt	left	nt	ms	0.53284	wh/0484.bmp	-0.1	6.15
379.04	1.2979	6	89	per	lib	low	low	low	tg	nt	tg	tg	left	tg	ht	0.8979	wh/0152.bmp	0.05	6.2
381.92	0.92325	6	90	per	lib	low	low	low	nt	tg	nt	nt	right	tg	fa	0.52325	nh/0271_nh.bmp	0	6.2
386.24	1.24988	6	91	per	lib	low	low	low	tg	nt	tg	tg	right	nt	ms	0.84988	wh/0651.bmp	-0.1	6.1
389.12	0.90632	6	92	per	lib	low	low	low	tg	tg	tg	tg	right	nt	ms	0.50632	wh/0264.bmp	-0.1	6
392	1.27074	6	93	per	lib	low	low	low	nt	tg	nt	nt	left	nt	cr	0.87074	nh/0252_nh.bmp	0.05	6.05
395.6	1.00542	6	94	per	lib	low	low	low	tg	nt	tg	tg	right	nt	ms	0.60542	wh/0499.bmp	-0.1	5.95
399.2	0.94333	6	95	per	lib	low	low	low	nt	nt	nt	nt	left	nt	cr	0.54333	nh/0109_nh.bmp	0.05	6
403.52	0.95851	6	96	per	lib	low	low	low	nt	nt	nt	tg	right	nt	cr	0.55851	nh/0411_nh.bmp	0.05	6.05
406.08	3.6	6	n/a	per	lib	low	n/a	n/a	feedback	n/a	n/a	n/a	n/a	n/a	n/a	n/a	n/a	n/a	n/a
411.12	7.2	7	n/a	mem	lib	mod	n/a	n/a	instructions	n/a	n/a	n/a	n/a	n/a	n/a	n/a	n/a	n/a	n/a
420.08	2.1699	7	97	mem	lib	mod	mod	mod	tg	tg	tg	tg	right	nt	ms	1.7699	wh/0604.bmp	-0.1	5.95
423.68	1.01874	7	98	mem	lib	mod	mod	mod	nt	nt	nt	tg	right	nt	cr	0.61874	nh/0189_nh.bmp	0.05	6
426.56	1.14073	7	99	mem	lib	mod	mod	mod	tg	tg	tg	nt	right	tg	ht	0.74073	wh/0931.bmp	0.05	6.05
429.44	1.7388	7	100	mem	lib	mod	mod	mod	tg	tg	nt	tg	left	tg	ht	1.3388	nh/0943_nh.bmp	0.05	6.1
433.76	0.95176	7	101	mem	lib	mod	mod	mod	nt	nt	tg	tg	left	tg	fa	0.55176	wh/0975.bmp	0	6.1
438.08	1.6728	7	102	mem	lib	mod	mod	mod	nt	nt	tg	nt	left	nt	cr	1.2728	wh/0959.bmp	0.05	6.15
441.68	1.16195	7	103	mem	lib	mod	mod	mod	nt	nt	nt	tg	left	tg	fa	0.76195	nh/0405_nh.bmp	0	6.15
445.28	1.24793	7	104	mem	lib	mod	mod	mod	nt	nt	nt	tg	right	nt	cr	0.84793	nh/0274_nh.bmp	0.05	6.2
448.16	0.92358	7	105	mem	lib	mod	mod	mod	nt	nt	nt	nt	right	tg	fa	0.52358	nh/0775_nh.bmp	0	6.2
452.48	1.33289	7	106	mem	lib	mod	mod	mod	nt	nt	tg	tg	right	nt	cr	0.93289	wh/0017.bmp	0.05	6.25
456.08	1.05826	7	107	mem	lib	mod	mod	mod	tg	tg	nt	nt	right	tg	ht	0.65826	nh/0427_nh.bmp	0.05	6.3
458.96	1.25678	7	108	mem	lib	mod	mod	mod	tg	tg	tg	tg	left	tg	ht	0.85678	wh/0049.bmp	0.05	6.35
463.28	1.4239	7	109	mem	lib	mod	mod	mod	tg	tg	nt	nt	left	nt	ms	1.0239	nh/0061_nh.bmp	-0.1	6.25
466.16	1.06858	7	110	mem	lib	mod	mod	mod	tg	tg	nt	nt	left	nt	ms	0.66858	nh/0072_nh.bmp	-0.1	6.15
469.04	1.0915	7	111	mem	lib	mod	mod	mod	nt	nt	tg	nt	left	nt	cr	0.6915	wh/0393.bmp	0.05	6.2
471.92	0.83451	7	112	mem	lib	mod	mod	mod	tg	tg	tg	nt	right	tg	ht	0.43451	wh/0365.bmp	0.05	6.25
474.48	3.6	7	n/a	mem	lib	mod	n/a	n/a	feedback	n/a	n/a	n/a	n/a	n/a	n/a	n/a	n/a	n/a	n/a
478.8	7.2	8	n/a	per	lib	mod	n/a	n/a	instructions	n/a	n/a	n/a	n/a	n/a	n/a	n/a	n/a	n/a	n/a
486.32	2.0688	8	113	per	lib	mod	low	mod	tg	nt	tg	nt	right	tg	ht	1.6688	wh/0551.bmp	0.05	6.3
489.2	0.81557	8	114	per	lib	mod	low	mod	tg	nt	tg	tg	left	tg	ht	0.41557	wh/0324.bmp	0.05	6.35
492.08	1.00676	8	115	per	lib	mod	low	mod	nt	nt	nt	nt	right	tg	fa	0.60676	nh/0752_nh.bmp	0	6.35
494.96	2.56	8	116	per	lib	mod	low	mod	nt	nt	nt	nt	n/a	err	n/a	n/a	nh/0553_nh.bmp	0	6.35
497.84	0.97511	8	117	per	lib	mod	low	mod	tg	nt	tg	nt	left	nt	ms	0.57511	wh/0659.bmp	-0.1	6.25
500.72	0.88061	8	118	per	lib	mod	low	mod	nt	tg	nt	nt	left	nt	cr	0.48061	nh/0304_nh.bmp	0.05	6.3
504.32	0.86973	8	119	per	lib	mod	low	mod	tg	tg	tg	tg	right	nt	ms	0.46973	wh/0192.bmp	-0.1	6.2
507.2	1.464	8	120	per	lib	mod	low	mod	nt	tg	nt	tg	right	nt	cr	1.064	nh/0214_nh.bmp	0.05	6.25
511.52	0.92829	8	121	per	lib	mod	low	mod	nt	nt	nt	tg	right	nt	cr	0.52829	nh/0296_nh.bmp	0.05	6.3
514.4	2.56	8	122	per	lib	mod	low	mod	tg	tg	tg	nt	n/a	mr	n/a	n/a	wh/0707.bmp	0	6.3
518.72	0.93861	8	123	per	lib	mod	low	mod	nt	tg	nt	tg	right	nt	cr	0.53861	nh/0872_nh.bmp	0.05	6.35
522.32	0.97016	8	124	per	lib	mod	low	mod	nt	tg	nt	nt	left	nt	cr	0.57016	nh/0894_nh.bmp	0.05	6.4
525.2	1.02916	8	125	per	lib	mod	low	mod	nt	nt	nt	nt	left	nt	cr	0.62916	nh/0286_nh.bmp	0.05	6.45
528.08	0.88646	8	126	per	lib	mod	low	mod	tg	tg	tg	nt	right	tg	ht	0.48646	wh/0230.bmp	0.05	6.5
532.4	1.3438	8	127	per	lib	mod	low	mod	tg	nt	tg	tg	left	tg	ht	0.9438	wh/0087.bmp	0.05	6.55
536.72	0.9309	8	128	per	lib	mod	low	mod	tg	tg	tg	tg	left	tg	ht	0.5309	wh/0004.bmp	0.05	6.6
540.72	3.6	8	n/a	per	lib	mod	n/a	n/a	feedback	n/a	n/a	n/a	n/a	n/a	n/a	n/a	n/a	n/a	n/a
