onset	duration	trial	pres	ts_blk	ts_trl	task	crit	disc	mem_disc	per_disc	per_type	accuracy	stim_file
7.20	0.72	1	1	6	79	mem	con	mod	mod	low	tg	ht	wh/0646.bmp
7.92	0.72	2	1	8	89	mem	con	mod	mod	low	tg	ms	wh/0077.bmp
8.64	0.72	3	1	5	5	mem	lib	low	low	mod	tg	ms	wh/0525.bmp
9.36	0.72	4	1	7	65	per	con	low	low	low	tg	ht	wh/1007.bmp
10.08	0.72	5	1	6	2	per	con	low	mod	low	tg	ms	wh/0608.bmp
10.80	0.72	6	1	6	20	per	lib	mod	low	mod	tg	ht	wh/0933.bmp
11.52	0.72	7	1	8	20	per	con	low	mod	low	tg	ms	wh/0079.bmp
12.24	0.72	8	1	8	11	per	lib	low	mod	low	tg	ms	wh/0619.bmp
12.96	0.72	9	1	7	84	mem	lib	low	low	low	tg	ht	wh/0706.bmp
13.68	0.72	10	2	8	20	per	con	low	mod	low	tg	ms	wh/0079.bmp
14.40	0.72	11	1	6	67	mem	con	mod	mod	low	nt	ms	nh/0660_nh.bmp
15.12	0.72	12	1	6	39	per	con	mod	mod	mod	tg	ht	wh/0902.bmp
15.84	0.72	13	1	7	5	per	lib	mod	mod	mod	nt	cr	nh/0447_nh.bmp
16.56	0.72	14	1	5	9	mem	lib	low	low	mod	nt	ht	nh/0278_nh.bmp
17.28	0.72	15	2	7	5	per	lib	mod	mod	mod	nt	cr	nh/0447_nh.bmp
18.00	0.72	16	1	8	125	per	con	mod	mod	mod	tg	ht	wh/0593.bmp
18.72	0.72	17	1	6	82	per	lib	low	mod	low	tg	ms	wh/0075.bmp
19.44	0.72	18	1	8	67	mem	con	low	low	low	nt	ms	nh/0088_nh.bmp
20.16	0.72	19	1	6	7	per	con	low	mod	low	nt	cr	nh/0493_nh.bmp
20.88	0.72	20	1	6	118	mem	con	low	low	mod	nt	ms	nh/0267_nh.bmp
21.60	0.72	21	1	8	69	mem	con	low	low	low	tg	ms	wh/0711.bmp
22.32	0.72	22	1	6	1	per	con	low	mod	low	tg	ms	wh/0082.bmp
23.04	0.72	23	1	8	60	mem	lib	mod	mod	mod	nt	ht	nh/0805_nh.bmp
23.76	0.72	24	1	5	123	per	lib	low	low	low	tg	ht	wh/0695.bmp
24.48	0.72	25	1	5	108	mem	lib	mod	mod	low	tg	ht	wh/0364.bmp
25.20	0.72	26	1	6	22	per	lib	mod	low	mod	nt	fa	nh/0652_nh.bmp
25.92	0.72	27	3	7	5	per	lib	mod	mod	mod	nt	cr	nh/0447_nh.bmp
26.64	0.72	28	1	6	5	per	con	low	mod	low	tg	ms	wh/0964.bmp
27.36	0.72	29	1	5	48	per	lib	mod	mod	mod	tg	ht	wh/0876.bmp
28.08	0.72	30	1	8	26	per	con	low	mod	low	nt	cr	nh/0417_nh.bmp
28.80	0.72	31	1	8	127	per	con	mod	mod	mod	nt	cr	nh/0748_nh.bmp
29.52	0.72	32	1	6	95	per	lib	low	mod	low	nt	fa	nh/0125_nh.bmp
30.24	0.72	33	1	7	58	mem	lib	mod	mod	low	tg	ht	wh/0299.bmp
30.96	0.72	34	1	5	98	mem	lib	mod	mod	low	nt	ht	nh/0404_nh.bmp
31.68	0.72	35	1	5	17	mem	con	mod	mod	mod	tg	ht	wh/0594.bmp
32.40	0.72	36	1	7	59	mem	lib	mod	mod	low	tg	ht	wh/0284.bmp
33.12	0.72	37	1	5	43	per	lib	mod	mod	mod	nt	cr	nh/0396_nh.bmp
33.84	0.72	38	2	7	58	mem	lib	mod	mod	low	tg	ht	wh/0299.bmp
34.56	0.72	39	2	6	2	per	con	low	mod	low	tg	ms	wh/0608.bmp
35.28	0.72	40	1	5	109	mem	lib	mod	mod	low	tg	ht	wh/0351.bmp
36.00	0.72	41	2	5	17	mem	con	mod	mod	mod	tg	ht	wh/0594.bmp
36.72	0.72	42	1	6	101	mem	lib	mod	mod	mod	tg	ht	wh/0855.bmp
37.44	0.72	43	1	8	5	per	lib	low	mod	low	nt	fa	nh/0503_nh.bmp
38.16	0.72	44	2	8	5	per	lib	low	mod	low	nt	fa	nh/0503_nh.bmp
38.88	0.72	45	1	8	27	per	con	low	mod	low	nt	cr	nh/0802_nh.bmp
39.60	0.72	46	3	8	20	per	con	low	mod	low	tg	ms	wh/0079.bmp
40.32	0.72	47	1	5	26	mem	con	mod	mod	mod	nt	ms	nh/0196_nh.bmp
41.04	0.72	48	1	5	101	mem	lib	mod	mod	low	tg	ht	wh/0256.bmp
41.76	0.72	49	1	8	81	mem	con	mod	mod	low	tg	ms	wh/0818.bmp
42.48	0.72	50	1	8	15	per	lib	low	mod	low	tg	ht	wh/0893.bmp
43.20	0.72	51	1	7	2	per	lib	mod	mod	mod	tg	ht	wh/0973.bmp
43.92	0.72	52	1	8	66	mem	con	low	low	low	nt	ms	nh/1009_nh.bmp
44.64	0.72	53	1	7	123	mem	con	mod	mod	mod	nt	ms	nh/0928_nh.bmp
45.36	0.72	54	1	8	31	per	con	low	mod	low	tg	ms	wh/0451.bmp
46.08	0.72	55	2	8	125	per	con	mod	mod	mod	tg	ht	wh/0593.bmp
46.80	0.72	56	1	5	19	mem	con	mod	mod	mod	tg	ht	wh/0543.bmp
47.52	0.72	57	1	7	61	mem	lib	mod	mod	low	nt	ht	nh/0345_nh.bmp
48.24	0.72	58	1	7	56	mem	lib	mod	mod	low	nt	ht	nh/0134_nh.bmp
48.96	0.72	59	1	6	72	mem	con	mod	mod	low	tg	ms	wh/0080.bmp
49.68	0.72	60	1	6	41	per	con	mod	mod	mod	nt	cr	nh/0795_nh.bmp
50.40	0.72	61	2	6	82	per	lib	low	mod	low	tg	ms	wh/0075.bmp
51.12	0.72	62	1	8	87	mem	con	mod	mod	low	tg	ht	wh/0232.bmp
51.84	0.72	63	3	7	58	mem	lib	mod	mod	low	tg	ht	wh/0299.bmp
52.56	0.72	64	1	6	50	mem	lib	low	low	low	nt	ht	nh/0804_nh.bmp
53.28	0.72	65	1	5	100	mem	lib	mod	mod	low	nt	ht	nh/0730_nh.bmp
54.00	0.72	66	1	5	96	mem	con	low	low	low	tg	ms	wh/0434.bmp
54.72	0.72	67	1	8	16	per	lib	low	mod	low	tg	ht	wh/0489.bmp
55.44	0.72	68	1	6	102	mem	lib	mod	mod	mod	tg	ht	wh/0187.bmp
56.16	0.72	69	1	8	126	per	con	mod	mod	mod	tg	ht	wh/0350.bmp
56.88	0.72	70	2	6	1	per	con	low	mod	low	tg	ms	wh/0082.bmp
57.60	0.72	71	2	5	26	mem	con	mod	mod	mod	nt	ms	nh/0196_nh.bmp
58.32	0.72	72	1	6	16	per	con	low	mod	low	nt	fa	nh/0123_nh.bmp
59.04	0.72	73	2	7	56	mem	lib	mod	mod	low	nt	ht	nh/0134_nh.bmp
59.76	0.72	74	2	6	39	per	con	mod	mod	mod	tg	ht	wh/0902.bmp
60.48	0.72	75	1	8	10	per	lib	low	mod	low	tg	ht	wh/0029.bmp
61.20	0.72	76	1	7	37	mem	con	low	low	mod	tg	ms	wh/1018.bmp
61.92	0.72	77	1	6	122	mem	con	low	low	mod	tg	ms	wh/0220.bmp
62.64	0.72	78	2	8	11	per	lib	low	mod	low	tg	ms	wh/0619.bmp
63.36	0.72	79	1	8	99	per	lib	mod	low	mod	tg	ht	wh/0598.bmp
64.08	0.72	80	2	8	10	per	lib	low	mod	low	tg	ht	wh/0029.bmp
64.80	0.72	81	1	8	2	per	lib	low	mod	low	nt	fa	nh/0577_nh.bmp
65.52	0.72	82	1	6	9	per	con	low	mod	low	nt	cr	nh/0934_nh.bmp
66.24	0.72	83	1	5	29	mem	con	mod	mod	mod	tg	ht	wh/0542.bmp
66.96	0.72	84	1	7	35	mem	con	low	low	mod	tg	ms	wh/0736.bmp
67.68	0.72	85	1	8	64	mem	lib	mod	mod	mod	tg	ht	wh/0650.bmp
68.40	0.72	86	1	7	114	mem	con	mod	mod	mod	tg	ht	wh/0807.bmp
69.12	0.72	87	1	8	22	per	con	low	mod	low	tg	ms	wh/0150.bmp
69.84	0.72	88	3	8	5	per	lib	low	mod	low	nt	fa	nh/0503_nh.bmp
70.56	0.72	89	2	7	59	mem	lib	mod	mod	low	tg	ht	wh/0284.bmp
71.28	0.72	90	1	5	13	mem	lib	low	low	mod	nt	ht	nh/0927_nh.bmp
72.00	0.72	91	1	7	118	mem	con	mod	mod	mod	nt	ms	nh/0803_nh.bmp
72.72	0.72	92	1	6	100	mem	lib	mod	mod	mod	nt	ht	nh/0199_nh.bmp
73.44	0.72	93	1	5	42	per	lib	mod	mod	mod	nt	fa	nh/0497_nh.bmp
74.16	0.72	94	1	5	38	per	lib	mod	mod	mod	tg	ht	wh/0697.bmp
74.88	0.72	95	1	6	69	mem	con	mod	mod	low	nt	ms	nh/0035_nh.bmp
75.60	0.72	96	2	6	5	per	con	low	mod	low	tg	ms	wh/0964.bmp
76.32	0.72	97	2	8	2	per	lib	low	mod	low	nt	fa	nh/0577_nh.bmp
77.04	0.72	98	4	7	5	per	lib	mod	mod	mod	nt	cr	nh/0447_nh.bmp
77.76	0.72	99	1	6	64	mem	lib	low	low	low	nt	ht	nh/0812_nh.bmp
78.48	0.72	100	2	5	98	mem	lib	mod	mod	low	nt	ht	nh/0404_nh.bmp
79.20	0.72	101	1	7	7	per	lib	mod	mod	mod	tg	ht	wh/0462.bmp
79.92	0.72	102	2	6	72	mem	con	mod	mod	low	tg	ms	wh/0080.bmp
80.64	0.72	103	1	8	100	per	lib	mod	low	mod	tg	ht	wh/0059.bmp
81.36	0.72	104	2	5	48	per	lib	mod	mod	mod	tg	ht	wh/0876.bmp
82.08	0.72	105	1	8	83	mem	con	mod	mod	low	nt	ht	nh/0443_nh.bmp
82.80	0.72	106	2	8	15	per	lib	low	mod	low	tg	ht	wh/0893.bmp
83.52	0.72	107	1	8	98	per	lib	mod	low	mod	nt	fa	nh/0316_nh.bmp
84.24	0.72	108	1	8	119	per	con	mod	mod	mod	nt	cr	nh/0962_nh.bmp
84.96	0.72	109	3	6	1	per	con	low	mod	low	tg	ms	wh/0082.bmp
85.68	0.72	110	1	5	18	mem	con	mod	mod	mod	nt	ms	nh/0099_nh.bmp
86.40	0.72	111	3	6	82	per	lib	low	mod	low	tg	ms	wh/0075.bmp
87.12	0.72	112	1	6	92	per	lib	low	mod	low	nt	fa	nh/0238_nh.bmp
87.84	0.72	113	1	6	14	per	con	low	mod	low	nt	cr	nh/1023_nh.bmp
88.56	0.72	114	1	6	80	mem	con	mod	mod	low	nt	ht	nh/0963_nh.bmp
89.28	0.72	115	2	8	87	mem	con	mod	mod	low	tg	ht	wh/0232.bmp
90.00	0.72	116	1	7	52	mem	lib	mod	mod	low	nt	ht	nh/0338_nh.bmp
90.72	0.72	117	2	8	22	per	con	low	mod	low	tg	ms	wh/0150.bmp
91.44	0.72	118	2	6	80	mem	con	mod	mod	low	nt	ht	nh/0963_nh.bmp
92.16	0.72	119	2	5	42	per	lib	mod	mod	mod	nt	fa	nh/0497_nh.bmp
92.88	0.72	120	1	6	78	mem	con	mod	mod	low	tg	ms	wh/0940.bmp
93.60	0.72	121	1	6	105	mem	lib	mod	mod	mod	nt	ht	nh/0941_nh.bmp
94.32	0.72	122	1	6	96	per	lib	low	mod	low	tg	ht	wh/0074.bmp
95.04	0.72	123	1	8	57	mem	lib	mod	mod	mod	tg	ht	wh/0182.bmp
95.76	0.72	124	1	6	74	mem	con	mod	mod	low	tg	ht	wh/0032.bmp
96.48	0.72	125	2	6	92	per	lib	low	mod	low	nt	fa	nh/0238_nh.bmp
97.20	0.72	126	2	7	61	mem	lib	mod	mod	low	nt	ht	nh/0345_nh.bmp
97.92	0.72	127	3	6	72	mem	con	mod	mod	low	tg	ms	wh/0080.bmp
98.64	0.72	128	1	7	53	mem	lib	mod	mod	low	tg	ht	wh/0382.bmp
99.36	0.72	129	1	8	58	mem	lib	mod	mod	mod	nt	ht	nh/0209_nh.bmp
100.08	0.72	130	3	8	125	per	con	mod	mod	mod	tg	ht	wh/0593.bmp
100.80	0.72	131	2	8	127	per	con	mod	mod	mod	nt	cr	nh/0748_nh.bmp
101.52	0.72	132	1	6	93	per	lib	low	mod	low	tg	ms	wh/0967.bmp
102.24	0.72	133	2	5	29	mem	con	mod	mod	mod	tg	ht	wh/0542.bmp
102.96	0.72	134	1	7	62	mem	lib	mod	mod	low	tg	ht	wh/0329.bmp
103.68	0.72	135	1	8	85	mem	con	mod	mod	low	nt	ms	nh/0361_nh.bmp
104.40	0.72	136	4	7	58	mem	lib	mod	mod	low	tg	ht	wh/0299.bmp
105.12	0.72	137	1	8	90	mem	con	mod	mod	low	nt	ms	nh/0690_nh.bmp
105.84	0.72	138	2	7	123	mem	con	mod	mod	mod	nt	ms	nh/0928_nh.bmp
106.56	0.72	139	2	6	102	mem	lib	mod	mod	mod	tg	ht	wh/0187.bmp
107.28	0.72	140	2	7	53	mem	lib	mod	mod	low	tg	ht	wh/0382.bmp
108.00	0.72	141	3	7	59	mem	lib	mod	mod	low	tg	ht	wh/0284.bmp
108.72	0.72	142	1	5	99	mem	lib	mod	mod	low	tg	ht	wh/0758.bmp
109.44	0.72	143	1	7	125	mem	con	mod	mod	mod	tg	ht	wh/0772.bmp
110.16	0.72	144	1	8	63	mem	lib	mod	mod	mod	nt	ht	nh/0273_nh.bmp
110.88	0.72	145	1	8	123	per	con	mod	mod	mod	tg	ht	wh/0339.bmp
111.60	0.72	146	2	8	58	mem	lib	mod	mod	mod	nt	ht	nh/0209_nh.bmp
112.32	0.72	147	1	8	53	mem	lib	mod	mod	mod	tg	ht	wh/0810.bmp
113.04	0.72	148	2	6	78	mem	con	mod	mod	low	tg	ms	wh/0940.bmp
113.76	0.72	149	1	6	36	per	con	mod	mod	mod	nt	cr	nh/0380_nh.bmp
114.48	0.72	150	1	7	95	mem	lib	low	low	low	nt	ht	nh/0768_nh.bmp
115.20	0.72	151	4	6	1	per	con	low	mod	low	tg	ms	wh/0082.bmp
115.92	0.72	152	1	7	101	per	con	mod	low	mod	nt	cr	nh/0048_nh.bmp
116.64	0.72	153	1	8	17	per	con	low	mod	low	nt	cr	nh/0153_nh.bmp
117.36	0.72	154	1	5	30	mem	con	mod	mod	mod	nt	ht	nh/0714_nh.bmp
118.08	0.72	155	4	6	82	per	lib	low	mod	low	tg	ms	wh/0075.bmp
118.80	0.72	156	3	8	11	per	lib	low	mod	low	tg	ms	wh/0619.bmp
119.52	0.72	157	2	8	83	mem	con	mod	mod	low	nt	ht	nh/0443_nh.bmp
120.24	0.72	158	1	5	64	per	con	mod	low	mod	nt	cr	nh/0044_nh.bmp
120.96	0.72	159	1	6	83	per	lib	low	mod	low	nt	cr	nh/0383_nh.bmp
121.68	0.72	160	1	8	32	per	con	low	mod	low	tg	ms	wh/0336.bmp
122.40	0.72	161	2	8	119	per	con	mod	mod	mod	nt	cr	nh/0962_nh.bmp
123.12	0.72	162	1	8	111	per	lib	mod	low	mod	nt	fa	nh/0340_nh.bmp
123.84	0.72	163	2	6	67	mem	con	mod	mod	low	nt	ms	nh/0660_nh.bmp
124.56	0.72	164	2	6	100	mem	lib	mod	mod	mod	nt	ht	nh/0199_nh.bmp
125.28	0.72	165	3	6	2	per	con	low	mod	low	tg	ms	wh/0608.bmp
126.00	0.72	166	4	8	125	per	con	mod	mod	mod	tg	ht	wh/0593.bmp
126.72	0.72	167	1	6	84	per	lib	low	mod	low	nt	fa	nh/0465_nh.bmp
127.44	0.72	168	1	6	30	per	lib	mod	low	mod	tg	ht	wh/0900.bmp
128.16	0.72	169	2	5	30	mem	con	mod	mod	mod	nt	ht	nh/0714_nh.bmp
128.88	0.72	170	1	7	121	mem	con	mod	mod	mod	nt	ht	nh/0909_nh.bmp
129.60	0.72	171	3	5	42	per	lib	mod	mod	mod	nt	fa	nh/0497_nh.bmp
130.32	0.72	172	2	8	89	mem	con	mod	mod	low	tg	ms	wh/0077.bmp
131.04	0.72	173	2	8	16	per	lib	low	mod	low	tg	ht	wh/0489.bmp
131.76	0.72	174	1	7	112	per	con	mod	low	mod	tg	ms	wh/0419.bmp
132.48	0.72	175	2	8	81	mem	con	mod	mod	low	tg	ms	wh/0818.bmp
133.20	0.72	176	1	7	51	mem	lib	mod	mod	low	nt	ht	nh/0510_nh.bmp
133.92	0.72	177	1	5	39	per	lib	mod	mod	mod	nt	cr	nh/0588_nh.bmp
134.64	0.72	178	1	5	3	mem	lib	low	low	mod	tg	ht	wh/0129.bmp
135.36	0.72	179	2	6	84	per	lib	low	mod	low	nt	fa	nh/0465_nh.bmp
136.08	0.72	180	1	6	97	mem	lib	mod	mod	mod	nt	ms	nh/0222_nh.bmp
136.80	0.72	181	1	6	45	per	con	mod	mod	mod	tg	ht	wh/0398.bmp
137.52	0.72	182	1	6	34	per	con	mod	mod	mod	tg	ht	wh/0328.bmp
138.24	0.72	183	2	5	38	per	lib	mod	mod	mod	tg	ht	wh/0697.bmp
138.96	0.72	184	2	8	64	mem	lib	mod	mod	mod	tg	ht	wh/0650.bmp
139.68	0.72	185	1	6	104	mem	lib	mod	mod	mod	nt	ht	nh/0874_nh.bmp
140.40	0.72	186	1	6	116	mem	con	low	low	mod	nt	ms	nh/0572_nh.bmp
141.12	0.72	187	2	8	90	mem	con	mod	mod	low	nt	ms	nh/0690_nh.bmp
141.84	0.72	188	4	5	42	per	lib	mod	mod	mod	nt	fa	nh/0497_nh.bmp
142.56	0.72	189	2	8	26	per	con	low	mod	low	nt	cr	nh/0417_nh.bmp
143.28	0.72	190	2	8	31	per	con	low	mod	low	tg	ms	wh/0451.bmp
144.00	0.72	191	3	5	29	mem	con	mod	mod	mod	tg	ht	wh/0542.bmp
144.72	0.72	192	3	8	90	mem	con	mod	mod	low	nt	ms	nh/0690_nh.bmp
145.44	0.72	193	2	8	126	per	con	mod	mod	mod	tg	ht	wh/0350.bmp
146.16	0.72	194	1	8	42	mem	lib	low	low	mod	nt	ht	nh/0531_nh.bmp
146.88	0.72	195	3	7	56	mem	lib	mod	mod	low	nt	ht	nh/0134_nh.bmp
147.60	0.72	196	2	8	123	per	con	mod	mod	mod	tg	ht	wh/0339.bmp
148.32	0.72	197	2	5	19	mem	con	mod	mod	mod	tg	ht	wh/0543.bmp
149.04	0.72	198	1	8	38	mem	lib	low	low	mod	tg	ht	wh/0584.bmp
149.76	0.72	199	2	5	18	mem	con	mod	mod	mod	nt	ms	nh/0099_nh.bmp
150.48	0.72	200	3	7	61	mem	lib	mod	mod	low	nt	ht	nh/0345_nh.bmp
151.20	0.72	201	3	8	58	mem	lib	mod	mod	mod	nt	ht	nh/0209_nh.bmp
151.92	0.72	202	4	8	90	mem	con	mod	mod	low	nt	ms	nh/0690_nh.bmp
152.64	0.72	203	1	5	33	per	lib	mod	mod	mod	tg	ms	wh/0954.bmp
153.36	0.72	204	2	6	36	per	con	mod	mod	mod	nt	cr	nh/0380_nh.bmp
154.08	0.72	205	3	5	98	mem	lib	mod	mod	low	nt	ht	nh/0404_nh.bmp
154.80	0.72	206	3	8	127	per	con	mod	mod	mod	nt	cr	nh/0748_nh.bmp
155.52	0.72	207	2	6	104	mem	lib	mod	mod	mod	nt	ht	nh/0874_nh.bmp
156.24	0.72	208	2	8	85	mem	con	mod	mod	low	nt	ms	nh/0361_nh.bmp
156.96	0.72	209	3	6	5	per	con	low	mod	low	tg	ms	wh/0964.bmp
157.68	0.72	210	2	6	97	mem	lib	mod	mod	mod	nt	ms	nh/0222_nh.bmp
158.40	0.72	211	1	6	126	mem	con	low	low	mod	tg	ms	wh/0870.bmp
159.12	0.72	212	4	7	56	mem	lib	mod	mod	low	nt	ht	nh/0134_nh.bmp
159.84	0.72	213	1	7	30	per	lib	low	low	low	tg	ht	wh/0185.bmp
160.56	0.72	214	3	6	39	per	con	mod	mod	mod	tg	ht	wh/0902.bmp
161.28	0.72	215	1	8	121	per	con	mod	mod	mod	tg	ms	wh/0558.bmp
162.00	0.72	216	3	8	15	per	lib	low	mod	low	tg	ht	wh/0893.bmp
162.72	0.72	217	1	6	119	mem	con	low	low	mod	nt	ms	nh/0277_nh.bmp
163.44	0.72	218	2	6	7	per	con	low	mod	low	nt	cr	nh/0493_nh.bmp
164.16	0.72	219	1	7	98	per	con	mod	low	mod	tg	ht	wh/0762.bmp
164.88	0.72	220	3	6	36	per	con	mod	mod	mod	nt	cr	nh/0380_nh.bmp
165.60	0.72	221	1	6	56	mem	lib	low	low	low	tg	ms	wh/0633.bmp
166.32	0.72	222	1	8	79	mem	con	low	low	low	nt	ms	nh/0292_nh.bmp
167.04	0.72	223	4	8	11	per	lib	low	mod	low	tg	ms	wh/0619.bmp
167.76	0.72	224	1	7	67	per	con	low	low	low	nt	cr	nh/0528_nh.bmp
168.48	0.72	225	3	8	16	per	lib	low	mod	low	tg	ht	wh/0489.bmp
169.20	0.72	226	3	8	10	per	lib	low	mod	low	tg	ht	wh/0029.bmp
169.92	0.72	227	1	7	12	per	lib	mod	mod	mod	nt	cr	nh/0784_nh.bmp
170.64	0.72	228	2	5	43	per	lib	mod	mod	mod	nt	cr	nh/0396_nh.bmp
171.36	0.72	229	1	8	1	per	lib	low	mod	low	nt	cr	nh/0508_nh.bmp
172.08	0.72	230	1	7	8	per	lib	mod	mod	mod	nt	fa	nh/0563_nh.bmp
172.80	0.72	231	1	7	128	mem	con	mod	mod	mod	nt	ms	nh/0371_nh.bmp
173.52	0.72	232	2	5	109	mem	lib	mod	mod	low	tg	ht	wh/0351.bmp
174.24	0.72	233	1	7	24	per	lib	low	low	low	tg	ms	wh/0815.bmp
174.96	0.72	234	3	7	123	mem	con	mod	mod	mod	nt	ms	nh/0928_nh.bmp
175.68	0.72	235	1	5	36	per	lib	mod	mod	mod	nt	cr	nh/0843_nh.bmp
176.40	0.72	236	4	7	59	mem	lib	mod	mod	low	tg	ht	wh/0284.bmp
177.12	0.72	237	5	7	58	mem	lib	mod	mod	low	tg	ht	wh/0299.bmp
177.84	0.72	238	5	7	59	mem	lib	mod	mod	low	tg	ht	wh/0284.bmp
178.56	0.72	239	2	5	99	mem	lib	mod	mod	low	tg	ht	wh/0758.bmp
179.28	0.72	240	2	6	69	mem	con	mod	mod	low	nt	ms	nh/0035_nh.bmp
180.00	0.72	241	1	7	80	per	con	low	low	low	tg	ms	wh/0999.bmp
180.72	0.72	242	2	8	32	per	con	low	mod	low	tg	ms	wh/0336.bmp
181.44	0.72	243	1	7	116	mem	con	mod	mod	mod	tg	ht	wh/0716.bmp
182.16	0.72	244	1	6	68	mem	con	mod	mod	low	nt	ms	nh/0194_nh.bmp
182.88	0.72	245	2	7	118	mem	con	mod	mod	mod	nt	ms	nh/0803_nh.bmp
183.60	0.72	246	1	5	110	mem	lib	mod	mod	low	nt	ht	nh/0355_nh.bmp
184.32	0.72	247	2	6	45	per	con	mod	mod	mod	tg	ht	wh/0398.bmp
185.04	0.72	248	1	8	37	mem	lib	low	low	mod	tg	ht	wh/0581.bmp
185.76	0.72	249	2	8	27	per	con	low	mod	low	nt	cr	nh/0802_nh.bmp
186.48	0.72	250	4	8	10	per	lib	low	mod	low	tg	ht	wh/0029.bmp
187.20	0.72	251	3	6	102	mem	lib	mod	mod	mod	tg	ht	wh/0187.bmp
187.92	0.72	252	3	8	2	per	lib	low	mod	low	nt	fa	nh/0577_nh.bmp
188.64	0.72	253	1	6	37	per	con	mod	mod	mod	nt	cr	nh/0684_nh.bmp
189.36	0.72	254	3	6	100	mem	lib	mod	mod	mod	nt	ht	nh/0199_nh.bmp
190.08	0.72	255	1	6	98	mem	lib	mod	mod	mod	tg	n/a	wh/0319.bmp
190.80	0.72	256	3	8	89	mem	con	mod	mod	low	tg	ms	wh/0077.bmp
191.52	0.72	257	2	8	121	per	con	mod	mod	mod	tg	ms	wh/0558.bmp
192.24	0.72	258	5	8	125	per	con	mod	mod	mod	tg	ht	wh/0593.bmp
192.96	0.72	259	3	6	7	per	con	low	mod	low	nt	cr	nh/0493_nh.bmp
193.68	0.72	260	1	6	35	per	con	mod	mod	mod	nt	cr	nh/0442_nh.bmp
194.40	0.72	261	3	8	85	mem	con	mod	mod	low	nt	ms	nh/0361_nh.bmp
195.12	0.72	262	3	6	84	per	lib	low	mod	low	nt	fa	nh/0465_nh.bmp
195.84	0.72	263	1	5	116	per	lib	low	low	low	nt	cr	nh/0206_nh.bmp
196.56	0.72	264	1	7	14	per	lib	mod	mod	mod	tg	ms	wh/0397.bmp
197.28	0.72	265	2	7	121	mem	con	mod	mod	mod	nt	ht	nh/0909_nh.bmp
198.00	0.72	266	4	8	5	per	lib	low	mod	low	nt	fa	nh/0503_nh.bmp
198.72	0.72	267	2	7	116	mem	con	mod	mod	mod	tg	ht	wh/0716.bmp
199.44	0.72	268	2	8	57	mem	lib	mod	mod	mod	tg	ht	wh/0182.bmp
200.16	0.72	269	1	7	75	per	con	low	low	low	nt	cr	nh/0148_nh.bmp
200.88	0.72	270	1	7	68	per	con	low	low	low	nt	cr	nh/0488_nh.bmp
201.60	0.72	271	2	7	12	per	lib	mod	mod	mod	nt	cr	nh/0784_nh.bmp
202.32	0.72	272	1	5	57	per	con	mod	low	mod	tg	ht	wh/0569.bmp
203.04	0.72	273	3	7	53	mem	lib	mod	mod	low	tg	ht	wh/0382.bmp
203.76	0.72	274	3	8	27	per	con	low	mod	low	nt	cr	nh/0802_nh.bmp
204.48	0.72	275	2	8	60	mem	lib	mod	mod	mod	nt	ht	nh/0805_nh.bmp
205.20	0.72	276	2	6	105	mem	lib	mod	mod	mod	nt	ht	nh/0941_nh.bmp
205.92	0.72	277	4	5	29	mem	con	mod	mod	mod	tg	ht	wh/0542.bmp
206.64	0.72	278	2	6	98	mem	lib	mod	mod	mod	tg	n/a	wh/0319.bmp
207.36	0.72	279	3	6	92	per	lib	low	mod	low	nt	fa	nh/0238_nh.bmp
208.08	0.72	280	4	6	5	per	con	low	mod	low	tg	ms	wh/0964.bmp
208.80	0.72	281	1	5	55	per	con	mod	low	mod	nt	cr	nh/0729_nh.bmp
209.52	0.72	282	1	6	91	per	lib	low	mod	low	tg	ms	wh/0190.bmp
210.24	0.72	283	2	6	93	per	lib	low	mod	low	tg	ms	wh/0967.bmp
210.96	0.72	284	4	7	53	mem	lib	mod	mod	low	tg	ht	wh/0382.bmp
211.68	0.72	285	2	7	14	per	lib	mod	mod	mod	tg	ms	wh/0397.bmp
212.40	0.72	286	3	5	17	mem	con	mod	mod	mod	tg	ht	wh/0594.bmp
213.12	0.72	287	2	6	74	mem	con	mod	mod	low	tg	ht	wh/0032.bmp
213.84	0.72	288	3	8	126	per	con	mod	mod	mod	tg	ht	wh/0350.bmp
214.56	0.72	289	1	5	80	per	con	low	low	low	nt	cr	nh/0237_nh.bmp
215.28	0.72	290	2	6	68	mem	con	mod	mod	low	nt	ms	nh/0194_nh.bmp
216.00	0.72	291	1	6	112	mem	lib	mod	mod	mod	tg	ht	wh/0094.bmp
216.72	0.72	292	2	6	83	per	lib	low	mod	low	nt	cr	nh/0383_nh.bmp
217.44	0.72	293	2	8	17	per	con	low	mod	low	nt	cr	nh/0153_nh.bmp
218.16	0.72	294	3	6	67	mem	con	mod	mod	low	nt	ms	nh/0660_nh.bmp
218.88	0.72	295	2	6	16	per	con	low	mod	low	nt	fa	nh/0123_nh.bmp
219.60	0.72	296	1	5	31	mem	con	mod	mod	mod	tg	ht	wh/0680.bmp
220.32	0.72	297	3	8	31	per	con	low	mod	low	tg	ms	wh/0451.bmp
221.04	0.72	298	3	5	26	mem	con	mod	mod	mod	nt	ms	nh/0196_nh.bmp
221.76	0.72	299	1	5	4	mem	lib	low	low	mod	tg	ht	wh/0718.bmp
222.48	0.72	300	3	5	48	per	lib	mod	mod	mod	tg	ht	wh/0876.bmp
223.20	0.72	301	1	8	71	mem	con	low	low	low	nt	ms	nh/0831_nh.bmp
223.92	0.72	302	3	6	83	per	lib	low	mod	low	nt	cr	nh/0383_nh.bmp
224.64	0.72	303	4	6	84	per	lib	low	mod	low	nt	fa	nh/0465_nh.bmp
225.36	0.72	304	4	8	58	mem	lib	mod	mod	mod	nt	ht	nh/0209_nh.bmp
226.08	0.72	305	1	7	73	per	con	low	low	low	tg	ms	wh/0112.bmp
226.80	0.72	306	1	8	115	per	con	mod	mod	mod	nt	cr	nh/0946_nh.bmp
227.52	0.72	307	3	8	17	per	con	low	mod	low	nt	cr	nh/0153_nh.bmp
228.24	0.72	308	1	5	34	per	lib	mod	mod	mod	tg	ht	wh/0095.bmp
228.96	0.72	309	1	5	111	mem	lib	mod	mod	low	nt	ht	nh/0744_nh.bmp
229.68	0.72	310	1	7	46	mem	con	low	low	mod	nt	ms	nh/0461_nh.bmp
230.40	0.72	311	2	7	128	mem	con	mod	mod	mod	nt	ms	nh/0371_nh.bmp
231.12	0.72	312	1	7	13	per	lib	mod	mod	mod	nt	fa	nh/0548_nh.bmp
231.84	0.72	313	1	5	89	mem	con	low	low	low	tg	ms	wh/0013.bmp
232.56	0.72	314	3	8	121	per	con	mod	mod	mod	tg	ms	wh/0558.bmp
233.28	0.72	315	2	7	62	mem	lib	mod	mod	low	tg	ht	wh/0329.bmp
234.00	0.72	316	2	7	51	mem	lib	mod	mod	low	nt	ht	nh/0510_nh.bmp
234.72	0.72	317	3	8	22	per	con	low	mod	low	tg	ms	wh/0150.bmp
235.44	0.72	318	1	5	22	mem	con	mod	mod	mod	nt	ms	nh/0446_nh.bmp
236.16	0.72	319	2	6	112	mem	lib	mod	mod	mod	tg	ht	wh/0094.bmp
236.88	0.72	320	3	6	97	mem	lib	mod	mod	mod	nt	ms	nh/0222_nh.bmp
237.60	0.72	321	4	6	92	per	lib	low	mod	low	nt	fa	nh/0238_nh.bmp
238.32	0.72	322	5	8	10	per	lib	low	mod	low	tg	ht	wh/0029.bmp
239.04	0.72	323	5	6	5	per	con	low	mod	low	tg	ms	wh/0964.bmp
239.76	0.72	324	1	5	10	mem	lib	low	low	mod	tg	ms	wh/0890.bmp
240.48	0.72	325	1	7	122	mem	con	mod	mod	mod	tg	ms	wh/0540.bmp
241.20	0.72	326	4	7	123	mem	con	mod	mod	mod	nt	ms	nh/0928_nh.bmp
241.92	0.72	327	4	8	121	per	con	mod	mod	mod	tg	ms	wh/0558.bmp
242.64	0.72	328	4	8	127	per	con	mod	mod	mod	nt	cr	nh/0748_nh.bmp
243.36	0.72	329	4	8	15	per	lib	low	mod	low	tg	ht	wh/0893.bmp
244.08	0.72	330	2	5	34	per	lib	mod	mod	mod	tg	ht	wh/0095.bmp
244.80	0.72	331	1	7	19	per	lib	low	low	low	nt	fa	nh/0930_nh.bmp
245.52	0.72	332	2	7	8	per	lib	mod	mod	mod	nt	fa	nh/0563_nh.bmp
246.24	0.72	333	3	5	34	per	lib	mod	mod	mod	tg	ht	wh/0095.bmp
246.96	0.72	334	3	7	62	mem	lib	mod	mod	low	tg	ht	wh/0329.bmp
247.68	0.72	335	1	5	119	per	lib	low	low	low	tg	ht	wh/0571.bmp
248.40	0.72	336	1	8	84	mem	con	mod	mod	low	nt	ht	nh/0760_nh.bmp
249.12	0.72	337	1	5	76	per	con	low	low	low	tg	ms	wh/0655.bmp
249.84	0.72	338	1	8	118	per	con	mod	mod	mod	nt	cr	nh/0957_nh.bmp
250.56	0.72	339	3	6	16	per	con	low	mod	low	nt	fa	nh/0123_nh.bmp
251.28	0.72	340	3	8	26	per	con	low	mod	low	nt	cr	nh/0417_nh.bmp
252.00	0.72	341	2	5	100	mem	lib	mod	mod	low	nt	ht	nh/0730_nh.bmp
252.72	0.72	342	4	6	100	mem	lib	mod	mod	mod	nt	ht	nh/0199_nh.bmp
253.44	0.72	343	2	7	125	mem	con	mod	mod	mod	tg	ht	wh/0772.bmp
254.16	0.72	344	1	8	59	mem	lib	mod	mod	mod	nt	ht	nh/0428_nh.bmp
254.88	0.72	345	4	6	83	per	lib	low	mod	low	nt	cr	nh/0383_nh.bmp
255.60	0.72	346	1	6	47	per	con	mod	mod	mod	tg	ht	wh/0591.bmp
256.32	0.72	347	1	8	108	per	lib	mod	low	mod	tg	ht	wh/0669.bmp
257.04	0.72	348	4	6	2	per	con	low	mod	low	tg	ms	wh/0608.bmp
257.76	0.72	349	2	5	22	mem	con	mod	mod	mod	nt	ms	nh/0446_nh.bmp
258.48	0.72	350	2	8	63	mem	lib	mod	mod	mod	nt	ht	nh/0273_nh.bmp
259.20	0.72	351	2	6	35	per	con	mod	mod	mod	nt	cr	nh/0442_nh.bmp
259.92	0.72	352	3	5	99	mem	lib	mod	mod	low	tg	ht	wh/0758.bmp
260.64	0.72	353	1	7	9	per	lib	mod	mod	mod	tg	ht	wh/0947.bmp
261.36	0.72	354	1	6	53	mem	lib	low	low	low	tg	ht	wh/0507.bmp
262.08	0.72	355	2	5	36	per	lib	mod	mod	mod	nt	cr	nh/0843_nh.bmp
262.80	0.72	356	5	5	42	per	lib	mod	mod	mod	nt	fa	nh/0497_nh.bmp
263.52	0.72	357	1	6	52	mem	lib	low	low	low	tg	ht	wh/0998.bmp
264.24	0.72	358	2	7	122	mem	con	mod	mod	mod	tg	ms	wh/0540.bmp
264.96	0.72	359	4	8	89	mem	con	mod	mod	low	tg	ms	wh/0077.bmp
265.68	0.72	360	3	7	14	per	lib	mod	mod	mod	tg	ms	wh/0397.bmp
266.40	0.72	361	4	6	67	mem	con	mod	mod	low	nt	ms	nh/0660_nh.bmp
267.12	0.72	362	1	5	67	per	con	low	low	low	nt	cr	nh/0691_nh.bmp
267.84	0.72	363	2	6	79	mem	con	mod	mod	low	tg	ht	wh/0646.bmp
268.56	0.72	364	4	8	20	per	con	low	mod	low	tg	ms	wh/0079.bmp
269.28	0.72	365	6	7	58	mem	lib	mod	mod	low	tg	ht	wh/0299.bmp
270.00	0.72	366	4	6	97	mem	lib	mod	mod	mod	nt	ms	nh/0222_nh.bmp
270.72	0.72	367	3	7	51	mem	lib	mod	mod	low	nt	ht	nh/0510_nh.bmp
271.44	0.72	368	2	6	9	per	con	low	mod	low	nt	cr	nh/0934_nh.bmp
272.16	0.72	369	1	7	17	per	lib	low	low	low	nt	fa	nh/0701_nh.bmp
272.88	0.72	370	2	5	101	mem	lib	mod	mod	low	tg	ht	wh/0256.bmp
273.60	0.72	371	2	8	84	mem	con	mod	mod	low	nt	ht	nh/0760_nh.bmp
274.32	0.72	372	2	6	95	per	lib	low	mod	low	nt	fa	nh/0125_nh.bmp
275.04	0.72	373	3	8	63	mem	lib	mod	mod	mod	nt	ht	nh/0273_nh.bmp
275.76	0.72	374	5	6	82	per	lib	low	mod	low	tg	ms	wh/0075.bmp
276.48	0.72	375	3	5	19	mem	con	mod	mod	mod	tg	ht	wh/0543.bmp
277.20	0.72	376	3	7	121	mem	con	mod	mod	mod	nt	ht	nh/0909_nh.bmp
277.92	0.72	377	2	5	39	per	lib	mod	mod	mod	nt	cr	nh/0588_nh.bmp
278.64	0.72	378	2	5	108	mem	lib	mod	mod	low	tg	ht	wh/0364.bmp
279.36	0.72	379	3	6	69	mem	con	mod	mod	low	nt	ms	nh/0035_nh.bmp
280.08	0.72	380	3	5	30	mem	con	mod	mod	mod	nt	ht	nh/0714_nh.bmp
280.80	0.72	381	2	6	14	per	con	low	mod	low	nt	cr	nh/1023_nh.bmp
281.52	0.72	382	3	8	119	per	con	mod	mod	mod	nt	cr	nh/0962_nh.bmp
282.24	0.72	383	3	6	98	mem	lib	mod	mod	mod	tg	n/a	wh/0319.bmp
282.96	0.72	384	1	7	34	mem	con	low	low	mod	nt	ms	nh/0849_nh.bmp
283.68	0.72	385	3	5	101	mem	lib	mod	mod	low	tg	ht	wh/0256.bmp
284.40	0.72	386	4	8	2	per	lib	low	mod	low	nt	fa	nh/0577_nh.bmp
285.12	0.72	387	2	8	118	per	con	mod	mod	mod	nt	cr	nh/0957_nh.bmp
285.84	0.72	388	1	6	10	per	con	low	mod	low	tg	ms	wh/0635.bmp
286.56	0.72	389	2	8	115	per	con	mod	mod	mod	nt	cr	nh/0946_nh.bmp
287.28	0.72	390	1	8	28	per	con	low	mod	low	nt	cr	nh/0613_nh.bmp
288.00	0.72	391	3	6	35	per	con	mod	mod	mod	nt	cr	nh/0442_nh.bmp
288.72	0.72	392	2	6	47	per	con	mod	mod	mod	tg	ht	wh/0591.bmp
289.44	0.72	393	2	7	114	mem	con	mod	mod	mod	tg	ht	wh/0807.bmp
290.16	0.72	394	1	8	12	per	lib	low	mod	low	nt	fa	nh/0568_nh.bmp
290.88	0.72	395	1	5	74	per	con	low	low	low	tg	ht	wh/0266.bmp
291.60	0.72	396	3	8	123	per	con	mod	mod	mod	tg	ht	wh/0339.bmp
292.32	0.72	397	2	6	10	per	con	low	mod	low	tg	ms	wh/0635.bmp
293.04	0.72	398	1	5	85	mem	con	low	low	low	nt	ms	nh/0731_nh.bmp
293.76	0.72	399	4	5	19	mem	con	mod	mod	mod	tg	ht	wh/0543.bmp
294.48	0.72	400	2	5	110	mem	lib	mod	mod	low	nt	ht	nh/0355_nh.bmp
295.20	0.72	401	3	6	45	per	con	mod	mod	mod	tg	ht	wh/0398.bmp
295.92	0.72	402	1	5	66	per	con	low	low	low	tg	ms	wh/0439.bmp
296.64	0.72	403	5	6	2	per	con	low	mod	low	tg	ms	wh/0608.bmp
297.36	0.72	404	3	7	122	mem	con	mod	mod	mod	tg	ms	wh/0540.bmp
298.08	0.72	405	2	5	33	per	lib	mod	mod	mod	tg	ms	wh/0954.bmp
298.80	0.72	406	3	8	87	mem	con	mod	mod	low	tg	ht	wh/0232.bmp
299.52	0.72	407	2	7	9	per	lib	mod	mod	mod	tg	ht	wh/0947.bmp
300.24	0.72	408	4	5	98	mem	lib	mod	mod	low	nt	ht	nh/0404_nh.bmp
300.96	0.72	409	3	8	64	mem	lib	mod	mod	mod	tg	ht	wh/0650.bmp
301.68	0.72	410	2	8	12	per	lib	low	mod	low	nt	fa	nh/0568_nh.bmp
302.40	0.72	411	1	7	88	mem	lib	low	low	low	tg	ht	wh/0458.bmp
303.12	0.72	412	1	7	27	per	lib	low	low	low	nt	fa	nh/0370_nh.bmp
303.84	0.72	413	2	5	111	mem	lib	mod	mod	low	nt	ht	nh/0744_nh.bmp
304.56	0.72	414	2	7	13	per	lib	mod	mod	mod	nt	fa	nh/0548_nh.bmp
305.28	0.72	415	3	6	47	per	con	mod	mod	mod	tg	ht	wh/0591.bmp
306.00	0.72	416	3	5	111	mem	lib	mod	mod	low	nt	ht	nh/0744_nh.bmp
306.72	0.72	417	1	7	47	mem	con	low	low	mod	tg	ms	wh/0838.bmp
307.44	0.72	418	3	6	95	per	lib	low	mod	low	nt	fa	nh/0125_nh.bmp
308.16	0.72	419	1	7	81	mem	lib	low	low	low	nt	ht	nh/0261_nh.bmp
308.88	0.72	420	1	5	50	per	con	mod	low	mod	nt	cr	nh/0693_nh.bmp
309.60	0.72	421	3	5	38	per	lib	mod	mod	mod	tg	ht	wh/0697.bmp
310.32	0.72	422	3	5	108	mem	lib	mod	mod	low	tg	ht	wh/0364.bmp
311.04	0.72	423	2	7	7	per	lib	mod	mod	mod	tg	ht	wh/0462.bmp
311.76	0.72	424	1	8	55	mem	lib	mod	mod	mod	tg	ht	wh/0904.bmp
312.48	0.72	425	4	7	122	mem	con	mod	mod	mod	tg	ms	wh/0540.bmp
313.20	0.72	426	4	8	27	per	con	low	mod	low	nt	cr	nh/0802_nh.bmp
313.92	0.72	427	3	8	57	mem	lib	mod	mod	mod	tg	ht	wh/0182.bmp
314.64	0.72	428	1	7	103	per	con	mod	low	mod	tg	ht	wh/0923.bmp
315.36	0.72	429	3	8	115	per	con	mod	mod	mod	nt	cr	nh/0946_nh.bmp
316.08	0.72	430	1	5	70	per	con	low	low	low	nt	cr	nh/0536_nh.bmp
316.80	0.72	431	3	6	105	mem	lib	mod	mod	mod	nt	ht	nh/0941_nh.bmp
317.52	0.72	432	3	6	10	per	con	low	mod	low	tg	ms	wh/0635.bmp
318.24	0.72	433	3	8	60	mem	lib	mod	mod	mod	nt	ht	nh/0805_nh.bmp
318.96	0.72	434	3	7	9	per	lib	mod	mod	mod	tg	ht	wh/0947.bmp
319.68	0.72	435	1	7	31	per	lib	low	low	low	nt	fa	nh/0864_nh.bmp
320.40	0.72	436	1	8	48	mem	lib	low	low	mod	tg	ms	wh/0530.bmp
321.12	0.72	437	5	8	11	per	lib	low	mod	low	tg	ms	wh/0619.bmp
321.84	0.72	438	4	8	87	mem	con	mod	mod	low	tg	ht	wh/0232.bmp
322.56	0.72	439	1	6	23	per	lib	mod	low	mod	nt	cr	nh/0038_nh.bmp
323.28	0.72	440	2	6	34	per	con	mod	mod	mod	tg	ht	wh/0328.bmp
324.00	0.72	441	2	8	28	per	con	low	mod	low	nt	cr	nh/0613_nh.bmp
324.72	0.72	442	4	7	61	mem	lib	mod	mod	low	nt	ht	nh/0345_nh.bmp
325.44	0.72	443	4	6	95	per	lib	low	mod	low	nt	fa	nh/0125_nh.bmp
326.16	0.72	444	4	6	7	per	con	low	mod	low	nt	cr	nh/0493_nh.bmp
326.88	0.72	445	4	6	10	per	con	low	mod	low	tg	ms	wh/0635.bmp
327.60	0.72	446	2	6	96	per	lib	low	mod	low	tg	ht	wh/0074.bmp
328.32	0.72	447	5	8	27	per	con	low	mod	low	nt	cr	nh/0802_nh.bmp
329.04	0.72	448	4	6	105	mem	lib	mod	mod	mod	nt	ht	nh/0941_nh.bmp
329.76	0.72	449	3	6	34	per	con	mod	mod	mod	tg	ht	wh/0328.bmp
330.48	0.72	450	4	8	60	mem	lib	mod	mod	mod	nt	ht	nh/0805_nh.bmp
331.20	0.72	451	3	5	22	mem	con	mod	mod	mod	nt	ms	nh/0446_nh.bmp
331.92	0.72	452	3	5	33	per	lib	mod	mod	mod	tg	ms	wh/0954.bmp
332.64	0.72	453	3	8	28	per	con	low	mod	low	nt	cr	nh/0613_nh.bmp
333.36	0.72	454	1	6	55	mem	lib	low	low	low	nt	ht	nh/0956_nh.bmp
334.08	0.72	455	3	6	112	mem	lib	mod	mod	mod	tg	ht	wh/0094.bmp
334.80	0.72	456	4	8	22	per	con	low	mod	low	tg	ms	wh/0150.bmp
335.52	0.72	457	5	6	100	mem	lib	mod	mod	mod	nt	ht	nh/0199_nh.bmp
336.24	0.72	458	4	5	111	mem	lib	mod	mod	low	nt	ht	nh/0744_nh.bmp
336.96	0.72	459	3	8	118	per	con	mod	mod	mod	nt	cr	nh/0957_nh.bmp
337.68	0.72	460	4	8	26	per	con	low	mod	low	nt	cr	nh/0417_nh.bmp
338.40	0.72	461	4	6	47	per	con	mod	mod	mod	tg	ht	wh/0591.bmp
339.12	0.72	462	4	8	119	per	con	mod	mod	mod	nt	cr	nh/0962_nh.bmp
339.84	0.72	463	3	7	12	per	lib	mod	mod	mod	nt	cr	nh/0784_nh.bmp
340.56	0.72	464	4	7	51	mem	lib	mod	mod	low	nt	ht	nh/0510_nh.bmp
341.28	0.72	465	4	6	45	per	con	mod	mod	mod	tg	ht	wh/0398.bmp
342.00	0.72	466	6	6	100	mem	lib	mod	mod	mod	nt	ht	nh/0199_nh.bmp
342.72	0.72	467	4	5	34	per	lib	mod	mod	mod	tg	ht	wh/0095.bmp
343.44	0.72	468	2	8	1	per	lib	low	mod	low	nt	cr	nh/0508_nh.bmp
344.16	0.72	469	2	6	41	per	con	mod	mod	mod	nt	cr	nh/0795_nh.bmp
344.88	0.72	470	2	7	2	per	lib	mod	mod	mod	tg	ht	wh/0973.bmp
345.60	0.72	471	5	8	121	per	con	mod	mod	mod	tg	ms	wh/0558.bmp
346.32	0.72	472	2	8	53	mem	lib	mod	mod	mod	tg	ht	wh/0810.bmp
347.04	0.72	473	3	8	1	per	lib	low	mod	low	nt	cr	nh/0508_nh.bmp
347.76	0.72	474	3	8	12	per	lib	low	mod	low	nt	fa	nh/0568_nh.bmp
348.48	0.72	475	1	8	75	mem	con	low	low	low	tg	ms	wh/0090.bmp
349.20	0.72	476	3	7	114	mem	con	mod	mod	mod	tg	ht	wh/0807.bmp
349.92	0.72	477	1	8	82	mem	con	mod	mod	low	tg	ms	wh/0036.bmp
350.64	0.72	478	4	8	57	mem	lib	mod	mod	mod	tg	ht	wh/0182.bmp
351.36	0.72	479	4	8	85	mem	con	mod	mod	low	nt	ms	nh/0361_nh.bmp
352.08	0.72	480	1	5	88	mem	con	low	low	low	nt	ms	nh/0173_nh.bmp
352.80	0.72	481	4	6	16	per	con	low	mod	low	nt	fa	nh/0123_nh.bmp
353.52	0.72	482	3	6	68	mem	con	mod	mod	low	nt	ms	nh/0194_nh.bmp
354.24	0.72	483	5	7	51	mem	lib	mod	mod	low	nt	ht	nh/0510_nh.bmp
354.96	0.72	484	4	6	35	per	con	mod	mod	mod	nt	cr	nh/0442_nh.bmp
355.68	0.72	485	1	5	113	per	lib	low	low	low	nt	fa	nh/0452_nh.bmp
356.40	0.72	486	3	8	81	mem	con	mod	mod	low	tg	ms	wh/0818.bmp
357.12	0.72	487	6	7	59	mem	lib	mod	mod	low	tg	ht	wh/0284.bmp
357.84	0.72	488	4	5	22	mem	con	mod	mod	mod	nt	ms	nh/0446_nh.bmp
358.56	0.72	489	4	8	31	per	con	low	mod	low	tg	ms	wh/0451.bmp
359.28	0.72	490	4	8	28	per	con	low	mod	low	nt	cr	nh/0613_nh.bmp
360.00	0.72	491	4	5	108	mem	lib	mod	mod	low	tg	ht	wh/0364.bmp
360.72	0.72	492	4	8	63	mem	lib	mod	mod	mod	nt	ht	nh/0273_nh.bmp
361.44	0.72	493	3	7	7	per	lib	mod	mod	mod	tg	ht	wh/0462.bmp
362.16	0.72	494	3	6	14	per	con	low	mod	low	nt	cr	nh/1023_nh.bmp
362.88	0.72	495	4	6	72	mem	con	mod	mod	low	tg	ms	wh/0080.bmp
363.60	0.72	496	5	8	31	per	con	low	mod	low	tg	ms	wh/0451.bmp
364.32	0.72	497	4	8	115	per	con	mod	mod	mod	nt	cr	nh/0946_nh.bmp
365.04	0.72	498	4	8	12	per	lib	low	mod	low	nt	fa	nh/0568_nh.bmp
365.76	0.72	499	3	7	128	mem	con	mod	mod	mod	nt	ms	nh/0371_nh.bmp
366.48	0.72	500	1	6	113	mem	con	low	low	mod	nt	ms	nh/0092_nh.bmp
367.20	0.72	501	4	8	81	mem	con	mod	mod	low	tg	ms	wh/0818.bmp
367.92	0.72	502	4	8	126	per	con	mod	mod	mod	tg	ht	wh/0350.bmp
368.64	0.72	503	1	6	57	mem	lib	low	low	low	tg	ht	wh/0823.bmp
369.36	0.72	504	3	8	84	mem	con	mod	mod	low	nt	ht	nh/0760_nh.bmp
370.08	0.72	505	5	8	127	per	con	mod	mod	mod	nt	cr	nh/0748_nh.bmp
370.80	0.72	506	2	6	37	per	con	mod	mod	mod	nt	cr	nh/0684_nh.bmp
371.52	0.72	507	3	6	78	mem	con	mod	mod	low	tg	ms	wh/0940.bmp
372.24	0.72	508	3	6	80	mem	con	mod	mod	low	nt	ht	nh/0963_nh.bmp
372.96	0.72	509	3	7	13	per	lib	mod	mod	mod	nt	fa	nh/0548_nh.bmp
373.68	0.72	510	5	5	29	mem	con	mod	mod	mod	tg	ht	wh/0542.bmp
374.40	0.72	511	2	6	101	mem	lib	mod	mod	mod	tg	ht	wh/0855.bmp
375.12	0.72	512	5	6	10	per	con	low	mod	low	tg	ms	wh/0635.bmp
375.84	0.72	513	4	8	64	mem	lib	mod	mod	mod	tg	ht	wh/0650.bmp
376.56	0.72	514	4	7	13	per	lib	mod	mod	mod	nt	fa	nh/0548_nh.bmp
377.28	0.72	515	4	8	118	per	con	mod	mod	mod	nt	cr	nh/0957_nh.bmp
378.00	0.72	516	1	8	101	per	lib	mod	low	mod	nt	fa	nh/0782_nh.bmp
378.72	0.72	517	5	6	45	per	con	mod	mod	mod	tg	ht	wh/0398.bmp
379.44	0.72	518	4	5	30	mem	con	mod	mod	mod	nt	ht	nh/0714_nh.bmp
380.16	0.72	519	3	7	116	mem	con	mod	mod	mod	tg	ht	wh/0716.bmp
380.88	0.72	520	3	5	110	mem	lib	mod	mod	low	nt	ht	nh/0355_nh.bmp
381.60	0.72	521	2	5	31	mem	con	mod	mod	mod	tg	ht	wh/0680.bmp
382.32	0.72	522	6	6	2	per	con	low	mod	low	tg	ms	wh/0608.bmp
383.04	0.72	523	3	6	37	per	con	mod	mod	mod	nt	cr	nh/0684_nh.bmp
383.76	0.72	524	2	8	59	mem	lib	mod	mod	mod	nt	ht	nh/0428_nh.bmp
384.48	0.72	525	5	8	22	per	con	low	mod	low	tg	ms	wh/0150.bmp
385.20	0.72	526	3	7	118	mem	con	mod	mod	mod	nt	ms	nh/0803_nh.bmp
385.92	0.72	527	4	7	118	mem	con	mod	mod	mod	nt	ms	nh/0803_nh.bmp
386.64	0.72	528	3	6	41	per	con	mod	mod	mod	nt	cr	nh/0795_nh.bmp
387.36	0.72	529	4	8	84	mem	con	mod	mod	low	nt	ht	nh/0760_nh.bmp
388.08	0.72	530	3	6	9	per	con	low	mod	low	nt	cr	nh/0934_nh.bmp
388.80	0.72	531	4	6	37	per	con	mod	mod	mod	nt	cr	nh/0684_nh.bmp
389.52	0.72	532	4	5	33	per	lib	mod	mod	mod	tg	ms	wh/0954.bmp
390.24	0.72	533	5	6	67	mem	con	mod	mod	low	nt	ms	nh/0660_nh.bmp
390.96	0.72	534	4	7	9	per	lib	mod	mod	mod	tg	ht	wh/0947.bmp
391.68	0.72	535	5	8	90	mem	con	mod	mod	low	nt	ms	nh/0690_nh.bmp
392.40	0.72	536	5	8	5	per	lib	low	mod	low	nt	fa	nh/0503_nh.bmp
393.12	0.72	537	3	6	101	mem	lib	mod	mod	mod	tg	ht	wh/0855.bmp
393.84	0.72	538	5	8	81	mem	con	mod	mod	low	tg	ms	wh/0818.bmp
394.56	0.72	539	1	5	84	mem	con	low	low	low	tg	ms	wh/0460.bmp
395.28	0.72	540	3	5	36	per	lib	mod	mod	mod	nt	cr	nh/0843_nh.bmp
396.00	0.72	541	1	7	99	per	con	mod	low	mod	nt	cr	nh/0992_nh.bmp
396.72	0.72	542	3	8	59	mem	lib	mod	mod	mod	nt	ht	nh/0428_nh.bmp
397.44	0.72	543	4	5	38	per	lib	mod	mod	mod	tg	ht	wh/0697.bmp
398.16	0.72	544	6	8	5	per	lib	low	mod	low	nt	fa	nh/0503_nh.bmp
398.88	0.72	545	3	5	39	per	lib	mod	mod	mod	nt	cr	nh/0588_nh.bmp
399.60	0.72	546	5	7	13	per	lib	mod	mod	mod	nt	fa	nh/0548_nh.bmp
400.32	0.72	547	2	8	82	mem	con	mod	mod	low	tg	ms	wh/0036.bmp
401.04	0.72	548	4	6	36	per	con	mod	mod	mod	nt	cr	nh/0380_nh.bmp
401.76	0.72	549	1	8	33	mem	lib	low	low	mod	tg	ht	wh/0860.bmp
402.48	0.72	550	4	7	14	per	lib	mod	mod	mod	tg	ms	wh/0397.bmp
403.20	0.72	551	3	5	43	per	lib	mod	mod	mod	nt	cr	nh/0396_nh.bmp
403.92	0.72	552	5	5	111	mem	lib	mod	mod	low	nt	ht	nh/0744_nh.bmp
404.64	0.72	553	2	6	91	per	lib	low	mod	low	tg	ms	wh/0190.bmp
405.36	0.72	554	3	5	31	mem	con	mod	mod	mod	tg	ht	wh/0680.bmp
406.08	0.72	555	4	5	26	mem	con	mod	mod	mod	nt	ms	nh/0196_nh.bmp
406.80	0.72	556	4	6	112	mem	lib	mod	mod	mod	tg	ht	wh/0094.bmp
407.52	0.72	557	5	6	84	per	lib	low	mod	low	nt	fa	nh/0465_nh.bmp
408.24	0.72	558	4	6	98	mem	lib	mod	mod	mod	tg	n/a	wh/0319.bmp
408.96	0.72	559	4	5	43	per	lib	mod	mod	mod	nt	cr	nh/0396_nh.bmp
409.68	0.72	560	4	5	39	per	lib	mod	mod	mod	nt	cr	nh/0588_nh.bmp
410.40	0.72	561	5	6	92	per	lib	low	mod	low	nt	fa	nh/0238_nh.bmp
411.12	0.72	562	5	7	123	mem	con	mod	mod	mod	nt	ms	nh/0928_nh.bmp
411.84	0.72	563	3	5	109	mem	lib	mod	mod	low	tg	ht	wh/0351.bmp
412.56	0.72	564	4	5	36	per	lib	mod	mod	mod	nt	cr	nh/0843_nh.bmp
413.28	0.72	565	4	6	68	mem	con	mod	mod	low	nt	ms	nh/0194_nh.bmp
414.00	0.72	566	3	7	125	mem	con	mod	mod	mod	tg	ht	wh/0772.bmp
414.72	0.72	567	5	7	56	mem	lib	mod	mod	low	nt	ht	nh/0134_nh.bmp
415.44	0.72	568	3	6	91	per	lib	low	mod	low	tg	ms	wh/0190.bmp
416.16	0.72	569	2	7	52	mem	lib	mod	mod	low	nt	ht	nh/0338_nh.bmp
416.88	0.72	570	6	8	31	per	con	low	mod	low	tg	ms	wh/0451.bmp
417.60	0.72	571	1	5	68	per	con	low	low	low	tg	ms	wh/0158.bmp
418.32	0.72	572	6	8	121	per	con	mod	mod	mod	tg	ms	wh/0558.bmp
419.04	0.72	573	2	8	55	mem	lib	mod	mod	mod	tg	ht	wh/0904.bmp
419.76	0.72	574	3	6	93	per	lib	low	mod	low	tg	ms	wh/0967.bmp
420.48	0.72	575	5	5	34	per	lib	mod	mod	mod	tg	ht	wh/0095.bmp
421.20	0.72	576	4	7	62	mem	lib	mod	mod	low	tg	ht	wh/0329.bmp
421.92	0.72	577	5	8	84	mem	con	mod	mod	low	nt	ht	nh/0760_nh.bmp
422.64	0.72	578	3	8	53	mem	lib	mod	mod	mod	tg	ht	wh/0810.bmp
423.36	0.72	579	4	6	14	per	con	low	mod	low	nt	cr	nh/1023_nh.bmp
424.08	0.72	580	4	7	121	mem	con	mod	mod	mod	nt	ht	nh/0909_nh.bmp
424.80	0.72	581	4	8	123	per	con	mod	mod	mod	tg	ht	wh/0339.bmp
425.52	0.72	582	3	5	100	mem	lib	mod	mod	low	nt	ht	nh/0730_nh.bmp
426.24	0.72	583	5	6	35	per	con	mod	mod	mod	nt	cr	nh/0442_nh.bmp
426.96	0.72	584	5	5	22	mem	con	mod	mod	mod	nt	ms	nh/0446_nh.bmp
427.68	0.72	585	1	7	22	per	lib	low	low	low	tg	ms	wh/0789.bmp
428.40	0.72	586	5	6	14	per	con	low	mod	low	nt	cr	nh/1023_nh.bmp
429.12	0.72	587	6	5	34	per	lib	mod	mod	mod	tg	ht	wh/0095.bmp
429.84	0.72	588	5	8	26	per	con	low	mod	low	nt	cr	nh/0417_nh.bmp
430.56	0.72	589	4	6	91	per	lib	low	mod	low	tg	ms	wh/0190.bmp
431.28	0.72	590	5	7	62	mem	lib	mod	mod	low	tg	ht	wh/0329.bmp
432.00	0.72	591	4	7	7	per	lib	mod	mod	mod	tg	ht	wh/0462.bmp
432.72	0.72	592	5	8	87	mem	con	mod	mod	low	tg	ht	wh/0232.bmp
433.44	0.72	593	1	7	32	per	lib	low	low	low	tg	ht	wh/0579.bmp
434.16	0.72	594	4	8	53	mem	lib	mod	mod	mod	tg	ht	wh/0810.bmp
434.88	0.72	595	5	5	98	mem	lib	mod	mod	low	nt	ht	nh/0404_nh.bmp
435.60	0.72	596	5	8	64	mem	lib	mod	mod	mod	tg	ht	wh/0650.bmp
436.32	0.72	597	3	8	82	mem	con	mod	mod	low	tg	ms	wh/0036.bmp
437.04	0.72	598	1	5	12	mem	lib	low	low	mod	nt	ht	nh/0520_nh.bmp
437.76	0.72	599	6	5	98	mem	lib	mod	mod	low	nt	ht	nh/0404_nh.bmp
438.48	0.72	600	1	5	90	mem	con	low	low	low	tg	ms	wh/0881.bmp
439.20	0.72	601	4	7	125	mem	con	mod	mod	mod	tg	ht	wh/0772.bmp
439.92	0.72	602	1	8	70	mem	con	low	low	low	tg	ms	wh/0053.bmp
440.64	0.72	603	4	7	128	mem	con	mod	mod	mod	nt	ms	nh/0371_nh.bmp
441.36	0.72	604	6	7	62	mem	lib	mod	mod	low	tg	ht	wh/0329.bmp
442.08	0.72	605	3	5	18	mem	con	mod	mod	mod	nt	ms	nh/0099_nh.bmp
442.80	0.72	606	3	7	52	mem	lib	mod	mod	low	nt	ht	nh/0338_nh.bmp
443.52	0.72	607	1	8	45	mem	lib	low	low	mod	nt	ht	nh/0787_nh.bmp
444.24	0.72	608	5	6	1	per	con	low	mod	low	tg	ms	wh/0082.bmp
444.96	0.72	609	6	7	13	per	lib	mod	mod	mod	nt	fa	nh/0548_nh.bmp
445.68	0.72	610	3	6	104	mem	lib	mod	mod	mod	nt	ht	nh/0874_nh.bmp
446.40	0.72	611	4	5	18	mem	con	mod	mod	mod	nt	ms	nh/0099_nh.bmp
447.12	0.72	612	4	6	101	mem	lib	mod	mod	mod	tg	ht	wh/0855.bmp
447.84	0.72	613	5	7	125	mem	con	mod	mod	mod	tg	ht	wh/0772.bmp
448.56	0.72	614	1	7	93	mem	lib	low	low	low	nt	ht	nh/0055_nh.bmp
449.28	0.72	615	4	8	82	mem	con	mod	mod	low	tg	ms	wh/0036.bmp
450.00	0.72	616	5	5	26	mem	con	mod	mod	mod	nt	ms	nh/0196_nh.bmp
450.72	0.72	617	1	7	86	mem	lib	low	low	low	tg	ht	wh/0513.bmp
451.44	0.72	618	5	8	57	mem	lib	mod	mod	mod	tg	ht	wh/0182.bmp
452.16	0.72	619	4	7	52	mem	lib	mod	mod	low	nt	ht	nh/0338_nh.bmp
452.88	0.72	620	1	6	19	per	lib	mod	low	mod	nt	fa	nh/0846_nh.bmp
453.60	0.72	621	4	6	102	mem	lib	mod	mod	mod	tg	ht	wh/0187.bmp
454.32	0.72	622	4	5	110	mem	lib	mod	mod	low	nt	ht	nh/0355_nh.bmp
455.04	0.72	623	4	5	101	mem	lib	mod	mod	low	tg	ht	wh/0256.bmp
455.76	0.72	624	4	8	59	mem	lib	mod	mod	mod	nt	ht	nh/0428_nh.bmp
456.48	0.72	625	4	6	39	per	con	mod	mod	mod	tg	ht	wh/0902.bmp
457.20	0.72	626	6	6	1	per	con	low	mod	low	tg	ms	wh/0082.bmp
457.92	0.72	627	3	7	8	per	lib	mod	mod	mod	nt	fa	nh/0563_nh.bmp
458.64	0.72	628	5	6	16	per	con	low	mod	low	nt	fa	nh/0123_nh.bmp
459.36	0.72	629	3	8	32	per	con	low	mod	low	tg	ms	wh/0336.bmp
460.08	0.72	630	4	6	41	per	con	mod	mod	mod	nt	cr	nh/0795_nh.bmp
460.80	0.72	631	4	5	31	mem	con	mod	mod	mod	tg	ht	wh/0680.bmp
461.52	0.72	632	4	7	8	per	lib	mod	mod	mod	nt	fa	nh/0563_nh.bmp
462.24	0.72	633	6	8	90	mem	con	mod	mod	low	nt	ms	nh/0690_nh.bmp
462.96	0.72	634	3	6	96	per	lib	low	mod	low	tg	ht	wh/0074.bmp
463.68	0.72	635	5	5	33	per	lib	mod	mod	mod	tg	ms	wh/0954.bmp
464.40	0.72	636	6	7	125	mem	con	mod	mod	mod	tg	ht	wh/0772.bmp
465.12	0.72	637	5	8	126	per	con	mod	mod	mod	tg	ht	wh/0350.bmp
465.84	0.72	638	5	7	7	per	lib	mod	mod	mod	tg	ht	wh/0462.bmp
466.56	0.72	639	3	7	2	per	lib	mod	mod	mod	tg	ht	wh/0973.bmp
467.28	0.72	640	5	7	8	per	lib	mod	mod	mod	nt	fa	nh/0563_nh.bmp
468.00	0.72	641	3	6	74	mem	con	mod	mod	low	tg	ht	wh/0032.bmp
468.72	0.72	642	5	5	36	per	lib	mod	mod	mod	nt	cr	nh/0843_nh.bmp
469.44	0.72	643	6	7	7	per	lib	mod	mod	mod	tg	ht	wh/0462.bmp
470.16	0.72	644	5	5	39	per	lib	mod	mod	mod	nt	cr	nh/0588_nh.bmp
470.88	0.72	645	5	8	82	mem	con	mod	mod	low	tg	ms	wh/0036.bmp
471.60	0.72	646	5	6	95	per	lib	low	mod	low	nt	fa	nh/0125_nh.bmp
472.32	0.72	647	1	5	91	mem	con	low	low	low	nt	ms	nh/0225_nh.bmp
473.04	0.72	648	5	6	7	per	con	low	mod	low	nt	cr	nh/0493_nh.bmp
473.76	0.72	649	1	7	71	per	con	low	low	low	tg	ht	wh/0431.bmp
474.48	0.72	650	5	7	14	per	lib	mod	mod	mod	tg	ms	wh/0397.bmp
475.20	0.72	651	5	6	112	mem	lib	mod	mod	mod	tg	ht	wh/0094.bmp
475.92	0.72	652	5	7	128	mem	con	mod	mod	mod	nt	ms	nh/0371_nh.bmp
476.64	0.72	653	5	6	68	mem	con	mod	mod	low	nt	ms	nh/0194_nh.bmp
477.36	0.72	654	4	7	2	per	lib	mod	mod	mod	tg	ht	wh/0973.bmp
478.08	0.72	655	5	5	31	mem	con	mod	mod	mod	tg	ht	wh/0680.bmp
478.80	0.72	656	5	6	101	mem	lib	mod	mod	mod	tg	ht	wh/0855.bmp
479.52	0.72	657	5	7	118	mem	con	mod	mod	mod	nt	ms	nh/0803_nh.bmp
480.24	0.72	658	5	7	121	mem	con	mod	mod	mod	nt	ht	nh/0909_nh.bmp
480.96	0.72	659	1	8	107	per	lib	mod	low	mod	tg	ms	wh/0290.bmp
481.68	0.72	660	6	7	118	mem	con	mod	mod	mod	nt	ms	nh/0803_nh.bmp
482.40	0.72	661	5	5	110	mem	lib	mod	mod	low	nt	ht	nh/0355_nh.bmp
483.12	0.72	662	6	5	33	per	lib	mod	mod	mod	tg	ms	wh/0954.bmp
483.84	0.72	663	5	8	12	per	lib	low	mod	low	nt	fa	nh/0568_nh.bmp
484.56	0.72	664	4	6	96	per	lib	low	mod	low	tg	ht	wh/0074.bmp
485.28	0.72	665	6	8	10	per	lib	low	mod	low	tg	ht	wh/0029.bmp
486.00	0.72	666	6	5	111	mem	lib	mod	mod	low	nt	ht	nh/0744_nh.bmp
486.72	0.72	667	5	8	123	per	con	mod	mod	mod	tg	ht	wh/0339.bmp
487.44	0.72	668	5	7	52	mem	lib	mod	mod	low	nt	ht	nh/0338_nh.bmp
488.16	0.72	669	1	8	41	mem	lib	low	low	mod	nt	ht	nh/0936_nh.bmp
488.88	0.72	670	4	5	17	mem	con	mod	mod	mod	tg	ht	wh/0594.bmp
489.60	0.72	671	1	5	127	per	lib	low	low	low	nt	fa	nh/0483_nh.bmp
490.32	0.72	672	4	6	69	mem	con	mod	mod	low	nt	ms	nh/0035_nh.bmp
491.04	0.72	673	1	5	63	per	con	mod	low	mod	tg	ms	wh/0426.bmp
491.76	0.72	674	1	7	97	per	con	mod	low	mod	tg	ms	wh/0469.bmp
492.48	0.72	675	5	8	89	mem	con	mod	mod	low	tg	ms	wh/0077.bmp
493.20	0.72	676	5	8	59	mem	lib	mod	mod	mod	nt	ht	nh/0428_nh.bmp
493.92	0.72	677	4	7	12	per	lib	mod	mod	mod	nt	cr	nh/0784_nh.bmp
494.64	0.72	678	6	8	89	mem	con	mod	mod	low	tg	ms	wh/0077.bmp
495.36	0.72	679	6	5	29	mem	con	mod	mod	mod	tg	ht	wh/0542.bmp
496.08	0.72	680	3	8	55	mem	lib	mod	mod	mod	tg	ht	wh/0904.bmp
496.80	0.72	681	1	5	53	per	con	mod	low	mod	nt	cr	nh/0306_nh.bmp
497.52	0.72	682	6	8	127	per	con	mod	mod	mod	nt	cr	nh/0748_nh.bmp
498.24	0.72	683	6	8	82	mem	con	mod	mod	low	tg	ms	wh/0036.bmp
498.96	0.72	684	6	6	67	mem	con	mod	mod	low	nt	ms	nh/0660_nh.bmp
499.68	0.72	685	1	7	105	per	con	mod	low	mod	nt	cr	nh/0068_nh.bmp
500.40	0.72	686	4	8	16	per	lib	low	mod	low	tg	ht	wh/0489.bmp
501.12	0.72	687	6	8	22	per	con	low	mod	low	tg	ms	wh/0150.bmp
501.84	0.72	688	5	6	83	per	lib	low	mod	low	nt	cr	nh/0383_nh.bmp
502.56	0.72	689	4	6	78	mem	con	mod	mod	low	tg	ms	wh/0940.bmp
503.28	0.72	690	6	8	27	per	con	low	mod	low	nt	cr	nh/0802_nh.bmp
504.00	0.72	691	5	8	58	mem	lib	mod	mod	mod	nt	ht	nh/0209_nh.bmp
504.72	0.72	692	5	7	122	mem	con	mod	mod	mod	tg	ms	wh/0540.bmp
505.44	0.72	693	6	7	14	per	lib	mod	mod	mod	tg	ms	wh/0397.bmp
506.16	0.72	694	1	8	102	per	lib	mod	low	mod	nt	cr	nh/0708_nh.bmp
506.88	0.72	695	4	6	74	mem	con	mod	mod	low	tg	ht	wh/0032.bmp
507.60	0.72	696	1	5	60	per	con	mod	low	mod	tg	ms	wh/0626.bmp
508.32	0.72	697	4	6	34	per	con	mod	mod	mod	tg	ht	wh/0328.bmp
509.04	0.72	698	5	8	15	per	lib	low	mod	low	tg	ht	wh/0893.bmp
509.76	0.72	699	5	6	91	per	lib	low	mod	low	tg	ms	wh/0190.bmp
510.48	0.72	700	6	6	35	per	con	mod	mod	mod	nt	cr	nh/0442_nh.bmp
511.20	0.72	701	1	6	24	per	lib	mod	low	mod	nt	cr	nh/0721_nh.bmp
511.92	0.72	702	5	6	98	mem	lib	mod	mod	mod	tg	n/a	wh/0319.bmp
512.64	0.72	703	6	6	16	per	con	low	mod	low	nt	fa	nh/0123_nh.bmp
513.36	0.72	704	4	6	104	mem	lib	mod	mod	mod	nt	ht	nh/0874_nh.bmp
514.08	0.72	705	5	5	17	mem	con	mod	mod	mod	tg	ht	wh/0594.bmp
514.80	0.72	706	1	8	78	mem	con	low	low	low	tg	ms	wh/0197.bmp
515.52	0.72	707	5	6	36	per	con	mod	mod	mod	nt	cr	nh/0380_nh.bmp
516.24	0.72	708	5	8	16	per	lib	low	mod	low	tg	ht	wh/0489.bmp
516.96	0.72	709	5	7	12	per	lib	mod	mod	mod	nt	cr	nh/0784_nh.bmp
517.68	0.72	710	4	6	9	per	con	low	mod	low	nt	cr	nh/0934_nh.bmp
518.40	0.72	711	5	6	37	per	con	mod	mod	mod	nt	cr	nh/0684_nh.bmp
519.12	0.72	712	4	5	100	mem	lib	mod	mod	low	nt	ht	nh/0730_nh.bmp
519.84	0.72	713	6	6	101	mem	lib	mod	mod	mod	tg	ht	wh/0855.bmp
520.56	0.72	714	1	6	125	mem	con	low	low	mod	tg	ms	wh/0699.bmp
521.28	0.72	715	4	8	32	per	con	low	mod	low	tg	ms	wh/0336.bmp
522.00	0.72	716	6	8	26	per	con	low	mod	low	nt	cr	nh/0417_nh.bmp
522.72	0.72	717	6	8	12	per	lib	low	mod	low	nt	fa	nh/0568_nh.bmp
523.44	0.72	718	6	8	57	mem	lib	mod	mod	mod	tg	ht	wh/0182.bmp
524.16	0.72	719	6	6	91	per	lib	low	mod	low	tg	ms	wh/0190.bmp
524.88	0.72	720	4	5	99	mem	lib	mod	mod	low	tg	ht	wh/0758.bmp
525.60	0.72	721	4	5	48	per	lib	mod	mod	mod	tg	ht	wh/0876.bmp
526.32	0.72	722	3	8	83	mem	con	mod	mod	low	nt	ht	nh/0443_nh.bmp
527.04	0.72	723	5	6	34	per	con	mod	mod	mod	tg	ht	wh/0328.bmp
527.76	0.72	724	3	6	79	mem	con	mod	mod	low	tg	ht	wh/0646.bmp
528.48	0.72	725	5	8	20	per	con	low	mod	low	tg	ms	wh/0079.bmp
529.20	0.72	726	1	6	51	mem	lib	low	low	low	nt	ht	nh/0384_nh.bmp
529.92	0.72	727	4	7	114	mem	con	mod	mod	mod	tg	ht	wh/0807.bmp
530.64	0.72	728	1	5	122	per	lib	low	low	low	tg	ht	wh/0113.bmp
531.36	0.72	729	5	5	19	mem	con	mod	mod	mod	tg	ht	wh/0543.bmp
532.08	0.72	730	5	5	48	per	lib	mod	mod	mod	tg	ht	wh/0876.bmp
532.80	0.72	731	5	8	2	per	lib	low	mod	low	nt	fa	nh/0577_nh.bmp
533.52	0.72	732	5	6	47	per	con	mod	mod	mod	tg	ht	wh/0591.bmp
534.24	0.72	733	6	5	17	mem	con	mod	mod	mod	tg	ht	wh/0594.bmp
534.96	0.72	734	5	5	99	mem	lib	mod	mod	low	tg	ht	wh/0758.bmp
535.68	0.72	735	5	6	105	mem	lib	mod	mod	mod	nt	ht	nh/0941_nh.bmp
536.40	0.72	736	5	5	18	mem	con	mod	mod	mod	nt	ms	nh/0099_nh.bmp
537.12	0.72	737	5	8	115	per	con	mod	mod	mod	nt	cr	nh/0946_nh.bmp
537.84	0.72	738	1	5	1	mem	lib	low	low	mod	nt	ht	nh/0301_nh.bmp
538.56	0.72	739	5	6	96	per	lib	low	mod	low	tg	ht	wh/0074.bmp
539.28	0.72	740	5	7	2	per	lib	mod	mod	mod	tg	ht	wh/0973.bmp
540.00	0.72	741	6	7	56	mem	lib	mod	mod	low	nt	ht	nh/0134_nh.bmp
540.72	0.72	742	5	6	9	per	con	low	mod	low	nt	cr	nh/0934_nh.bmp
541.44	0.72	743	5	8	63	mem	lib	mod	mod	mod	nt	ht	nh/0273_nh.bmp
542.16	0.72	744	6	6	83	per	lib	low	mod	low	nt	cr	nh/0383_nh.bmp
542.88	0.72	745	1	7	110	per	con	mod	low	mod	nt	cr	nh/0216_nh.bmp
543.60	0.72	746	6	8	81	mem	con	mod	mod	low	tg	ms	wh/0818.bmp
544.32	0.72	747	6	8	125	per	con	mod	mod	mod	tg	ht	wh/0593.bmp
545.04	0.72	748	5	8	60	mem	lib	mod	mod	mod	nt	ht	nh/0805_nh.bmp
545.76	0.72	749	6	6	7	per	con	low	mod	low	nt	cr	nh/0493_nh.bmp
546.48	0.72	750	5	8	85	mem	con	mod	mod	low	nt	ms	nh/0361_nh.bmp
547.20	0.72	751	6	8	126	per	con	mod	mod	mod	tg	ht	wh/0350.bmp
547.92	0.72	752	5	7	53	mem	lib	mod	mod	low	tg	ht	wh/0382.bmp
548.64	0.72	753	4	6	80	mem	con	mod	mod	low	nt	ht	nh/0963_nh.bmp
549.36	0.72	754	1	7	44	mem	con	low	low	mod	nt	ms	nh/0949_nh.bmp
550.08	0.72	755	6	5	42	per	lib	mod	mod	mod	nt	fa	nh/0497_nh.bmp
550.80	0.72	756	6	5	110	mem	lib	mod	mod	low	nt	ht	nh/0355_nh.bmp
551.52	0.72	757	4	5	109	mem	lib	mod	mod	low	tg	ht	wh/0351.bmp
552.24	0.72	758	6	7	123	mem	con	mod	mod	mod	nt	ms	nh/0928_nh.bmp
552.96	0.72	759	5	6	69	mem	con	mod	mod	low	nt	ms	nh/0035_nh.bmp
553.68	0.72	760	4	6	93	per	lib	low	mod	low	tg	ms	wh/0967.bmp
554.40	0.72	761	4	6	79	mem	con	mod	mod	low	tg	ht	wh/0646.bmp
555.12	0.72	762	6	6	45	per	con	mod	mod	mod	tg	ht	wh/0398.bmp
555.84	0.72	763	1	7	76	per	con	low	low	low	nt	cr	nh/0215_nh.bmp
556.56	0.72	764	6	7	122	mem	con	mod	mod	mod	tg	ms	wh/0540.bmp
557.28	0.72	765	4	8	83	mem	con	mod	mod	low	nt	ht	nh/0443_nh.bmp
558.00	0.72	766	5	8	83	mem	con	mod	mod	low	nt	ht	nh/0443_nh.bmp
558.72	0.72	767	5	7	9	per	lib	mod	mod	mod	tg	ht	wh/0947.bmp
559.44	0.72	768	6	8	115	per	con	mod	mod	mod	nt	cr	nh/0946_nh.bmp
560.16	0.72	769	1	5	83	mem	con	low	low	low	nt	ms	nh/0437_nh.bmp
560.88	0.72	770	5	5	109	mem	lib	mod	mod	low	tg	ht	wh/0351.bmp
561.60	0.72	771	5	6	80	mem	con	mod	mod	low	nt	ht	nh/0963_nh.bmp
562.32	0.72	772	5	6	72	mem	con	mod	mod	low	tg	ms	wh/0080.bmp
563.04	0.72	773	6	8	87	mem	con	mod	mod	low	tg	ht	wh/0232.bmp
563.76	0.72	774	4	8	55	mem	lib	mod	mod	mod	tg	ht	wh/0904.bmp
564.48	0.72	775	1	5	115	per	lib	low	low	low	nt	cr	nh/0146_nh.bmp
565.20	0.72	776	5	6	102	mem	lib	mod	mod	mod	tg	ht	wh/0187.bmp
565.92	0.72	777	6	7	128	mem	con	mod	mod	mod	nt	ms	nh/0371_nh.bmp
566.64	0.72	778	5	5	108	mem	lib	mod	mod	low	tg	ht	wh/0364.bmp
567.36	0.72	779	5	6	78	mem	con	mod	mod	low	tg	ms	wh/0940.bmp
568.08	0.72	780	6	6	80	mem	con	mod	mod	low	nt	ht	nh/0963_nh.bmp
568.80	0.72	781	6	6	82	per	lib	low	mod	low	tg	ms	wh/0075.bmp
569.52	0.72	782	4	7	116	mem	con	mod	mod	mod	tg	ht	wh/0716.bmp
570.24	0.72	783	5	7	5	per	lib	mod	mod	mod	nt	cr	nh/0447_nh.bmp
570.96	0.72	784	5	6	41	per	con	mod	mod	mod	nt	cr	nh/0795_nh.bmp
571.68	0.72	785	5	8	32	per	con	low	mod	low	tg	ms	wh/0336.bmp
572.40	0.72	786	5	8	28	per	con	low	mod	low	nt	cr	nh/0613_nh.bmp
573.12	0.72	787	6	8	28	per	con	low	mod	low	nt	cr	nh/0613_nh.bmp
573.84	0.72	788	1	5	128	per	lib	low	low	low	tg	ht	wh/0710.bmp
574.56	0.72	789	5	7	61	mem	lib	mod	mod	low	nt	ht	nh/0345_nh.bmp
575.28	0.72	790	6	6	105	mem	lib	mod	mod	mod	nt	ht	nh/0941_nh.bmp
576.00	0.72	791	5	6	39	per	con	mod	mod	mod	tg	ht	wh/0902.bmp
576.72	0.72	792	6	7	53	mem	lib	mod	mod	low	tg	ht	wh/0382.bmp
577.44	0.72	793	5	5	101	mem	lib	mod	mod	low	tg	ht	wh/0256.bmp
578.16	0.72	794	6	6	14	per	con	low	mod	low	nt	cr	nh/1023_nh.bmp
578.88	0.72	795	6	8	58	mem	lib	mod	mod	mod	nt	ht	nh/0209_nh.bmp
579.60	0.72	796	4	8	1	per	lib	low	mod	low	nt	cr	nh/0508_nh.bmp
580.32	0.72	797	5	6	97	mem	lib	mod	mod	mod	nt	ms	nh/0222_nh.bmp
581.04	0.72	798	5	5	100	mem	lib	mod	mod	low	nt	ht	nh/0730_nh.bmp
581.76	0.72	799	6	6	102	mem	lib	mod	mod	mod	tg	ht	wh/0187.bmp
582.48	0.72	800	1	5	73	per	con	low	low	low	nt	cr	nh/0223_nh.bmp
583.20	0.72	801	1	6	120	mem	con	low	low	mod	tg	ms	wh/0025.bmp
583.92	0.72	802	6	7	61	mem	lib	mod	mod	low	nt	ht	nh/0345_nh.bmp
584.64	0.72	803	5	6	74	mem	con	mod	mod	low	tg	ht	wh/0032.bmp
585.36	0.72	804	5	7	116	mem	con	mod	mod	mod	tg	ht	wh/0716.bmp
586.08	0.72	805	6	5	108	mem	lib	mod	mod	low	tg	ht	wh/0364.bmp
586.80	0.72	806	6	5	31	mem	con	mod	mod	mod	tg	ht	wh/0680.bmp
587.52	0.72	807	6	8	32	per	con	low	mod	low	tg	ms	wh/0336.bmp
588.24	0.72	808	5	5	43	per	lib	mod	mod	mod	nt	cr	nh/0396_nh.bmp
588.96	0.72	809	6	6	98	mem	lib	mod	mod	mod	tg	n/a	wh/0319.bmp
589.68	0.72	810	6	5	36	per	lib	mod	mod	mod	nt	cr	nh/0843_nh.bmp
590.40	0.72	811	5	6	104	mem	lib	mod	mod	mod	nt	ht	nh/0874_nh.bmp
591.12	0.72	812	6	6	72	mem	con	mod	mod	low	tg	ms	wh/0080.bmp
591.84	0.72	813	5	8	118	per	con	mod	mod	mod	nt	cr	nh/0957_nh.bmp
592.56	0.72	814	6	7	116	mem	con	mod	mod	mod	tg	ht	wh/0716.bmp
593.28	0.72	815	6	6	97	mem	lib	mod	mod	mod	nt	ms	nh/0222_nh.bmp
594.00	0.72	816	4	8	17	per	con	low	mod	low	nt	cr	nh/0153_nh.bmp
594.72	0.72	817	6	7	52	mem	lib	mod	mod	low	nt	ht	nh/0338_nh.bmp
595.44	0.72	818	1	8	43	mem	lib	low	low	mod	nt	ht	nh/0966_nh.bmp
596.16	0.72	819	5	6	79	mem	con	mod	mod	low	tg	ht	wh/0646.bmp
596.88	0.72	820	1	7	40	mem	con	low	low	mod	nt	ms	nh/1024_nh.bmp
597.60	0.72	821	1	6	17	per	lib	mod	low	mod	tg	ht	wh/0774.bmp
598.32	0.72	822	5	7	114	mem	con	mod	mod	mod	tg	ht	wh/0807.bmp
599.04	0.72	823	6	8	84	mem	con	mod	mod	low	nt	ht	nh/0760_nh.bmp
599.76	0.72	824	6	7	8	per	lib	mod	mod	mod	nt	fa	nh/0563_nh.bmp
600.48	0.72	825	5	8	17	per	con	low	mod	low	nt	cr	nh/0153_nh.bmp
601.20	0.72	826	6	5	26	mem	con	mod	mod	mod	nt	ms	nh/0196_nh.bmp
601.92	0.72	827	5	5	30	mem	con	mod	mod	mod	nt	ht	nh/0714_nh.bmp
602.64	0.72	828	6	6	95	per	lib	low	mod	low	nt	fa	nh/0125_nh.bmp
603.36	0.72	829	1	6	25	per	lib	mod	low	mod	tg	ht	wh/0281.bmp
604.08	0.72	830	5	5	38	per	lib	mod	mod	mod	tg	ht	wh/0697.bmp
604.80	0.72	831	6	5	30	mem	con	mod	mod	mod	nt	ht	nh/0714_nh.bmp
605.52	0.72	832	6	5	99	mem	lib	mod	mod	low	tg	ht	wh/0758.bmp
606.24	0.72	833	6	5	22	mem	con	mod	mod	mod	nt	ms	nh/0446_nh.bmp
606.96	0.72	834	6	5	48	per	lib	mod	mod	mod	tg	ht	wh/0876.bmp
607.68	0.72	835	6	6	39	per	con	mod	mod	mod	tg	ht	wh/0902.bmp
608.40	0.72	836	6	6	37	per	con	mod	mod	mod	nt	cr	nh/0684_nh.bmp
609.12	0.72	837	1	7	45	mem	con	low	low	mod	tg	ms	wh/0781.bmp
609.84	0.72	838	6	5	100	mem	lib	mod	mod	low	nt	ht	nh/0730_nh.bmp
610.56	0.72	839	6	6	36	per	con	mod	mod	mod	nt	cr	nh/0380_nh.bmp
611.28	0.72	840	6	5	101	mem	lib	mod	mod	low	tg	ht	wh/0256.bmp
612.00	0.72	841	6	6	10	per	con	low	mod	low	tg	ms	wh/0635.bmp
612.72	0.72	842	6	5	18	mem	con	mod	mod	mod	nt	ms	nh/0099_nh.bmp
613.44	0.72	843	5	8	53	mem	lib	mod	mod	mod	tg	ht	wh/0810.bmp
614.16	0.72	844	6	8	15	per	lib	low	mod	low	tg	ht	wh/0893.bmp
614.88	0.72	845	1	7	85	mem	lib	low	low	low	nt	ht	nh/0433_nh.bmp
615.60	0.72	846	6	6	41	per	con	mod	mod	mod	nt	cr	nh/0795_nh.bmp
616.32	0.72	847	6	8	123	per	con	mod	mod	mod	tg	ht	wh/0339.bmp
617.04	0.72	848	5	8	119	per	con	mod	mod	mod	nt	cr	nh/0962_nh.bmp
617.76	0.72	849	6	6	112	mem	lib	mod	mod	mod	tg	ht	wh/0094.bmp
618.48	0.72	850	5	8	1	per	lib	low	mod	low	nt	cr	nh/0508_nh.bmp
619.20	0.72	851	6	6	9	per	con	low	mod	low	nt	cr	nh/0934_nh.bmp
619.92	0.72	852	6	6	34	per	con	mod	mod	mod	tg	ht	wh/0328.bmp
620.64	0.72	853	1	5	52	per	con	mod	low	mod	tg	ht	wh/0096.bmp
621.36	0.72	854	6	5	19	mem	con	mod	mod	mod	tg	ht	wh/0543.bmp
622.08	0.72	855	6	8	17	per	con	low	mod	low	nt	cr	nh/0153_nh.bmp
622.80	0.72	856	1	7	94	mem	lib	low	low	low	tg	ht	wh/0845.bmp
623.52	0.72	857	6	6	78	mem	con	mod	mod	low	tg	ms	wh/0940.bmp
624.24	0.72	858	6	5	39	per	lib	mod	mod	mod	nt	cr	nh/0588_nh.bmp
624.96	0.72	859	6	8	60	mem	lib	mod	mod	mod	nt	ht	nh/0805_nh.bmp
625.68	0.72	860	6	7	121	mem	con	mod	mod	mod	nt	ht	nh/0909_nh.bmp
626.40	0.72	861	6	6	74	mem	con	mod	mod	low	tg	ht	wh/0032.bmp
627.12	0.72	862	6	8	11	per	lib	low	mod	low	tg	ms	wh/0619.bmp
627.84	0.72	863	6	8	63	mem	lib	mod	mod	mod	nt	ht	nh/0273_nh.bmp
628.56	0.72	864	6	8	64	mem	lib	mod	mod	mod	tg	ht	wh/0650.bmp
629.28	0.72	865	6	6	84	per	lib	low	mod	low	nt	fa	nh/0465_nh.bmp
630.00	0.72	866	6	8	85	mem	con	mod	mod	low	nt	ms	nh/0361_nh.bmp
630.72	0.72	867	5	6	93	per	lib	low	mod	low	tg	ms	wh/0967.bmp
631.44	0.72	868	6	7	2	per	lib	mod	mod	mod	tg	ht	wh/0973.bmp
632.16	0.72	869	6	7	114	mem	con	mod	mod	mod	tg	ht	wh/0807.bmp
632.88	0.72	870	6	8	119	per	con	mod	mod	mod	nt	cr	nh/0962_nh.bmp
633.60	0.72	871	6	7	51	mem	lib	mod	mod	low	nt	ht	nh/0510_nh.bmp
634.32	0.72	872	5	8	55	mem	lib	mod	mod	mod	tg	ht	wh/0904.bmp
635.04	0.72	873	6	7	5	per	lib	mod	mod	mod	nt	cr	nh/0447_nh.bmp
635.76	0.72	874	6	6	93	per	lib	low	mod	low	tg	ms	wh/0967.bmp
636.48	0.72	875	6	8	16	per	lib	low	mod	low	tg	ht	wh/0489.bmp
637.20	0.72	876	6	7	9	per	lib	mod	mod	mod	tg	ht	wh/0947.bmp
637.92	0.72	877	6	8	53	mem	lib	mod	mod	mod	tg	ht	wh/0810.bmp
638.64	0.72	878	6	6	47	per	con	mod	mod	mod	tg	ht	wh/0591.bmp
639.36	0.72	879	6	6	68	mem	con	mod	mod	low	nt	ms	nh/0194_nh.bmp
640.08	0.72	880	6	8	59	mem	lib	mod	mod	mod	nt	ht	nh/0428_nh.bmp
640.80	0.72	881	6	6	96	per	lib	low	mod	low	tg	ht	wh/0074.bmp
641.52	0.72	882	6	5	109	mem	lib	mod	mod	low	tg	ht	wh/0351.bmp
642.24	0.72	883	6	8	2	per	lib	low	mod	low	nt	fa	nh/0577_nh.bmp
642.96	0.72	884	6	5	38	per	lib	mod	mod	mod	tg	ht	wh/0697.bmp
643.68	0.72	885	6	5	43	per	lib	mod	mod	mod	nt	cr	nh/0396_nh.bmp
644.40	0.72	886	6	6	79	mem	con	mod	mod	low	tg	ht	wh/0646.bmp
645.12	0.72	887	6	8	55	mem	lib	mod	mod	mod	tg	ht	wh/0904.bmp
645.84	0.72	888	6	8	1	per	lib	low	mod	low	nt	cr	nh/0508_nh.bmp
646.56	0.72	889	6	6	69	mem	con	mod	mod	low	nt	ms	nh/0035_nh.bmp
647.28	0.72	890	6	8	118	per	con	mod	mod	mod	nt	cr	nh/0957_nh.bmp
648.00	0.72	891	6	8	20	per	con	low	mod	low	tg	ms	wh/0079.bmp
648.72	0.72	892	6	6	104	mem	lib	mod	mod	mod	nt	ht	nh/0874_nh.bmp
649.44	0.72	893	6	6	92	per	lib	low	mod	low	nt	fa	nh/0238_nh.bmp
650.16	0.72	894	6	7	12	per	lib	mod	mod	mod	nt	cr	nh/0784_nh.bmp
650.88	0.72	895	6	6	5	per	con	low	mod	low	tg	ms	wh/0964.bmp
651.60	0.72	896	6	8	83	mem	con	mod	mod	low	nt	ht	nh/0443_nh.bmp
