onset	duration	trial	pres	ts_blk	ts_trl	task	crit	disc	mem_disc	per_disc	per_type	accuracy	stim_file
7.20	0.72	1	1	5	76	mem	con	mod	mod	mod	tg	ms	wh/0590.bmp
7.92	0.72	2	1	5	113	mem	lib	mod	mod	low	tg	ht	wh/0848.bmp
8.64	0.72	3	1	7	72	per	con	mod	mod	mod	tg	ht	wh/0995.bmp
9.36	0.72	4	1	6	4	per	lib	low	mod	low	nt	cr	nh/0297_nh.bmp
10.08	0.72	5	1	7	87	mem	con	mod	mod	low	nt	ht	nh/0892_nh.bmp
10.80	0.72	6	1	err	err	err	err	err	err	err	err	err	wh/0300.bmp
11.52	0.72	7	1	7	47	mem	lib	mod	mod	mod	tg	ht	wh/0629.bmp
12.24	0.72	8	1	8	127	mem	con	mod	mod	mod	tg	ms	wh/0378.bmp
12.96	0.72	9	1	7	42	mem	lib	mod	mod	mod	nt	ht	nh/0436_nh.bmp
13.68	0.72	10	1	5	77	mem	con	mod	mod	mod	nt	ms	nh/0821_nh.bmp
14.40	0.72	11	1	8	101	mem	lib	mod	mod	low	tg	ht	wh/0640.bmp
15.12	0.72	12	1	7	43	mem	lib	mod	mod	mod	nt	ht	nh/0971_nh.bmp
15.84	0.72	13	1	7	126	mem	lib	low	low	low	tg	ht	wh/0825.bmp
16.56	0.72	14	1	5	71	mem	con	mod	mod	mod	nt	ht	nh/0638_nh.bmp
17.28	0.72	15	1	err	err	err	err	err	err	err	err	err	wh/0247.bmp
18.00	0.72	16	1	5	114	mem	lib	mod	mod	low	nt	ht	nh/0450_nh.bmp
18.72	0.72	17	1	6	28	mem	lib	low	low	mod	nt	ht	nh/0611_nh.bmp
19.44	0.72	18	1	7	57	per	lib	low	mod	low	tg	ms	wh/0578.bmp
20.16	0.72	19	1	8	1	mem	lib	low	low	mod	nt	ht	nh/0037_nh.bmp
20.88	0.72	20	1	err	err	err	err	err	err	err	err	err	nh/0249_nh.bmp
21.60	0.72	21	1	5	73	mem	con	mod	mod	mod	tg	ms	wh/0827.bmp
22.32	0.72	22	1	err	err	err	err	err	err	err	err	err	wh/0176.bmp
23.04	0.72	23	1	7	88	mem	con	mod	mod	low	tg	ht	wh/0018.bmp
23.76	0.72	24	1	6	61	per	con	mod	mod	mod	tg	ms	wh/0835.bmp
24.48	0.72	25	1	7	95	mem	con	mod	mod	low	nt	ms	nh/1019_nh.bmp
25.20	0.72	26	1	7	48	mem	lib	mod	mod	mod	tg	ht	wh/0366.bmp
25.92	0.72	27	1	8	89	per	con	low	mod	low	tg	ms	wh/0875.bmp
26.64	0.72	28	1	6	2	per	lib	low	mod	low	nt	cr	nh/0883_nh.bmp
27.36	0.72	29	1	8	110	mem	lib	mod	mod	low	tg	ht	wh/1014.bmp
28.08	0.72	30	1	7	56	per	lib	low	mod	low	tg	ht	wh/0193.bmp
28.80	0.72	31	1	8	116	mem	con	mod	mod	mod	nt	ht	nh/0239_nh.bmp
29.52	0.72	32	1	5	55	per	con	low	low	low	nt	cr	nh/0258_nh.bmp
30.24	0.72	33	2	7	95	mem	con	mod	mod	low	nt	ms	nh/1019_nh.bmp
30.96	0.72	34	1	7	49	per	lib	low	mod	low	nt	fa	nh/0403_nh.bmp
31.68	0.72	35	1	8	107	mem	lib	mod	mod	low	nt	ht	nh/0139_nh.bmp
32.40	0.72	36	1	err	err	err	err	err	err	err	err	err	wh/0814.bmp
33.12	0.72	37	1	6	3	per	lib	low	mod	low	tg	ht	wh/0024.bmp
33.84	0.72	38	1	err	err	err	err	err	err	err	err	err	nh/0262_nh.bmp
34.56	0.72	39	1	err	err	err	err	err	err	err	err	err	nh/0420_nh.bmp
35.28	0.72	40	1	7	77	per	con	mod	mod	mod	tg	ms	wh/0623.bmp
36.00	0.72	41	1	6	8	per	lib	low	mod	low	nt	fa	nh/0253_nh.bmp
36.72	0.72	42	2	7	72	per	con	mod	mod	mod	tg	ht	wh/0995.bmp
37.44	0.72	43	2	8	89	per	con	low	mod	low	tg	ms	wh/0875.bmp
38.16	0.72	44	1	8	85	per	con	low	mod	low	nt	cr	nh/0820_nh.bmp
38.88	0.72	45	2	7	43	mem	lib	mod	mod	mod	nt	ht	nh/0971_nh.bmp
39.60	0.72	46	2	5	114	mem	lib	mod	mod	low	nt	ht	nh/0450_nh.bmp
40.32	0.72	47	2	5	73	mem	con	mod	mod	mod	tg	ms	wh/0827.bmp
41.04	0.72	48	1	6	11	per	lib	low	mod	low	tg	ms	wh/0863.bmp
41.76	0.72	49	1	7	119	mem	lib	low	low	low	tg	ht	wh/0138.bmp
42.48	0.72	50	1	7	90	mem	con	mod	mod	low	nt	ms	nh/0986_nh.bmp
43.20	0.72	51	2	7	87	mem	con	mod	mod	low	nt	ht	nh/0892_nh.bmp
43.92	0.72	52	1	err	err	err	err	err	err	err	err	err	nh/0108_nh.bmp
44.64	0.72	53	2	err	err	err	err	err	err	err	err	err	nh/0262_nh.bmp
45.36	0.72	54	1	5	48	per	con	mod	low	mod	tg	ht	wh/0982.bmp
46.08	0.72	55	2	6	11	per	lib	low	mod	low	tg	ms	wh/0863.bmp
46.80	0.72	56	1	err	err	err	err	err	err	err	err	err	nh/0143_nh.bmp
47.52	0.72	57	1	8	42	per	con	mod	low	mod	tg	ht	wh/0749.bmp
48.24	0.72	58	1	7	106	per	con	low	low	low	nt	cr	nh/0767_nh.bmp
48.96	0.72	59	1	7	70	per	con	mod	mod	mod	tg	ht	wh/0560.bmp
49.68	0.72	60	1	err	err	err	err	err	err	err	err	err	nh/0978_nh.bmp
50.40	0.72	61	1	8	32	per	lib	mod	mod	mod	nt	fa	nh/0609_nh.bmp
51.12	0.72	62	1	err	err	err	err	err	err	err	err	err	nh/0453_nh.bmp
51.84	0.72	63	1	6	23	mem	lib	low	low	mod	tg	ht	wh/0046.bmp
52.56	0.72	64	2	err	err	err	err	err	err	err	err	err	nh/0249_nh.bmp
53.28	0.72	65	1	err	err	err	err	err	err	err	err	err	wh/0888.bmp
54.00	0.72	66	2	5	77	mem	con	mod	mod	mod	nt	ms	nh/0821_nh.bmp
54.72	0.72	67	1	7	34	mem	lib	mod	mod	mod	tg	ms	wh/0179.bmp
55.44	0.72	68	1	7	58	per	lib	low	mod	low	nt	cr	nh/0746_nh.bmp
56.16	0.72	69	2	7	77	per	con	mod	mod	mod	tg	ms	wh/0623.bmp
56.88	0.72	70	3	7	43	mem	lib	mod	mod	mod	nt	ht	nh/0971_nh.bmp
57.60	0.72	71	1	err	err	err	err	err	err	err	err	err	nh/0544_nh.bmp
58.32	0.72	72	2	8	85	per	con	low	mod	low	nt	cr	nh/0820_nh.bmp
59.04	0.72	73	1	8	20	per	lib	mod	mod	mod	nt	cr	nh/0871_nh.bmp
59.76	0.72	74	1	7	52	per	lib	low	mod	low	nt	fa	nh/0793_nh.bmp
60.48	0.72	75	1	5	36	per	con	mod	low	mod	nt	cr	nh/0372_nh.bmp
61.20	0.72	76	1	err	err	err	err	err	err	err	err	err	wh/0248.bmp
61.92	0.72	77	1	5	88	per	lib	low	low	low	nt	fa	nh/0728_nh.bmp
62.64	0.72	78	3	7	87	mem	con	mod	mod	low	nt	ht	nh/0892_nh.bmp
63.36	0.72	79	3	8	89	per	con	low	mod	low	tg	ms	wh/0875.bmp
64.08	0.72	80	1	err	err	err	err	err	err	err	err	err	wh/0852.bmp
64.80	0.72	81	3	err	err	err	err	err	err	err	err	err	nh/0262_nh.bmp
65.52	0.72	82	1	err	err	err	err	err	err	err	err	err	nh/0686_nh.bmp
66.24	0.72	83	2	8	101	mem	lib	mod	mod	low	tg	ht	wh/0640.bmp
66.96	0.72	84	2	8	127	mem	con	mod	mod	mod	tg	ms	wh/0378.bmp
67.68	0.72	85	1	7	91	mem	con	mod	mod	low	nt	ms	nh/0170_nh.bmp
68.40	0.72	86	1	8	104	mem	lib	mod	mod	low	nt	ht	nh/0254_nh.bmp
69.12	0.72	87	1	6	53	per	con	mod	mod	mod	tg	ht	wh/0564.bmp
69.84	0.72	88	1	err	err	err	err	err	err	err	err	err	wh/0060.bmp
70.56	0.72	89	1	8	102	mem	lib	mod	mod	low	nt	ht	nh/0780_nh.bmp
71.28	0.72	90	1	6	56	per	con	mod	mod	mod	nt	cr	nh/0399_nh.bmp
72.00	0.72	91	1	8	125	mem	con	mod	mod	mod	tg	ht	wh/0717.bmp
72.72	0.72	92	1	8	95	per	con	low	mod	low	tg	ms	wh/0574.bmp
73.44	0.72	93	1	7	81	mem	con	mod	mod	low	tg	ms	wh/0023.bmp
74.16	0.72	94	2	8	116	mem	con	mod	mod	mod	nt	ht	nh/0239_nh.bmp
74.88	0.72	95	1	7	40	mem	lib	mod	mod	mod	tg	ht	wh/0056.bmp
75.60	0.72	96	1	err	err	err	err	err	err	err	err	err	nh/0552_nh.bmp
76.32	0.72	97	1	5	107	per	lib	mod	low	mod	tg	ht	wh/0732.bmp
77.04	0.72	98	1	err	err	err	err	err	err	err	err	err	nh/0756_nh.bmp
77.76	0.72	99	2	err	err	err	err	err	err	err	err	err	nh/0108_nh.bmp
78.48	0.72	100	2	8	20	per	lib	mod	mod	mod	nt	cr	nh/0871_nh.bmp
79.20	0.72	101	1	7	92	mem	con	mod	mod	low	tg	ms	wh/0678.bmp
79.92	0.72	102	1	err	err	err	err	err	err	err	err	err	wh/0832.bmp
80.64	0.72	103	2	err	err	err	err	err	err	err	err	err	nh/0756_nh.bmp
81.36	0.72	104	2	7	56	per	lib	low	mod	low	tg	ht	wh/0193.bmp
82.08	0.72	105	3	7	56	per	lib	low	mod	low	tg	ht	wh/0193.bmp
82.80	0.72	106	1	7	45	mem	lib	mod	mod	mod	nt	ht	nh/0549_nh.bmp
83.52	0.72	107	1	8	92	per	con	low	mod	low	tg	ms	wh/1004.bmp
84.24	0.72	108	4	7	43	mem	lib	mod	mod	mod	nt	ht	nh/0971_nh.bmp
84.96	0.72	109	1	8	113	mem	con	mod	mod	mod	tg	ms	wh/0952.bmp
85.68	0.72	110	2	7	57	per	lib	low	mod	low	tg	ms	wh/0578.bmp
86.40	0.72	111	1	5	53	per	con	low	low	low	tg	ms	wh/0285.bmp
87.12	0.72	112	1	7	96	mem	con	mod	mod	low	tg	ht	wh/0618.bmp
87.84	0.72	113	1	5	7	mem	lib	low	low	low	nt	ms	nh/1011_nh.bmp
88.56	0.72	114	2	err	err	err	err	err	err	err	err	err	nh/0978_nh.bmp
89.28	0.72	115	2	8	32	per	lib	mod	mod	mod	nt	fa	nh/0609_nh.bmp
90.00	0.72	116	2	7	47	mem	lib	mod	mod	mod	tg	ht	wh/0629.bmp
90.72	0.72	117	1	8	90	per	con	low	mod	low	nt	cr	nh/0491_nh.bmp
91.44	0.72	118	2	8	92	per	con	low	mod	low	tg	ms	wh/1004.bmp
92.16	0.72	119	2	7	49	per	lib	low	mod	low	nt	fa	nh/0403_nh.bmp
92.88	0.72	120	1	5	86	per	lib	low	low	low	tg	ht	wh/0034.bmp
93.60	0.72	121	3	8	32	per	lib	mod	mod	mod	nt	fa	nh/0609_nh.bmp
94.32	0.72	122	1	5	42	per	con	mod	low	mod	tg	ms	wh/0395.bmp
95.04	0.72	123	1	7	123	mem	lib	low	low	low	nt	ht	nh/0859_nh.bmp
95.76	0.72	124	2	err	err	err	err	err	err	err	err	err	wh/0060.bmp
96.48	0.72	125	2	7	70	per	con	mod	mod	mod	tg	ht	wh/0560.bmp
97.20	0.72	126	1	err	err	err	err	err	err	err	err	err	wh/0114.bmp
97.92	0.72	127	2	6	53	per	con	mod	mod	mod	tg	ht	wh/0564.bmp
98.64	0.72	128	2	6	8	per	lib	low	mod	low	nt	fa	nh/0253_nh.bmp
99.36	0.72	129	2	7	81	mem	con	mod	mod	low	tg	ms	wh/0023.bmp
100.08	0.72	130	1	7	113	mem	lib	low	low	low	nt	ht	nh/0360_nh.bmp
100.80	0.72	131	2	8	95	per	con	low	mod	low	tg	ms	wh/0574.bmp
101.52	0.72	132	1	err	err	err	err	err	err	err	err	err	nh/0546_nh.bmp
102.24	0.72	133	1	8	76	mem	con	low	low	low	nt	ht	nh/0224_nh.bmp
102.96	0.72	134	3	5	114	mem	lib	mod	mod	low	nt	ht	nh/0450_nh.bmp
103.68	0.72	135	1	7	68	per	con	mod	mod	mod	nt	cr	nh/0797_nh.bmp
104.40	0.72	136	1	8	112	mem	lib	mod	mod	low	tg	ht	wh/0111.bmp
105.12	0.72	137	3	7	77	per	con	mod	mod	mod	tg	ms	wh/0623.bmp
105.84	0.72	138	1	5	103	per	lib	mod	low	mod	nt	fa	nh/0342_nh.bmp
106.56	0.72	139	1	7	66	per	con	mod	mod	mod	tg	ht	wh/0337.bmp
107.28	0.72	140	1	7	60	per	lib	low	mod	low	nt	cr	nh/0118_nh.bmp
108.00	0.72	141	2	7	40	mem	lib	mod	mod	mod	tg	ht	wh/0056.bmp
108.72	0.72	142	1	8	55	per	lib	low	low	low	nt	cr	nh/0063_nh.bmp
109.44	0.72	143	3	err	err	err	err	err	err	err	err	err	nh/0756_nh.bmp
110.16	0.72	144	1	6	58	per	con	mod	mod	mod	nt	cr	nh/0778_nh.bmp
110.88	0.72	145	1	err	err	err	err	err	err	err	err	err	nh/0763_nh.bmp
111.60	0.72	146	2	err	err	err	err	err	err	err	err	err	wh/0300.bmp
112.32	0.72	147	4	7	56	per	lib	low	mod	low	tg	ht	wh/0193.bmp
113.04	0.72	148	1	5	63	per	con	low	low	low	tg	ht	wh/0136.bmp
113.76	0.72	149	1	7	122	mem	lib	low	low	low	nt	ht	nh/0676_nh.bmp
114.48	0.72	150	1	6	18	mem	lib	low	low	mod	nt	ht	nh/0186_nh.bmp
115.20	0.72	151	2	7	48	mem	lib	mod	mod	mod	tg	ht	wh/0366.bmp
115.92	0.72	152	1	5	124	mem	lib	mod	mod	low	nt	ht	nh/0521_nh.bmp
116.64	0.72	153	2	7	96	mem	con	mod	mod	low	tg	ht	wh/0618.bmp
117.36	0.72	154	2	6	58	per	con	mod	mod	mod	nt	cr	nh/0778_nh.bmp
118.08	0.72	155	1	6	51	per	con	mod	mod	mod	nt	cr	nh/0735_nh.bmp
118.80	0.72	156	3	8	101	mem	lib	mod	mod	low	tg	ht	wh/0640.bmp
119.52	0.72	157	3	7	81	mem	con	mod	mod	low	tg	ms	wh/0023.bmp
120.24	0.72	158	2	7	90	mem	con	mod	mod	low	nt	ms	nh/0986_nh.bmp
120.96	0.72	159	1	8	27	per	lib	mod	mod	mod	tg	ht	wh/0851.bmp
121.68	0.72	160	3	7	48	mem	lib	mod	mod	mod	tg	ht	wh/0366.bmp
122.40	0.72	161	1	5	39	per	con	mod	low	mod	nt	cr	nh/0305_nh.bmp
123.12	0.72	162	1	5	61	per	con	low	low	low	nt	fa	nh/1015_nh.bmp
123.84	0.72	163	1	5	104	per	lib	mod	low	mod	tg	ht	wh/0673.bmp
124.56	0.72	164	1	8	47	per	con	mod	low	mod	nt	cr	nh/0016_nh.bmp
125.28	0.72	165	1	6	55	per	con	mod	mod	mod	tg	ms	wh/0086.bmp
126.00	0.72	166	1	7	125	mem	lib	low	low	low	tg	ht	wh/0175.bmp
126.72	0.72	167	1	6	7	per	lib	low	mod	low	tg	ht	wh/0612.bmp
127.44	0.72	168	3	7	40	mem	lib	mod	mod	mod	tg	ht	wh/0056.bmp
128.16	0.72	169	2	7	58	per	lib	low	mod	low	nt	cr	nh/0746_nh.bmp
128.88	0.72	170	1	7	76	per	con	mod	mod	mod	nt	cr	nh/0599_nh.bmp
129.60	0.72	171	1	7	75	per	con	mod	mod	mod	nt	cr	nh/0833_nh.bmp
130.32	0.72	172	2	err	err	err	err	err	err	err	err	err	nh/0420_nh.bmp
131.04	0.72	173	2	8	110	mem	lib	mod	mod	low	tg	ht	wh/1014.bmp
131.76	0.72	174	2	6	61	per	con	mod	mod	mod	tg	ms	wh/0835.bmp
132.48	0.72	175	1	8	28	per	lib	mod	mod	mod	tg	ms	wh/0495.bmp
133.20	0.72	176	2	err	err	err	err	err	err	err	err	err	nh/0544_nh.bmp
133.92	0.72	177	2	5	124	mem	lib	mod	mod	low	nt	ht	nh/0521_nh.bmp
134.64	0.72	178	2	5	71	mem	con	mod	mod	mod	nt	ht	nh/0638_nh.bmp
135.36	0.72	179	1	8	19	per	lib	mod	mod	mod	nt	cr	nh/0269_nh.bmp
136.08	0.72	180	2	7	68	per	con	mod	mod	mod	nt	cr	nh/0797_nh.bmp
136.80	0.72	181	2	7	34	mem	lib	mod	mod	mod	tg	ms	wh/0179.bmp
137.52	0.72	182	1	8	31	per	lib	mod	mod	mod	nt	cr	nh/0602_nh.bmp
138.24	0.72	183	2	8	112	mem	lib	mod	mod	low	tg	ht	wh/0111.bmp
138.96	0.72	184	2	6	55	per	con	mod	mod	mod	tg	ms	wh/0086.bmp
139.68	0.72	185	2	8	102	mem	lib	mod	mod	low	nt	ht	nh/0780_nh.bmp
140.40	0.72	186	3	7	72	per	con	mod	mod	mod	tg	ht	wh/0995.bmp
141.12	0.72	187	4	7	72	per	con	mod	mod	mod	tg	ht	wh/0995.bmp
141.84	0.72	188	2	7	60	per	lib	low	mod	low	nt	cr	nh/0118_nh.bmp
142.56	0.72	189	2	5	113	mem	lib	mod	mod	low	tg	ht	wh/0848.bmp
143.28	0.72	190	2	err	err	err	err	err	err	err	err	err	wh/0247.bmp
144.00	0.72	191	2	err	err	err	err	err	err	err	err	err	wh/0114.bmp
144.72	0.72	192	1	7	27	mem	con	low	low	mod	tg	ms	wh/0953.bmp
145.44	0.72	193	2	8	125	mem	con	mod	mod	mod	tg	ht	wh/0717.bmp
146.16	0.72	194	2	8	31	per	lib	mod	mod	mod	nt	cr	nh/0602_nh.bmp
146.88	0.72	195	2	7	75	per	con	mod	mod	mod	nt	cr	nh/0833_nh.bmp
147.60	0.72	196	3	7	95	mem	con	mod	mod	low	nt	ms	nh/1019_nh.bmp
148.32	0.72	197	4	7	87	mem	con	mod	mod	low	nt	ht	nh/0892_nh.bmp
149.04	0.72	198	2	err	err	err	err	err	err	err	err	err	wh/0248.bmp
149.76	0.72	199	3	7	70	per	con	mod	mod	mod	tg	ht	wh/0560.bmp
150.48	0.72	200	3	5	77	mem	con	mod	mod	mod	nt	ms	nh/0821_nh.bmp
151.20	0.72	201	1	8	108	mem	lib	mod	mod	low	nt	ht	nh/0012_nh.bmp
151.92	0.72	202	1	8	94	per	con	low	mod	low	tg	ms	wh/0241.bmp
152.64	0.72	203	1	err	err	err	err	err	err	err	err	err	wh/0734.bmp
153.36	0.72	204	1	5	14	mem	lib	low	low	low	tg	ht	wh/0089.bmp
154.08	0.72	205	1	8	103	mem	lib	mod	mod	low	tg	ht	wh/0064.bmp
154.80	0.72	206	1	5	101	per	lib	mod	low	mod	nt	cr	nh/0084_nh.bmp
155.52	0.72	207	3	8	92	per	con	low	mod	low	tg	ms	wh/1004.bmp
156.24	0.72	208	1	8	16	mem	lib	low	low	mod	nt	ht	nh/0334_nh.bmp
156.96	0.72	209	2	8	104	mem	lib	mod	mod	low	nt	ht	nh/0254_nh.bmp
157.68	0.72	210	2	6	56	per	con	mod	mod	mod	nt	cr	nh/0399_nh.bmp
158.40	0.72	211	1	5	12	mem	lib	low	low	low	tg	ht	wh/0147.bmp
159.12	0.72	212	3	8	110	mem	lib	mod	mod	low	tg	ht	wh/1014.bmp
159.84	0.72	213	2	6	3	per	lib	low	mod	low	tg	ht	wh/0024.bmp
160.56	0.72	214	1	7	67	per	con	mod	mod	mod	nt	cr	nh/0408_nh.bmp
161.28	0.72	215	1	6	62	per	con	mod	mod	mod	tg	ht	wh/0318.bmp
162.00	0.72	216	3	7	90	mem	con	mod	mod	low	nt	ms	nh/0986_nh.bmp
162.72	0.72	217	4	5	77	mem	con	mod	mod	mod	nt	ms	nh/0821_nh.bmp
163.44	0.72	218	2	7	88	mem	con	mod	mod	low	tg	ht	wh/0018.bmp
164.16	0.72	219	1	8	87	per	con	low	mod	low	nt	cr	nh/0073_nh.bmp
164.88	0.72	220	1	6	57	per	con	mod	mod	mod	nt	cr	nh/0385_nh.bmp
165.60	0.72	221	1	5	117	mem	lib	mod	mod	low	nt	ht	nh/0172_nh.bmp
166.32	0.72	222	1	8	35	per	con	mod	low	mod	tg	ms	wh/0907.bmp
167.04	0.72	223	1	5	10	mem	lib	low	low	low	nt	ht	nh/0226_nh.bmp
167.76	0.72	224	1	8	123	mem	con	mod	mod	mod	nt	ms	nh/0694_nh.bmp
168.48	0.72	225	3	8	112	mem	lib	mod	mod	low	tg	ht	wh/0111.bmp
169.20	0.72	226	2	8	123	mem	con	mod	mod	mod	nt	ms	nh/0694_nh.bmp
169.92	0.72	227	1	6	9	per	lib	low	mod	low	tg	ms	wh/0519.bmp
170.64	0.72	228	1	5	52	per	con	low	low	low	nt	cr	nh/0482_nh.bmp
171.36	0.72	229	1	5	100	per	lib	mod	low	mod	nt	cr	nh/0416_nh.bmp
172.08	0.72	230	2	err	err	err	err	err	err	err	err	err	nh/0546_nh.bmp
172.80	0.72	231	2	7	92	mem	con	mod	mod	low	tg	ms	wh/0678.bmp
173.52	0.72	232	2	6	9	per	lib	low	mod	low	tg	ms	wh/0519.bmp
174.24	0.72	233	4	8	101	mem	lib	mod	mod	low	tg	ht	wh/0640.bmp
174.96	0.72	234	2	7	42	mem	lib	mod	mod	mod	nt	ht	nh/0436_nh.bmp
175.68	0.72	235	1	8	114	mem	con	mod	mod	mod	tg	ms	wh/0020.bmp
176.40	0.72	236	2	err	err	err	err	err	err	err	err	err	wh/0176.bmp
177.12	0.72	237	1	err	err	err	err	err	err	err	err	err	nh/0394_nh.bmp
177.84	0.72	238	2	err	err	err	err	err	err	err	err	err	nh/0143_nh.bmp
178.56	0.72	239	1	5	57	per	con	low	low	low	nt	fa	nh/0154_nh.bmp
179.28	0.72	240	1	7	103	per	con	low	low	low	tg	ht	wh/0268.bmp
180.00	0.72	241	5	7	87	mem	con	mod	mod	low	nt	ht	nh/0892_nh.bmp
180.72	0.72	242	1	5	127	mem	lib	mod	mod	low	tg	ms	wh/0255.bmp
181.44	0.72	243	4	8	112	mem	lib	mod	mod	low	tg	ht	wh/0111.bmp
182.16	0.72	244	2	7	67	per	con	mod	mod	mod	nt	cr	nh/0408_nh.bmp
182.88	0.72	245	1	5	126	mem	lib	mod	mod	low	tg	ht	wh/0042.bmp
183.60	0.72	246	1	7	35	mem	lib	mod	mod	mod	nt	ms	nh/0822_nh.bmp
184.32	0.72	247	2	err	err	err	err	err	err	err	err	err	nh/0552_nh.bmp
185.04	0.72	248	1	8	119	mem	con	mod	mod	mod	nt	ht	nh/0556_nh.bmp
185.76	0.72	249	1	6	22	mem	lib	low	low	mod	tg	ms	wh/0921.bmp
186.48	0.72	250	3	err	err	err	err	err	err	err	err	err	nh/0108_nh.bmp
187.20	0.72	251	4	8	32	per	lib	mod	mod	mod	nt	fa	nh/0609_nh.bmp
187.92	0.72	252	1	5	128	mem	lib	mod	mod	low	nt	ht	nh/0388_nh.bmp
188.64	0.72	253	2	6	57	per	con	mod	mod	mod	nt	cr	nh/0385_nh.bmp
189.36	0.72	254	3	err	err	err	err	err	err	err	err	err	nh/0552_nh.bmp
190.08	0.72	255	2	7	35	mem	lib	mod	mod	mod	nt	ms	nh/0822_nh.bmp
190.80	0.72	256	3	6	55	per	con	mod	mod	mod	tg	ms	wh/0086.bmp
191.52	0.72	257	1	err	err	err	err	err	err	err	err	err	wh/0647.bmp
192.24	0.72	258	1	7	54	per	lib	low	mod	low	tg	ms	wh/0165.bmp
192.96	0.72	259	4	7	70	per	con	mod	mod	mod	tg	ht	wh/0560.bmp
193.68	0.72	260	3	err	err	err	err	err	err	err	err	err	wh/0114.bmp
194.40	0.72	261	1	8	121	mem	con	mod	mod	mod	nt	ms	nh/0603_nh.bmp
195.12	0.72	262	2	err	err	err	err	err	err	err	err	err	nh/0394_nh.bmp
195.84	0.72	263	2	8	103	mem	lib	mod	mod	low	tg	ht	wh/0064.bmp
196.56	0.72	264	1	7	120	mem	lib	low	low	low	tg	ht	wh/0677.bmp
197.28	0.72	265	3	6	53	per	con	mod	mod	mod	tg	ht	wh/0564.bmp
198.00	0.72	266	1	5	69	mem	con	mod	mod	mod	tg	ms	wh/0968.bmp
198.72	0.72	267	1	8	17	per	lib	mod	mod	mod	tg	ht	wh/0764.bmp
199.44	0.72	268	1	err	err	err	err	err	err	err	err	err	wh/0164.bmp
200.16	0.72	269	2	5	128	mem	lib	mod	mod	low	nt	ht	nh/0388_nh.bmp
200.88	0.72	270	3	err	err	err	err	err	err	err	err	err	nh/0546_nh.bmp
201.60	0.72	271	1	5	75	mem	con	mod	mod	mod	nt	ht	nh/0275_nh.bmp
202.32	0.72	272	3	8	127	mem	con	mod	mod	mod	tg	ms	wh/0378.bmp
203.04	0.72	273	4	5	114	mem	lib	mod	mod	low	nt	ht	nh/0450_nh.bmp
203.76	0.72	274	1	7	22	mem	con	low	low	mod	nt	ht	nh/0951_nh.bmp
204.48	0.72	275	3	7	67	per	con	mod	mod	mod	nt	cr	nh/0408_nh.bmp
205.20	0.72	276	3	err	err	err	err	err	err	err	err	err	wh/0060.bmp
205.92	0.72	277	2	5	75	mem	con	mod	mod	mod	nt	ht	nh/0275_nh.bmp
206.64	0.72	278	2	8	28	per	lib	mod	mod	mod	tg	ms	wh/0495.bmp
207.36	0.72	279	4	8	92	per	con	low	mod	low	tg	ms	wh/1004.bmp
208.08	0.72	280	2	err	err	err	err	err	err	err	err	err	wh/0164.bmp
208.80	0.72	281	3	err	err	err	err	err	err	err	err	err	wh/0247.bmp
209.52	0.72	282	3	8	123	mem	con	mod	mod	mod	nt	ms	nh/0694_nh.bmp
210.24	0.72	283	5	7	43	mem	lib	mod	mod	mod	nt	ht	nh/0971_nh.bmp
210.96	0.72	284	3	7	34	mem	lib	mod	mod	mod	tg	ms	wh/0179.bmp
211.68	0.72	285	2	6	7	per	lib	low	mod	low	tg	ht	wh/0612.bmp
212.40	0.72	286	3	6	58	per	con	mod	mod	mod	nt	cr	nh/0778_nh.bmp
213.12	0.72	287	3	8	103	mem	lib	mod	mod	low	tg	ht	wh/0064.bmp
213.84	0.72	288	3	8	125	mem	con	mod	mod	mod	tg	ht	wh/0717.bmp
214.56	0.72	289	3	7	60	per	lib	low	mod	low	nt	cr	nh/0118_nh.bmp
215.28	0.72	290	3	7	49	per	lib	low	mod	low	nt	fa	nh/0403_nh.bmp
216.00	0.72	291	3	5	75	mem	con	mod	mod	mod	nt	ht	nh/0275_nh.bmp
216.72	0.72	292	1	err	err	err	err	err	err	err	err	err	nh/0401_nh.bmp
217.44	0.72	293	3	6	11	per	lib	low	mod	low	tg	ms	wh/0863.bmp
218.16	0.72	294	5	8	92	per	con	low	mod	low	tg	ms	wh/1004.bmp
218.88	0.72	295	1	err	err	err	err	err	err	err	err	err	wh/0441.bmp
219.60	0.72	296	4	err	err	err	err	err	err	err	err	err	nh/0546_nh.bmp
220.32	0.72	297	3	6	8	per	lib	low	mod	low	nt	fa	nh/0253_nh.bmp
221.04	0.72	298	4	7	60	per	lib	low	mod	low	nt	cr	nh/0118_nh.bmp
221.76	0.72	299	2	8	27	per	lib	mod	mod	mod	tg	ht	wh/0851.bmp
222.48	0.72	300	3	err	err	err	err	err	err	err	err	err	nh/0420_nh.bmp
223.20	0.72	301	2	8	94	per	con	low	mod	low	tg	ms	wh/0241.bmp
223.92	0.72	302	1	5	79	mem	con	mod	mod	mod	nt	ms	nh/0666_nh.bmp
224.64	0.72	303	3	6	9	per	lib	low	mod	low	tg	ms	wh/0519.bmp
225.36	0.72	304	4	err	err	err	err	err	err	err	err	err	nh/0262_nh.bmp
226.08	0.72	305	3	err	err	err	err	err	err	err	err	err	nh/0143_nh.bmp
226.80	0.72	306	1	8	58	per	lib	low	low	low	tg	ms	wh/0280.bmp
227.52	0.72	307	3	8	27	per	lib	mod	mod	mod	tg	ht	wh/0851.bmp
228.24	0.72	308	3	err	err	err	err	err	err	err	err	err	nh/0394_nh.bmp
228.96	0.72	309	3	7	35	mem	lib	mod	mod	mod	nt	ms	nh/0822_nh.bmp
229.68	0.72	310	1	err	err	err	err	err	err	err	err	err	wh/0586.bmp
230.40	0.72	311	1	err	err	err	err	err	err	err	err	err	nh/0958_nh.bmp
231.12	0.72	312	2	err	err	err	err	err	err	err	err	err	wh/0586.bmp
231.84	0.72	313	1	8	38	per	con	mod	low	mod	nt	cr	nh/0837_nh.bmp
232.56	0.72	314	1	5	94	per	lib	low	low	low	nt	fa	nh/0518_nh.bmp
233.28	0.72	315	2	5	117	mem	lib	mod	mod	low	nt	ht	nh/0172_nh.bmp
234.00	0.72	316	3	7	58	per	lib	low	mod	low	nt	cr	nh/0746_nh.bmp
234.72	0.72	317	2	err	err	err	err	err	err	err	err	err	wh/0852.bmp
235.44	0.72	318	2	err	err	err	err	err	err	err	err	err	wh/0441.bmp
236.16	0.72	319	3	6	61	per	con	mod	mod	mod	tg	ms	wh/0835.bmp
236.88	0.72	320	3	5	124	mem	lib	mod	mod	low	nt	ht	nh/0521_nh.bmp
237.60	0.72	321	3	8	85	per	con	low	mod	low	nt	cr	nh/0820_nh.bmp
238.32	0.72	322	1	6	5	per	lib	low	mod	low	nt	fa	nh/0157_nh.bmp
239.04	0.72	323	4	err	err	err	err	err	err	err	err	err	wh/0247.bmp
239.76	0.72	324	2	8	113	mem	con	mod	mod	mod	tg	ms	wh/0952.bmp
240.48	0.72	325	2	8	107	mem	lib	mod	mod	low	nt	ht	nh/0139_nh.bmp
241.20	0.72	326	1	5	38	per	con	mod	low	mod	nt	fa	nh/0221_nh.bmp
241.92	0.72	327	3	7	57	per	lib	low	mod	low	tg	ms	wh/0578.bmp
242.64	0.72	328	4	7	67	per	con	mod	mod	mod	nt	cr	nh/0408_nh.bmp
243.36	0.72	329	2	5	127	mem	lib	mod	mod	low	tg	ms	wh/0255.bmp
244.08	0.72	330	3	5	117	mem	lib	mod	mod	low	nt	ht	nh/0172_nh.bmp
244.80	0.72	331	2	err	err	err	err	err	err	err	err	err	nh/0958_nh.bmp
245.52	0.72	332	3	5	73	mem	con	mod	mod	mod	tg	ms	wh/0827.bmp
246.24	0.72	333	1	8	37	per	con	mod	low	mod	tg	ms	wh/0180.bmp
246.96	0.72	334	3	5	128	mem	lib	mod	mod	low	nt	ht	nh/0388_nh.bmp
247.68	0.72	335	1	8	96	per	con	low	mod	low	nt	cr	nh/0582_nh.bmp
248.40	0.72	336	3	err	err	err	err	err	err	err	err	err	wh/0176.bmp
249.12	0.72	337	2	8	19	per	lib	mod	mod	mod	nt	cr	nh/0269_nh.bmp
249.84	0.72	338	3	8	104	mem	lib	mod	mod	low	nt	ht	nh/0254_nh.bmp
250.56	0.72	339	2	8	90	per	con	low	mod	low	nt	cr	nh/0491_nh.bmp
251.28	0.72	340	4	8	27	per	lib	mod	mod	mod	tg	ht	wh/0851.bmp
252.00	0.72	341	1	7	61	per	lib	low	mod	low	tg	ht	wh/0374.bmp
252.72	0.72	342	4	5	124	mem	lib	mod	mod	low	nt	ht	nh/0521_nh.bmp
253.44	0.72	343	1	8	8	mem	lib	low	low	mod	tg	ht	wh/0234.bmp
254.16	0.72	344	3	8	113	mem	con	mod	mod	mod	tg	ms	wh/0952.bmp
254.88	0.72	345	3	err	err	err	err	err	err	err	err	err	wh/0852.bmp
255.60	0.72	346	3	8	95	per	con	low	mod	low	tg	ms	wh/0574.bmp
256.32	0.72	347	2	7	52	per	lib	low	mod	low	nt	fa	nh/0793_nh.bmp
257.04	0.72	348	4	err	err	err	err	err	err	err	err	err	nh/0394_nh.bmp
257.76	0.72	349	2	7	45	mem	lib	mod	mod	mod	nt	ht	nh/0549_nh.bmp
258.48	0.72	350	2	5	76	mem	con	mod	mod	mod	tg	ms	wh/0590.bmp
259.20	0.72	351	1	6	48	mem	con	low	low	mod	nt	ms	nh/0402_nh.bmp
259.92	0.72	352	4	6	58	per	con	mod	mod	mod	nt	cr	nh/0778_nh.bmp
260.64	0.72	353	3	5	71	mem	con	mod	mod	mod	nt	ht	nh/0638_nh.bmp
261.36	0.72	354	2	7	61	per	lib	low	mod	low	tg	ht	wh/0374.bmp
262.08	0.72	355	3	6	7	per	lib	low	mod	low	tg	ht	wh/0612.bmp
262.80	0.72	356	5	7	72	per	con	mod	mod	mod	tg	ht	wh/0995.bmp
263.52	0.72	357	3	8	19	per	lib	mod	mod	mod	nt	cr	nh/0269_nh.bmp
264.24	0.72	358	1	5	5	mem	lib	low	low	low	nt	ms	nh/0202_nh.bmp
264.96	0.72	359	2	7	54	per	lib	low	mod	low	tg	ms	wh/0165.bmp
265.68	0.72	360	4	7	35	mem	lib	mod	mod	mod	nt	ms	nh/0822_nh.bmp
266.40	0.72	361	4	8	89	per	con	low	mod	low	tg	ms	wh/0875.bmp
267.12	0.72	362	4	err	err	err	err	err	err	err	err	err	nh/0108_nh.bmp
267.84	0.72	363	3	5	127	mem	lib	mod	mod	low	tg	ms	wh/0255.bmp
268.56	0.72	364	4	5	128	mem	lib	mod	mod	low	nt	ht	nh/0388_nh.bmp
269.28	0.72	365	4	8	103	mem	lib	mod	mod	low	tg	ht	wh/0064.bmp
270.00	0.72	366	1	5	58	per	con	low	low	low	tg	ms	wh/0865.bmp
270.72	0.72	367	4	6	8	per	lib	low	mod	low	nt	fa	nh/0253_nh.bmp
271.44	0.72	368	1	5	62	per	con	low	low	low	tg	ms	wh/0468.bmp
272.16	0.72	369	2	8	119	mem	con	mod	mod	mod	nt	ht	nh/0556_nh.bmp
272.88	0.72	370	1	5	89	per	lib	low	low	low	tg	ms	wh/0994.bmp
273.60	0.72	371	2	err	err	err	err	err	err	err	err	err	wh/0734.bmp
274.32	0.72	372	2	8	108	mem	lib	mod	mod	low	nt	ht	nh/0012_nh.bmp
275.04	0.72	373	4	7	77	per	con	mod	mod	mod	tg	ms	wh/0623.bmp
275.76	0.72	374	4	6	9	per	lib	low	mod	low	tg	ms	wh/0519.bmp
276.48	0.72	375	5	7	35	mem	lib	mod	mod	mod	nt	ms	nh/0822_nh.bmp
277.20	0.72	376	1	8	53	per	lib	low	low	low	nt	fa	nh/0045_nh.bmp
277.92	0.72	377	3	7	52	per	lib	low	mod	low	nt	fa	nh/0793_nh.bmp
278.64	0.72	378	4	err	err	err	err	err	err	err	err	err	wh/0852.bmp
279.36	0.72	379	4	7	90	mem	con	mod	mod	low	nt	ms	nh/0986_nh.bmp
280.08	0.72	380	3	7	92	mem	con	mod	mod	low	tg	ms	wh/0678.bmp
280.80	0.72	381	3	7	47	mem	lib	mod	mod	mod	tg	ht	wh/0629.bmp
281.52	0.72	382	2	6	2	per	lib	low	mod	low	nt	cr	nh/0883_nh.bmp
282.24	0.72	383	2	err	err	err	err	err	err	err	err	err	nh/0686_nh.bmp
282.96	0.72	384	3	err	err	err	err	err	err	err	err	err	nh/0544_nh.bmp
283.68	0.72	385	2	6	51	per	con	mod	mod	mod	nt	cr	nh/0735_nh.bmp
284.40	0.72	386	4	8	95	per	con	low	mod	low	tg	ms	wh/0574.bmp
285.12	0.72	387	1	8	61	per	lib	low	low	low	tg	ms	wh/0929.bmp
285.84	0.72	388	3	7	42	mem	lib	mod	mod	mod	nt	ht	nh/0436_nh.bmp
286.56	0.72	389	3	7	45	mem	lib	mod	mod	mod	nt	ht	nh/0549_nh.bmp
287.28	0.72	390	3	7	61	per	lib	low	mod	low	tg	ht	wh/0374.bmp
288.00	0.72	391	1	7	17	mem	con	low	low	mod	tg	ht	wh/0779.bmp
288.72	0.72	392	2	8	96	per	con	low	mod	low	nt	cr	nh/0582_nh.bmp
289.44	0.72	393	2	err	err	err	err	err	err	err	err	err	nh/0763_nh.bmp
290.16	0.72	394	4	7	92	mem	con	mod	mod	low	tg	ms	wh/0678.bmp
290.88	0.72	395	2	err	err	err	err	err	err	err	err	err	nh/0401_nh.bmp
291.60	0.72	396	1	5	43	per	con	mod	low	mod	tg	ht	wh/1002.bmp
292.32	0.72	397	1	5	17	mem	con	low	low	low	nt	ms	nh/0610_nh.bmp
293.04	0.72	398	1	8	18	per	lib	mod	mod	mod	tg	ht	wh/0715.bmp
293.76	0.72	399	3	err	err	err	err	err	err	err	err	err	nh/0401_nh.bmp
294.48	0.72	400	3	err	err	err	err	err	err	err	err	err	nh/0249_nh.bmp
295.20	0.72	401	5	7	56	per	lib	low	mod	low	tg	ht	wh/0193.bmp
295.92	0.72	402	2	6	4	per	lib	low	mod	low	nt	cr	nh/0297_nh.bmp
296.64	0.72	403	4	8	123	mem	con	mod	mod	mod	nt	ms	nh/0694_nh.bmp
297.36	0.72	404	1	5	1	mem	lib	low	low	low	tg	ht	wh/0587.bmp
298.08	0.72	405	5	8	95	per	con	low	mod	low	tg	ms	wh/0574.bmp
298.80	0.72	406	3	err	err	err	err	err	err	err	err	err	wh/0441.bmp
299.52	0.72	407	4	7	42	mem	lib	mod	mod	mod	nt	ht	nh/0436_nh.bmp
300.24	0.72	408	5	7	70	per	con	mod	mod	mod	tg	ht	wh/0560.bmp
300.96	0.72	409	1	6	39	mem	con	low	low	mod	tg	ms	wh/0688.bmp
301.68	0.72	410	5	5	124	mem	lib	mod	mod	low	nt	ht	nh/0521_nh.bmp
302.40	0.72	411	4	7	81	mem	con	mod	mod	low	tg	ms	wh/0023.bmp
303.12	0.72	412	5	8	101	mem	lib	mod	mod	low	tg	ht	wh/0640.bmp
303.84	0.72	413	1	6	44	mem	con	low	low	mod	tg	ht	wh/0945.bmp
304.56	0.72	414	3	8	116	mem	con	mod	mod	mod	nt	ht	nh/0239_nh.bmp
305.28	0.72	415	2	5	79	mem	con	mod	mod	mod	nt	ms	nh/0666_nh.bmp
306.00	0.72	416	1	7	98	per	con	low	low	low	nt	cr	nh/0376_nh.bmp
306.72	0.72	417	3	err	err	err	err	err	err	err	err	err	wh/0248.bmp
307.44	0.72	418	3	err	err	err	err	err	err	err	err	err	nh/0958_nh.bmp
308.16	0.72	419	1	5	67	mem	con	mod	mod	mod	tg	ht	wh/0915.bmp
308.88	0.72	420	4	err	err	err	err	err	err	err	err	err	nh/0420_nh.bmp
309.60	0.72	421	3	err	err	err	err	err	err	err	err	err	wh/0734.bmp
310.32	0.72	422	2	8	87	per	con	low	mod	low	nt	cr	nh/0073_nh.bmp
311.04	0.72	423	1	8	36	per	con	mod	low	mod	tg	ht	wh/0545.bmp
311.76	0.72	424	2	7	91	mem	con	mod	mod	low	nt	ms	nh/0170_nh.bmp
312.48	0.72	425	3	6	56	per	con	mod	mod	mod	nt	cr	nh/0399_nh.bmp
313.20	0.72	426	1	5	24	mem	con	low	low	low	tg	ms	wh/0198.bmp
313.92	0.72	427	1	8	51	per	lib	low	low	low	nt	cr	nh/0244_nh.bmp
314.64	0.72	428	1	7	6	per	lib	mod	low	mod	tg	ms	wh/0668.bmp
315.36	0.72	429	3	8	28	per	lib	mod	mod	mod	tg	ms	wh/0495.bmp
316.08	0.72	430	3	7	88	mem	con	mod	mod	low	tg	ht	wh/0018.bmp
316.80	0.72	431	4	err	err	err	err	err	err	err	err	err	nh/0544_nh.bmp
317.52	0.72	432	5	err	err	err	err	err	err	err	err	err	nh/0544_nh.bmp
318.24	0.72	433	5	err	err	err	err	err	err	err	err	err	wh/0852.bmp
318.96	0.72	434	3	8	31	per	lib	mod	mod	mod	nt	cr	nh/0602_nh.bmp
319.68	0.72	435	4	err	err	err	err	err	err	err	err	err	wh/0248.bmp
320.40	0.72	436	4	err	err	err	err	err	err	err	err	err	wh/0060.bmp
321.12	0.72	437	3	7	75	per	con	mod	mod	mod	nt	cr	nh/0833_nh.bmp
321.84	0.72	438	1	5	83	per	lib	low	low	low	tg	ms	wh/0657.bmp
322.56	0.72	439	2	5	67	mem	con	mod	mod	mod	tg	ht	wh/0915.bmp
323.28	0.72	440	3	6	3	per	lib	low	mod	low	tg	ht	wh/0024.bmp
324.00	0.72	441	2	err	err	err	err	err	err	err	err	err	wh/0888.bmp
324.72	0.72	442	3	err	err	err	err	err	err	err	err	err	wh/0586.bmp
325.44	0.72	443	4	err	err	err	err	err	err	err	err	err	nh/0552_nh.bmp
326.16	0.72	444	1	6	26	mem	lib	low	low	mod	nt	ms	nh/0349_nh.bmp
326.88	0.72	445	4	7	58	per	lib	low	mod	low	nt	cr	nh/0746_nh.bmp
327.60	0.72	446	4	7	45	mem	lib	mod	mod	mod	nt	ht	nh/0549_nh.bmp
328.32	0.72	447	1	7	114	mem	lib	low	low	low	nt	ht	nh/0842_nh.bmp
329.04	0.72	448	5	err	err	err	err	err	err	err	err	err	nh/0546_nh.bmp
329.76	0.72	449	1	5	25	mem	con	low	low	low	nt	ms	nh/0990_nh.bmp
330.48	0.72	450	1	err	err	err	err	err	err	err	err	err	wh/0294.bmp
331.20	0.72	451	6	8	95	per	con	low	mod	low	tg	ms	wh/0574.bmp
331.92	0.72	452	2	5	69	mem	con	mod	mod	mod	tg	ms	wh/0968.bmp
332.64	0.72	453	4	7	88	mem	con	mod	mod	low	tg	ht	wh/0018.bmp
333.36	0.72	454	4	err	err	err	err	err	err	err	err	err	wh/0114.bmp
334.08	0.72	455	6	7	70	per	con	mod	mod	mod	tg	ht	wh/0560.bmp
334.80	0.72	456	2	6	5	per	lib	low	mod	low	nt	fa	nh/0157_nh.bmp
335.52	0.72	457	1	8	7	mem	lib	low	low	mod	tg	ht	wh/0051.bmp
336.24	0.72	458	3	7	96	mem	con	mod	mod	low	tg	ht	wh/0618.bmp
336.96	0.72	459	4	7	57	per	lib	low	mod	low	tg	ms	wh/0578.bmp
337.68	0.72	460	3	err	err	err	err	err	err	err	err	err	wh/0300.bmp
338.40	0.72	461	3	5	76	mem	con	mod	mod	mod	tg	ms	wh/0590.bmp
339.12	0.72	462	1	5	31	mem	con	low	low	low	tg	ms	wh/0041.bmp
339.84	0.72	463	4	8	28	per	lib	mod	mod	mod	tg	ms	wh/0495.bmp
340.56	0.72	464	4	err	err	err	err	err	err	err	err	err	wh/0441.bmp
341.28	0.72	465	3	8	20	per	lib	mod	mod	mod	nt	cr	nh/0871_nh.bmp
342.00	0.72	466	3	8	108	mem	lib	mod	mod	low	nt	ht	nh/0012_nh.bmp
342.72	0.72	467	1	7	101	per	con	low	low	low	nt	cr	nh/0352_nh.bmp
343.44	0.72	468	4	8	113	mem	con	mod	mod	mod	tg	ms	wh/0952.bmp
344.16	0.72	469	1	8	80	mem	con	low	low	low	tg	ms	wh/0639.bmp
344.88	0.72	470	3	8	94	per	con	low	mod	low	tg	ms	wh/0241.bmp
345.60	0.72	471	4	7	61	per	lib	low	mod	low	tg	ht	wh/0374.bmp
346.32	0.72	472	1	5	115	mem	lib	mod	mod	low	tg	ht	wh/0939.bmp
347.04	0.72	473	5	7	81	mem	con	mod	mod	low	tg	ms	wh/0023.bmp
347.76	0.72	474	3	err	err	err	err	err	err	err	err	err	nh/0686_nh.bmp
348.48	0.72	475	4	5	75	mem	con	mod	mod	mod	nt	ht	nh/0275_nh.bmp
349.20	0.72	476	3	7	68	per	con	mod	mod	mod	nt	cr	nh/0797_nh.bmp
349.92	0.72	477	4	8	20	per	lib	mod	mod	mod	nt	cr	nh/0871_nh.bmp
350.64	0.72	478	1	7	97	per	con	low	low	low	tg	ms	wh/0566.bmp
351.36	0.72	479	4	8	125	mem	con	mod	mod	mod	tg	ht	wh/0717.bmp
352.08	0.72	480	5	8	32	per	lib	mod	mod	mod	nt	fa	nh/0609_nh.bmp
352.80	0.72	481	5	8	27	per	lib	mod	mod	mod	tg	ht	wh/0851.bmp
353.52	0.72	482	6	err	err	err	err	err	err	err	err	err	wh/0852.bmp
354.24	0.72	483	4	7	34	mem	lib	mod	mod	mod	tg	ms	wh/0179.bmp
354.96	0.72	484	3	6	4	per	lib	low	mod	low	nt	cr	nh/0297_nh.bmp
355.68	0.72	485	5	err	err	err	err	err	err	err	err	err	wh/0441.bmp
356.40	0.72	486	1	6	20	mem	lib	low	low	mod	tg	ht	wh/0347.bmp
357.12	0.72	487	3	6	5	per	lib	low	mod	low	nt	fa	nh/0157_nh.bmp
357.84	0.72	488	3	8	119	mem	con	mod	mod	mod	nt	ht	nh/0556_nh.bmp
358.56	0.72	489	4	err	err	err	err	err	err	err	err	err	wh/0176.bmp
359.28	0.72	490	3	6	51	per	con	mod	mod	mod	nt	cr	nh/0735_nh.bmp
360.00	0.72	491	3	8	107	mem	lib	mod	mod	low	nt	ht	nh/0139_nh.bmp
360.72	0.72	492	5	7	77	per	con	mod	mod	mod	tg	ms	wh/0623.bmp
361.44	0.72	493	5	8	112	mem	lib	mod	mod	low	tg	ht	wh/0111.bmp
362.16	0.72	494	3	8	102	mem	lib	mod	mod	low	nt	ht	nh/0780_nh.bmp
362.88	0.72	495	4	8	104	mem	lib	mod	mod	low	nt	ht	nh/0254_nh.bmp
363.60	0.72	496	5	8	104	mem	lib	mod	mod	low	nt	ht	nh/0254_nh.bmp
364.32	0.72	497	2	8	121	mem	con	mod	mod	mod	nt	ms	nh/0603_nh.bmp
365.04	0.72	498	6	8	104	mem	lib	mod	mod	low	nt	ht	nh/0254_nh.bmp
365.76	0.72	499	2	8	17	per	lib	mod	mod	mod	tg	ht	wh/0764.bmp
366.48	0.72	500	2	7	66	per	con	mod	mod	mod	tg	ht	wh/0337.bmp
367.20	0.72	501	2	err	err	err	err	err	err	err	err	err	wh/0814.bmp
367.92	0.72	502	2	7	76	per	con	mod	mod	mod	nt	cr	nh/0599_nh.bmp
368.64	0.72	503	5	6	9	per	lib	low	mod	low	tg	ms	wh/0519.bmp
369.36	0.72	504	5	7	88	mem	con	mod	mod	low	tg	ht	wh/0018.bmp
370.08	0.72	505	5	err	err	err	err	err	err	err	err	err	nh/0108_nh.bmp
370.80	0.72	506	2	err	err	err	err	err	err	err	err	err	nh/0453_nh.bmp
371.52	0.72	507	2	6	62	per	con	mod	mod	mod	tg	ht	wh/0318.bmp
372.24	0.72	508	3	err	err	err	err	err	err	err	err	err	nh/0453_nh.bmp
372.96	0.72	509	3	err	err	err	err	err	err	err	err	err	wh/0164.bmp
373.68	0.72	510	4	7	68	per	con	mod	mod	mod	nt	cr	nh/0797_nh.bmp
374.40	0.72	511	3	5	113	mem	lib	mod	mod	low	tg	ht	wh/0848.bmp
375.12	0.72	512	5	8	28	per	lib	mod	mod	mod	tg	ms	wh/0495.bmp
375.84	0.72	513	4	6	55	per	con	mod	mod	mod	tg	ms	wh/0086.bmp
376.56	0.72	514	3	5	79	mem	con	mod	mod	mod	nt	ms	nh/0666_nh.bmp
377.28	0.72	515	4	5	127	mem	lib	mod	mod	low	tg	ms	wh/0255.bmp
378.00	0.72	516	4	7	40	mem	lib	mod	mod	mod	tg	ht	wh/0056.bmp
378.72	0.72	517	4	6	53	per	con	mod	mod	mod	tg	ht	wh/0564.bmp
379.44	0.72	518	3	err	err	err	err	err	err	err	err	err	nh/0763_nh.bmp
380.16	0.72	519	5	err	err	err	err	err	err	err	err	err	nh/0552_nh.bmp
380.88	0.72	520	3	6	2	per	lib	low	mod	low	nt	cr	nh/0883_nh.bmp
381.60	0.72	521	2	8	18	per	lib	mod	mod	mod	tg	ht	wh/0715.bmp
382.32	0.72	522	5	5	75	mem	con	mod	mod	mod	nt	ht	nh/0275_nh.bmp
383.04	0.72	523	2	err	err	err	err	err	err	err	err	err	wh/0832.bmp
383.76	0.72	524	4	8	102	mem	lib	mod	mod	low	nt	ht	nh/0780_nh.bmp
384.48	0.72	525	4	err	err	err	err	err	err	err	err	err	nh/0453_nh.bmp
385.20	0.72	526	2	5	126	mem	lib	mod	mod	low	tg	ht	wh/0042.bmp
385.92	0.72	527	4	8	119	mem	con	mod	mod	mod	nt	ht	nh/0556_nh.bmp
386.64	0.72	528	4	err	err	err	err	err	err	err	err	err	wh/0164.bmp
387.36	0.72	529	3	err	err	err	err	err	err	err	err	err	nh/0978_nh.bmp
388.08	0.72	530	4	8	107	mem	lib	mod	mod	low	nt	ht	nh/0139_nh.bmp
388.80	0.72	531	3	5	67	mem	con	mod	mod	mod	tg	ht	wh/0915.bmp
389.52	0.72	532	4	6	2	per	lib	low	mod	low	nt	cr	nh/0883_nh.bmp
390.24	0.72	533	4	8	116	mem	con	mod	mod	mod	nt	ht	nh/0239_nh.bmp
390.96	0.72	534	4	5	76	mem	con	mod	mod	mod	tg	ms	wh/0590.bmp
391.68	0.72	535	4	7	52	per	lib	low	mod	low	nt	fa	nh/0793_nh.bmp
392.40	0.72	536	3	6	57	per	con	mod	mod	mod	nt	cr	nh/0385_nh.bmp
393.12	0.72	537	5	5	128	mem	lib	mod	mod	low	nt	ht	nh/0388_nh.bmp
393.84	0.72	538	5	8	103	mem	lib	mod	mod	low	tg	ht	wh/0064.bmp
394.56	0.72	539	4	8	94	per	con	low	mod	low	tg	ms	wh/0241.bmp
395.28	0.72	540	4	err	err	err	err	err	err	err	err	err	nh/0978_nh.bmp
396.00	0.72	541	1	8	5	mem	lib	low	low	mod	tg	ht	wh/0625.bmp
396.72	0.72	542	3	8	96	per	con	low	mod	low	nt	cr	nh/0582_nh.bmp
397.44	0.72	543	3	7	54	per	lib	low	mod	low	tg	ms	wh/0165.bmp
398.16	0.72	544	2	err	err	err	err	err	err	err	err	err	wh/0294.bmp
398.88	0.72	545	4	6	11	per	lib	low	mod	low	tg	ms	wh/0863.bmp
399.60	0.72	546	5	6	2	per	lib	low	mod	low	nt	cr	nh/0883_nh.bmp
400.32	0.72	547	1	6	38	mem	con	low	low	mod	nt	ms	nh/0622_nh.bmp
401.04	0.72	548	4	7	54	per	lib	low	mod	low	tg	ms	wh/0165.bmp
401.76	0.72	549	2	5	115	mem	lib	mod	mod	low	tg	ht	wh/0939.bmp
402.48	0.72	550	4	8	110	mem	lib	mod	mod	low	tg	ht	wh/1014.bmp
403.20	0.72	551	4	5	113	mem	lib	mod	mod	low	tg	ht	wh/0848.bmp
403.92	0.72	552	5	err	err	err	err	err	err	err	err	err	nh/0394_nh.bmp
404.64	0.72	553	6	7	88	mem	con	mod	mod	low	tg	ht	wh/0018.bmp
405.36	0.72	554	6	7	77	per	con	mod	mod	mod	tg	ms	wh/0623.bmp
406.08	0.72	555	6	7	35	mem	lib	mod	mod	mod	nt	ms	nh/0822_nh.bmp
406.80	0.72	556	5	5	114	mem	lib	mod	mod	low	nt	ht	nh/0450_nh.bmp
407.52	0.72	557	5	err	err	err	err	err	err	err	err	err	nh/0453_nh.bmp
408.24	0.72	558	5	err	err	err	err	err	err	err	err	err	wh/0176.bmp
408.96	0.72	559	4	5	71	mem	con	mod	mod	mod	nt	ht	nh/0638_nh.bmp
409.68	0.72	560	1	8	77	mem	con	low	low	low	tg	ms	wh/0219.bmp
410.40	0.72	561	3	5	115	mem	lib	mod	mod	low	tg	ht	wh/0939.bmp
411.12	0.72	562	1	7	4	per	lib	mod	low	mod	nt	cr	nh/0559_nh.bmp
411.84	0.72	563	5	err	err	err	err	err	err	err	err	err	wh/0248.bmp
412.56	0.72	564	3	5	69	mem	con	mod	mod	mod	tg	ms	wh/0968.bmp
413.28	0.72	565	5	7	58	per	lib	low	mod	low	nt	cr	nh/0746_nh.bmp
414.00	0.72	566	3	err	err	err	err	err	err	err	err	err	wh/0294.bmp
414.72	0.72	567	1	8	40	per	con	mod	low	mod	nt	cr	nh/0207_nh.bmp
415.44	0.72	568	5	err	err	err	err	err	err	err	err	err	nh/0262_nh.bmp
416.16	0.72	569	5	8	125	mem	con	mod	mod	mod	tg	ht	wh/0717.bmp
416.88	0.72	570	4	err	err	err	err	err	err	err	err	err	nh/0686_nh.bmp
417.60	0.72	571	3	8	18	per	lib	mod	mod	mod	tg	ht	wh/0715.bmp
418.32	0.72	572	4	err	err	err	err	err	err	err	err	err	wh/0294.bmp
419.04	0.72	573	4	5	73	mem	con	mod	mod	mod	tg	ms	wh/0827.bmp
419.76	0.72	574	3	7	91	mem	con	mod	mod	low	nt	ms	nh/0170_nh.bmp
420.48	0.72	575	4	err	err	err	err	err	err	err	err	err	nh/0143_nh.bmp
421.20	0.72	576	5	7	90	mem	con	mod	mod	low	nt	ms	nh/0986_nh.bmp
421.92	0.72	577	1	8	50	per	lib	low	low	low	tg	ht	wh/0570.bmp
422.64	0.72	578	5	err	err	err	err	err	err	err	err	err	nh/0978_nh.bmp
423.36	0.72	579	6	8	27	per	lib	mod	mod	mod	tg	ht	wh/0851.bmp
424.08	0.72	580	5	7	67	per	con	mod	mod	mod	nt	cr	nh/0408_nh.bmp
424.80	0.72	581	6	8	101	mem	lib	mod	mod	low	tg	ht	wh/0640.bmp
425.52	0.72	582	4	8	108	mem	lib	mod	mod	low	nt	ht	nh/0012_nh.bmp
426.24	0.72	583	4	6	51	per	con	mod	mod	mod	nt	cr	nh/0735_nh.bmp
426.96	0.72	584	1	7	2	per	lib	mod	low	mod	tg	ht	wh/1008.bmp
427.68	0.72	585	2	err	err	err	err	err	err	err	err	err	wh/0647.bmp
428.40	0.72	586	4	err	err	err	err	err	err	err	err	err	nh/0958_nh.bmp
429.12	0.72	587	2	8	114	mem	con	mod	mod	mod	tg	ms	wh/0020.bmp
429.84	0.72	588	6	err	err	err	err	err	err	err	err	err	nh/0552_nh.bmp
430.56	0.72	589	1	8	68	mem	con	low	low	low	nt	ms	nh/0181_nh.bmp
431.28	0.72	590	6	7	67	per	con	mod	mod	mod	nt	cr	nh/0408_nh.bmp
432.00	0.72	591	3	7	66	per	con	mod	mod	mod	tg	ht	wh/0337.bmp
432.72	0.72	592	1	6	17	mem	lib	low	low	mod	nt	ht	nh/0839_nh.bmp
433.44	0.72	593	3	7	76	per	con	mod	mod	mod	nt	cr	nh/0599_nh.bmp
434.16	0.72	594	3	8	87	per	con	low	mod	low	nt	cr	nh/0073_nh.bmp
434.88	0.72	595	4	5	117	mem	lib	mod	mod	low	nt	ht	nh/0172_nh.bmp
435.60	0.72	596	3	8	114	mem	con	mod	mod	mod	tg	ms	wh/0020.bmp
436.32	0.72	597	4	err	err	err	err	err	err	err	err	err	nh/0756_nh.bmp
437.04	0.72	598	3	8	90	per	con	low	mod	low	nt	cr	nh/0491_nh.bmp
437.76	0.72	599	3	8	17	per	lib	mod	mod	mod	tg	ht	wh/0764.bmp
438.48	0.72	600	5	err	err	err	err	err	err	err	err	err	wh/0060.bmp
439.20	0.72	601	4	6	5	per	lib	low	mod	low	nt	fa	nh/0157_nh.bmp
439.92	0.72	602	3	err	err	err	err	err	err	err	err	err	wh/0832.bmp
440.64	0.72	603	4	6	7	per	lib	low	mod	low	tg	ht	wh/0612.bmp
441.36	0.72	604	1	8	62	per	lib	low	low	low	tg	ht	wh/0880.bmp
442.08	0.72	605	5	6	51	per	con	mod	mod	mod	nt	cr	nh/0735_nh.bmp
442.80	0.72	606	4	7	75	per	con	mod	mod	mod	nt	cr	nh/0833_nh.bmp
443.52	0.72	607	1	5	102	per	lib	mod	low	mod	tg	ht	wh/0924.bmp
444.24	0.72	608	5	8	20	per	lib	mod	mod	mod	nt	cr	nh/0871_nh.bmp
444.96	0.72	609	1	7	8	per	lib	mod	low	mod	nt	cr	nh/0631_nh.bmp
445.68	0.72	610	4	7	95	mem	con	mod	mod	low	nt	ms	nh/1019_nh.bmp
446.40	0.72	611	6	err	err	err	err	err	err	err	err	err	nh/0394_nh.bmp
447.12	0.72	612	1	5	47	per	con	mod	low	mod	nt	cr	nh/0867_nh.bmp
447.84	0.72	613	5	8	94	per	con	low	mod	low	tg	ms	wh/0241.bmp
448.56	0.72	614	4	7	47	mem	lib	mod	mod	mod	tg	ht	wh/0629.bmp
449.28	0.72	615	4	8	18	per	lib	mod	mod	mod	tg	ht	wh/0715.bmp
450.00	0.72	616	1	5	91	per	lib	low	low	low	nt	cr	nh/0106_nh.bmp
450.72	0.72	617	5	err	err	err	err	err	err	err	err	err	wh/0247.bmp
451.44	0.72	618	4	err	err	err	err	err	err	err	err	err	nh/0763_nh.bmp
452.16	0.72	619	3	err	err	err	err	err	err	err	err	err	wh/0814.bmp
452.88	0.72	620	5	6	58	per	con	mod	mod	mod	nt	cr	nh/0778_nh.bmp
453.60	0.72	621	5	8	113	mem	con	mod	mod	mod	tg	ms	wh/0952.bmp
454.32	0.72	622	4	5	67	mem	con	mod	mod	mod	tg	ht	wh/0915.bmp
455.04	0.72	623	1	7	23	mem	con	low	low	mod	tg	ms	wh/0308.bmp
455.76	0.72	624	5	5	113	mem	lib	mod	mod	low	tg	ht	wh/0848.bmp
456.48	0.72	625	3	6	62	per	con	mod	mod	mod	tg	ht	wh/0318.bmp
457.20	0.72	626	4	6	56	per	con	mod	mod	mod	nt	cr	nh/0399_nh.bmp
457.92	0.72	627	4	err	err	err	err	err	err	err	err	err	wh/0832.bmp
458.64	0.72	628	4	7	96	mem	con	mod	mod	low	tg	ht	wh/0618.bmp
459.36	0.72	629	3	err	err	err	err	err	err	err	err	err	wh/0647.bmp
460.08	0.72	630	4	8	31	per	lib	mod	mod	mod	nt	cr	nh/0602_nh.bmp
460.80	0.72	631	3	5	126	mem	lib	mod	mod	low	tg	ht	wh/0042.bmp
461.52	0.72	632	5	8	31	per	lib	mod	mod	mod	nt	cr	nh/0602_nh.bmp
462.24	0.72	633	5	8	110	mem	lib	mod	mod	low	tg	ht	wh/1014.bmp
462.96	0.72	634	4	err	err	err	err	err	err	err	err	err	wh/0814.bmp
463.68	0.72	635	5	8	89	per	con	low	mod	low	tg	ms	wh/0875.bmp
464.40	0.72	636	5	err	err	err	err	err	err	err	err	err	nh/0763_nh.bmp
465.12	0.72	637	5	7	52	per	lib	low	mod	low	nt	fa	nh/0793_nh.bmp
465.84	0.72	638	6	5	75	mem	con	mod	mod	mod	nt	ht	nh/0275_nh.bmp
466.56	0.72	639	4	8	114	mem	con	mod	mod	mod	tg	ms	wh/0020.bmp
467.28	0.72	640	5	7	61	per	lib	low	mod	low	tg	ht	wh/0374.bmp
468.00	0.72	641	1	5	13	mem	lib	low	low	low	tg	ht	wh/0506.bmp
468.72	0.72	642	1	5	23	mem	con	low	low	low	nt	ms	nh/0737_nh.bmp
469.44	0.72	643	5	7	96	mem	con	mod	mod	low	tg	ht	wh/0618.bmp
470.16	0.72	644	5	err	err	err	err	err	err	err	err	err	wh/0814.bmp
470.88	0.72	645	1	7	20	mem	con	low	low	mod	tg	ms	wh/0869.bmp
471.60	0.72	646	1	7	112	per	con	low	low	low	tg	ms	wh/0260.bmp
472.32	0.72	647	4	8	87	per	con	low	mod	low	nt	cr	nh/0073_nh.bmp
473.04	0.72	648	5	7	54	per	lib	low	mod	low	tg	ms	wh/0165.bmp
473.76	0.72	649	5	6	7	per	lib	low	mod	low	tg	ht	wh/0612.bmp
474.48	0.72	650	4	err	err	err	err	err	err	err	err	err	nh/0401_nh.bmp
475.20	0.72	651	4	6	3	per	lib	low	mod	low	tg	ht	wh/0024.bmp
475.92	0.72	652	5	6	8	per	lib	low	mod	low	nt	fa	nh/0253_nh.bmp
476.64	0.72	653	5	err	err	err	err	err	err	err	err	err	nh/0756_nh.bmp
477.36	0.72	654	4	8	90	per	con	low	mod	low	nt	cr	nh/0491_nh.bmp
478.08	0.72	655	5	8	87	per	con	low	mod	low	nt	cr	nh/0073_nh.bmp
478.80	0.72	656	5	7	92	mem	con	mod	mod	low	tg	ms	wh/0678.bmp
479.52	0.72	657	5	6	53	per	con	mod	mod	mod	tg	ht	wh/0564.bmp
480.24	0.72	658	6	6	2	per	lib	low	mod	low	nt	cr	nh/0883_nh.bmp
480.96	0.72	659	4	8	127	mem	con	mod	mod	mod	tg	ms	wh/0378.bmp
481.68	0.72	660	1	5	111	per	lib	mod	low	mod	nt	fa	nh/0091_nh.bmp
482.40	0.72	661	5	7	68	per	con	mod	mod	mod	nt	cr	nh/0797_nh.bmp
483.12	0.72	662	5	5	71	mem	con	mod	mod	mod	nt	ht	nh/0638_nh.bmp
483.84	0.72	663	1	5	4	mem	lib	low	low	low	nt	ht	nh/0058_nh.bmp
484.56	0.72	664	4	7	76	per	con	mod	mod	mod	nt	cr	nh/0599_nh.bmp
485.28	0.72	665	5	7	34	mem	lib	mod	mod	mod	tg	ms	wh/0179.bmp
486.00	0.72	666	3	err	err	err	err	err	err	err	err	err	wh/0888.bmp
486.72	0.72	667	5	6	56	per	con	mod	mod	mod	nt	cr	nh/0399_nh.bmp
487.44	0.72	668	5	8	102	mem	lib	mod	mod	low	nt	ht	nh/0780_nh.bmp
488.16	0.72	669	1	5	95	per	lib	low	low	low	tg	ht	wh/0043.bmp
488.88	0.72	670	4	err	err	err	err	err	err	err	err	err	wh/0888.bmp
489.60	0.72	671	4	6	61	per	con	mod	mod	mod	tg	ms	wh/0835.bmp
490.32	0.72	672	5	8	116	mem	con	mod	mod	mod	nt	ht	nh/0239_nh.bmp
491.04	0.72	673	1	7	19	mem	con	low	low	mod	nt	ms	nh/0418_nh.bmp
491.76	0.72	674	5	err	err	err	err	err	err	err	err	err	nh/0958_nh.bmp
492.48	0.72	675	6	7	81	mem	con	mod	mod	low	tg	ms	wh/0023.bmp
493.20	0.72	676	4	7	49	per	lib	low	mod	low	nt	fa	nh/0403_nh.bmp
493.92	0.72	677	4	8	85	per	con	low	mod	low	nt	cr	nh/0820_nh.bmp
494.64	0.72	678	5	5	73	mem	con	mod	mod	mod	tg	ms	wh/0827.bmp
495.36	0.72	679	4	6	57	per	con	mod	mod	mod	nt	cr	nh/0385_nh.bmp
496.08	0.72	680	5	8	18	per	lib	mod	mod	mod	tg	ht	wh/0715.bmp
496.80	0.72	681	6	5	124	mem	lib	mod	mod	low	nt	ht	nh/0521_nh.bmp
497.52	0.72	682	6	7	58	per	lib	low	mod	low	nt	cr	nh/0746_nh.bmp
498.24	0.72	683	6	err	err	err	err	err	err	err	err	err	nh/0262_nh.bmp
498.96	0.72	684	5	7	95	mem	con	mod	mod	low	nt	ms	nh/1019_nh.bmp
499.68	0.72	685	6	err	err	err	err	err	err	err	err	err	nh/0958_nh.bmp
500.40	0.72	686	5	8	90	per	con	low	mod	low	nt	cr	nh/0491_nh.bmp
501.12	0.72	687	6	5	71	mem	con	mod	mod	mod	nt	ht	nh/0638_nh.bmp
501.84	0.72	688	5	7	40	mem	lib	mod	mod	mod	tg	ht	wh/0056.bmp
502.56	0.72	689	5	err	err	err	err	err	err	err	err	err	wh/0164.bmp
503.28	0.72	690	4	err	err	err	err	err	err	err	err	err	wh/0647.bmp
504.00	0.72	691	1	5	28	mem	con	low	low	low	tg	ht	wh/0022.bmp
504.72	0.72	692	6	8	112	mem	lib	mod	mod	low	tg	ht	wh/0111.bmp
505.44	0.72	693	6	err	err	err	err	err	err	err	err	err	wh/0248.bmp
506.16	0.72	694	3	8	121	mem	con	mod	mod	mod	nt	ms	nh/0603_nh.bmp
506.88	0.72	695	5	5	117	mem	lib	mod	mod	low	nt	ht	nh/0172_nh.bmp
507.60	0.72	696	6	8	116	mem	con	mod	mod	mod	nt	ht	nh/0239_nh.bmp
508.32	0.72	697	6	8	20	per	lib	mod	mod	mod	nt	cr	nh/0871_nh.bmp
509.04	0.72	698	5	6	11	per	lib	low	mod	low	tg	ms	wh/0863.bmp
509.76	0.72	699	6	5	73	mem	con	mod	mod	mod	tg	ms	wh/0827.bmp
510.48	0.72	700	5	7	47	mem	lib	mod	mod	mod	tg	ht	wh/0629.bmp
511.20	0.72	701	4	5	79	mem	con	mod	mod	mod	nt	ms	nh/0666_nh.bmp
511.92	0.72	702	4	err	err	err	err	err	err	err	err	err	wh/0586.bmp
512.64	0.72	703	5	err	err	err	err	err	err	err	err	err	nh/0143_nh.bmp
513.36	0.72	704	1	5	29	mem	con	low	low	low	tg	ms	wh/0830.bmp
514.08	0.72	705	5	8	123	mem	con	mod	mod	mod	nt	ms	nh/0694_nh.bmp
514.80	0.72	706	6	6	56	per	con	mod	mod	mod	nt	cr	nh/0399_nh.bmp
515.52	0.72	707	6	8	113	mem	con	mod	mod	mod	tg	ms	wh/0952.bmp
516.24	0.72	708	6	6	8	per	lib	low	mod	low	nt	fa	nh/0253_nh.bmp
516.96	0.72	709	4	8	121	mem	con	mod	mod	mod	nt	ms	nh/0603_nh.bmp
517.68	0.72	710	5	6	3	per	lib	low	mod	low	tg	ht	wh/0024.bmp
518.40	0.72	711	6	8	102	mem	lib	mod	mod	low	nt	ht	nh/0780_nh.bmp
519.12	0.72	712	1	7	108	per	con	low	low	low	nt	cr	nh/0480_nh.bmp
519.84	0.72	713	5	6	61	per	con	mod	mod	mod	tg	ms	wh/0835.bmp
520.56	0.72	714	5	7	76	per	con	mod	mod	mod	nt	cr	nh/0599_nh.bmp
521.28	0.72	715	4	8	17	per	lib	mod	mod	mod	tg	ht	wh/0764.bmp
522.00	0.72	716	5	5	77	mem	con	mod	mod	mod	nt	ms	nh/0821_nh.bmp
522.72	0.72	717	1	8	3	mem	lib	low	low	mod	nt	ht	nh/0475_nh.bmp
523.44	0.72	718	4	5	126	mem	lib	mod	mod	low	tg	ht	wh/0042.bmp
524.16	0.72	719	5	7	49	per	lib	low	mod	low	nt	fa	nh/0403_nh.bmp
524.88	0.72	720	5	err	err	err	err	err	err	err	err	err	wh/0586.bmp
525.60	0.72	721	5	7	57	per	lib	low	mod	low	tg	ms	wh/0578.bmp
526.32	0.72	722	6	5	77	mem	con	mod	mod	mod	nt	ms	nh/0821_nh.bmp
527.04	0.72	723	6	5	114	mem	lib	mod	mod	low	nt	ht	nh/0450_nh.bmp
527.76	0.72	724	5	8	119	mem	con	mod	mod	mod	nt	ht	nh/0556_nh.bmp
528.48	0.72	725	5	5	79	mem	con	mod	mod	mod	nt	ms	nh/0666_nh.bmp
529.20	0.72	726	5	err	err	err	err	err	err	err	err	err	nh/0401_nh.bmp
529.92	0.72	727	5	7	75	per	con	mod	mod	mod	nt	cr	nh/0833_nh.bmp
530.64	0.72	728	6	err	err	err	err	err	err	err	err	err	nh/0108_nh.bmp
531.36	0.72	729	5	err	err	err	err	err	err	err	err	err	wh/0888.bmp
532.08	0.72	730	5	err	err	err	err	err	err	err	err	err	wh/0647.bmp
532.80	0.72	731	4	err	err	err	err	err	err	err	err	err	wh/0734.bmp
533.52	0.72	732	4	7	91	mem	con	mod	mod	low	nt	ms	nh/0170_nh.bmp
534.24	0.72	733	6	err	err	err	err	err	err	err	err	err	wh/0441.bmp
534.96	0.72	734	1	7	25	mem	con	low	low	mod	nt	ms	nh/0188_nh.bmp
535.68	0.72	735	6	err	err	err	err	err	err	err	err	err	wh/0888.bmp
536.40	0.72	736	4	6	62	per	con	mod	mod	mod	tg	ht	wh/0318.bmp
537.12	0.72	737	6	7	54	per	lib	low	mod	low	tg	ms	wh/0165.bmp
537.84	0.72	738	5	err	err	err	err	err	err	err	err	err	wh/0734.bmp
538.56	0.72	739	1	8	67	mem	con	low	low	low	nt	ht	nh/0770_nh.bmp
539.28	0.72	740	1	7	11	per	lib	mod	low	mod	nt	fa	nh/0532_nh.bmp
540.00	0.72	741	4	5	115	mem	lib	mod	mod	low	tg	ht	wh/0939.bmp
540.72	0.72	742	6	7	76	per	con	mod	mod	mod	nt	cr	nh/0599_nh.bmp
541.44	0.72	743	6	6	61	per	con	mod	mod	mod	tg	ms	wh/0835.bmp
542.16	0.72	744	6	err	err	err	err	err	err	err	err	err	nh/0453_nh.bmp
542.88	0.72	745	6	5	117	mem	lib	mod	mod	low	nt	ht	nh/0172_nh.bmp
543.60	0.72	746	6	6	11	per	lib	low	mod	low	tg	ms	wh/0863.bmp
544.32	0.72	747	1	6	46	mem	con	low	low	mod	nt	ms	nh/0751_nh.bmp
545.04	0.72	748	5	5	126	mem	lib	mod	mod	low	tg	ht	wh/0042.bmp
545.76	0.72	749	1	7	16	per	lib	mod	low	mod	nt	cr	nh/0101_nh.bmp
546.48	0.72	750	6	err	err	err	err	err	err	err	err	err	nh/0143_nh.bmp
547.20	0.72	751	5	err	err	err	err	err	err	err	err	err	nh/0420_nh.bmp
547.92	0.72	752	4	6	4	per	lib	low	mod	low	nt	cr	nh/0297_nh.bmp
548.64	0.72	753	5	8	85	per	con	low	mod	low	nt	cr	nh/0820_nh.bmp
549.36	0.72	754	6	7	95	mem	con	mod	mod	low	nt	ms	nh/1019_nh.bmp
550.08	0.72	755	6	8	92	per	con	low	mod	low	tg	ms	wh/1004.bmp
550.80	0.72	756	6	5	128	mem	lib	mod	mod	low	nt	ht	nh/0388_nh.bmp
551.52	0.72	757	1	8	45	per	con	mod	low	mod	nt	cr	nh/0948_nh.bmp
552.24	0.72	758	6	6	7	per	lib	low	mod	low	tg	ht	wh/0612.bmp
552.96	0.72	759	4	8	96	per	con	low	mod	low	nt	cr	nh/0582_nh.bmp
553.68	0.72	760	6	7	57	per	lib	low	mod	low	tg	ms	wh/0578.bmp
554.40	0.72	761	1	5	93	per	lib	low	low	low	nt	fa	nh/0636_nh.bmp
555.12	0.72	762	5	6	57	per	con	mod	mod	mod	nt	cr	nh/0385_nh.bmp
555.84	0.72	763	5	8	108	mem	lib	mod	mod	low	nt	ht	nh/0012_nh.bmp
556.56	0.72	764	5	5	115	mem	lib	mod	mod	low	tg	ht	wh/0939.bmp
557.28	0.72	765	6	8	90	per	con	low	mod	low	nt	cr	nh/0491_nh.bmp
558.00	0.72	766	1	7	26	mem	con	low	low	mod	nt	ms	nh/0093_nh.bmp
558.72	0.72	767	5	8	121	mem	con	mod	mod	mod	nt	ms	nh/0603_nh.bmp
559.44	0.72	768	6	7	43	mem	lib	mod	mod	mod	nt	ht	nh/0971_nh.bmp
560.16	0.72	769	5	8	127	mem	con	mod	mod	mod	tg	ms	wh/0378.bmp
560.88	0.72	770	1	8	9	mem	lib	low	low	mod	nt	ht	nh/1005_nh.bmp
561.60	0.72	771	6	7	92	mem	con	mod	mod	low	tg	ms	wh/0678.bmp
562.32	0.72	772	4	8	19	per	lib	mod	mod	mod	nt	cr	nh/0269_nh.bmp
563.04	0.72	773	5	7	91	mem	con	mod	mod	low	nt	ms	nh/0170_nh.bmp
563.76	0.72	774	6	7	40	mem	lib	mod	mod	mod	tg	ht	wh/0056.bmp
564.48	0.72	775	6	7	87	mem	con	mod	mod	low	nt	ht	nh/0892_nh.bmp
565.20	0.72	776	1	8	65	mem	con	low	low	low	tg	ms	wh/0144.bmp
565.92	0.72	777	4	7	48	mem	lib	mod	mod	mod	tg	ht	wh/0366.bmp
566.64	0.72	778	1	8	75	mem	con	low	low	low	tg	ht	wh/0005.bmp
567.36	0.72	779	1	5	44	per	con	mod	low	mod	tg	ms	wh/0381.bmp
568.08	0.72	780	1	5	20	mem	con	low	low	low	nt	ms	nh/0516_nh.bmp
568.80	0.72	781	4	err	err	err	err	err	err	err	err	err	nh/0249_nh.bmp
569.52	0.72	782	5	6	4	per	lib	low	mod	low	nt	cr	nh/0297_nh.bmp
570.24	0.72	783	6	6	53	per	con	mod	mod	mod	tg	ht	wh/0564.bmp
570.96	0.72	784	5	8	107	mem	lib	mod	mod	low	nt	ht	nh/0139_nh.bmp
571.68	0.72	785	5	7	60	per	lib	low	mod	low	nt	cr	nh/0118_nh.bmp
572.40	0.72	786	6	err	err	err	err	err	err	err	err	err	wh/0247.bmp
573.12	0.72	787	4	7	66	per	con	mod	mod	mod	tg	ht	wh/0337.bmp
573.84	0.72	788	6	8	28	per	lib	mod	mod	mod	tg	ms	wh/0495.bmp
574.56	0.72	789	6	err	err	err	err	err	err	err	err	err	nh/0401_nh.bmp
575.28	0.72	790	1	8	14	mem	lib	low	low	mod	tg	ht	wh/0537.bmp
576.00	0.72	791	1	7	15	per	lib	mod	low	mod	tg	ht	wh/0840.bmp
576.72	0.72	792	5	6	5	per	lib	low	mod	low	nt	fa	nh/0157_nh.bmp
577.44	0.72	793	6	7	47	mem	lib	mod	mod	mod	tg	ht	wh/0629.bmp
578.16	0.72	794	6	8	108	mem	lib	mod	mod	low	nt	ht	nh/0012_nh.bmp
578.88	0.72	795	6	8	110	mem	lib	mod	mod	low	tg	ht	wh/1014.bmp
579.60	0.72	796	5	err	err	err	err	err	err	err	err	err	wh/0114.bmp
580.32	0.72	797	5	5	127	mem	lib	mod	mod	low	tg	ms	wh/0255.bmp
581.04	0.72	798	6	7	52	per	lib	low	mod	low	nt	fa	nh/0793_nh.bmp
581.76	0.72	799	6	8	94	per	con	low	mod	low	tg	ms	wh/0241.bmp
582.48	0.72	800	6	8	127	mem	con	mod	mod	mod	tg	ms	wh/0378.bmp
583.20	0.72	801	6	7	49	per	lib	low	mod	low	nt	fa	nh/0403_nh.bmp
583.92	0.72	802	6	8	85	per	con	low	mod	low	nt	cr	nh/0820_nh.bmp
584.64	0.72	803	6	7	72	per	con	mod	mod	mod	tg	ht	wh/0995.bmp
585.36	0.72	804	1	6	40	mem	con	low	low	mod	nt	ms	nh/1016_nh.bmp
586.08	0.72	805	5	8	19	per	lib	mod	mod	mod	nt	cr	nh/0269_nh.bmp
586.80	0.72	806	6	err	err	err	err	err	err	err	err	err	wh/0586.bmp
587.52	0.72	807	6	7	91	mem	con	mod	mod	low	nt	ms	nh/0170_nh.bmp
588.24	0.72	808	5	8	17	per	lib	mod	mod	mod	tg	ht	wh/0764.bmp
588.96	0.72	809	6	err	err	err	err	err	err	err	err	err	wh/0164.bmp
589.68	0.72	810	6	5	115	mem	lib	mod	mod	low	tg	ht	wh/0939.bmp
590.40	0.72	811	5	5	67	mem	con	mod	mod	mod	tg	ht	wh/0915.bmp
591.12	0.72	812	6	err	err	err	err	err	err	err	err	err	wh/0060.bmp
591.84	0.72	813	6	err	err	err	err	err	err	err	err	err	wh/0734.bmp
592.56	0.72	814	6	7	96	mem	con	mod	mod	low	tg	ht	wh/0618.bmp
593.28	0.72	815	6	8	103	mem	lib	mod	mod	low	tg	ht	wh/0064.bmp
594.00	0.72	816	5	7	48	mem	lib	mod	mod	mod	tg	ht	wh/0366.bmp
594.72	0.72	817	6	5	67	mem	con	mod	mod	mod	tg	ht	wh/0915.bmp
595.44	0.72	818	6	5	113	mem	lib	mod	mod	low	tg	ht	wh/0848.bmp
596.16	0.72	819	6	8	31	per	lib	mod	mod	mod	nt	cr	nh/0602_nh.bmp
596.88	0.72	820	6	7	75	per	con	mod	mod	mod	nt	cr	nh/0833_nh.bmp
597.60	0.72	821	6	6	5	per	lib	low	mod	low	nt	fa	nh/0157_nh.bmp
598.32	0.72	822	6	5	79	mem	con	mod	mod	mod	nt	ms	nh/0666_nh.bmp
599.04	0.72	823	4	err	err	err	err	err	err	err	err	err	wh/0300.bmp
599.76	0.72	824	6	8	32	per	lib	mod	mod	mod	nt	fa	nh/0609_nh.bmp
600.48	0.72	825	6	err	err	err	err	err	err	err	err	err	wh/0647.bmp
601.20	0.72	826	5	6	55	per	con	mod	mod	mod	tg	ms	wh/0086.bmp
601.92	0.72	827	6	8	89	per	con	low	mod	low	tg	ms	wh/0875.bmp
602.64	0.72	828	5	8	96	per	con	low	mod	low	nt	cr	nh/0582_nh.bmp
603.36	0.72	829	6	8	96	per	con	low	mod	low	nt	cr	nh/0582_nh.bmp
604.08	0.72	830	5	6	62	per	con	mod	mod	mod	tg	ht	wh/0318.bmp
604.80	0.72	831	5	8	114	mem	con	mod	mod	mod	tg	ms	wh/0020.bmp
605.52	0.72	832	6	8	123	mem	con	mod	mod	mod	nt	ms	nh/0694_nh.bmp
606.24	0.72	833	6	7	34	mem	lib	mod	mod	mod	tg	ms	wh/0179.bmp
606.96	0.72	834	5	err	err	err	err	err	err	err	err	err	wh/0300.bmp
607.68	0.72	835	6	err	err	err	err	err	err	err	err	err	wh/0176.bmp
608.40	0.72	836	6	8	121	mem	con	mod	mod	mod	nt	ms	nh/0603_nh.bmp
609.12	0.72	837	5	err	err	err	err	err	err	err	err	err	nh/0686_nh.bmp
609.84	0.72	838	5	7	45	mem	lib	mod	mod	mod	nt	ht	nh/0549_nh.bmp
610.56	0.72	839	6	6	4	per	lib	low	mod	low	nt	cr	nh/0297_nh.bmp
611.28	0.72	840	6	7	68	per	con	mod	mod	mod	nt	cr	nh/0797_nh.bmp
612.00	0.72	841	6	5	127	mem	lib	mod	mod	low	tg	ms	wh/0255.bmp
612.72	0.72	842	6	7	60	per	lib	low	mod	low	nt	cr	nh/0118_nh.bmp
613.44	0.72	843	5	5	76	mem	con	mod	mod	mod	tg	ms	wh/0590.bmp
614.16	0.72	844	6	5	76	mem	con	mod	mod	mod	tg	ms	wh/0590.bmp
614.88	0.72	845	6	err	err	err	err	err	err	err	err	err	wh/0300.bmp
615.60	0.72	846	6	8	107	mem	lib	mod	mod	low	nt	ht	nh/0139_nh.bmp
616.32	0.72	847	6	6	9	per	lib	low	mod	low	tg	ms	wh/0519.bmp
617.04	0.72	848	6	8	18	per	lib	mod	mod	mod	tg	ht	wh/0715.bmp
617.76	0.72	849	6	7	90	mem	con	mod	mod	low	nt	ms	nh/0986_nh.bmp
618.48	0.72	850	5	7	42	mem	lib	mod	mod	mod	nt	ht	nh/0436_nh.bmp
619.20	0.72	851	6	5	126	mem	lib	mod	mod	low	tg	ht	wh/0042.bmp
619.92	0.72	852	6	err	err	err	err	err	err	err	err	err	nh/0420_nh.bmp
620.64	0.72	853	6	err	err	err	err	err	err	err	err	err	nh/0546_nh.bmp
621.36	0.72	854	6	8	125	mem	con	mod	mod	mod	tg	ht	wh/0717.bmp
622.08	0.72	855	6	8	114	mem	con	mod	mod	mod	tg	ms	wh/0020.bmp
622.80	0.72	856	5	err	err	err	err	err	err	err	err	err	wh/0294.bmp
623.52	0.72	857	6	6	62	per	con	mod	mod	mod	tg	ht	wh/0318.bmp
624.24	0.72	858	6	7	48	mem	lib	mod	mod	mod	tg	ht	wh/0366.bmp
624.96	0.72	859	6	err	err	err	err	err	err	err	err	err	nh/0544_nh.bmp
625.68	0.72	860	6	err	err	err	err	err	err	err	err	err	nh/0686_nh.bmp
626.40	0.72	861	5	7	66	per	con	mod	mod	mod	tg	ht	wh/0337.bmp
627.12	0.72	862	6	err	err	err	err	err	err	err	err	err	wh/0294.bmp
627.84	0.72	863	6	6	51	per	con	mod	mod	mod	nt	cr	nh/0735_nh.bmp
628.56	0.72	864	1	6	42	mem	con	low	low	mod	tg	ms	wh/0373.bmp
629.28	0.72	865	4	5	69	mem	con	mod	mod	mod	tg	ms	wh/0968.bmp
630.00	0.72	866	6	7	42	mem	lib	mod	mod	mod	nt	ht	nh/0436_nh.bmp
630.72	0.72	867	5	err	err	err	err	err	err	err	err	err	wh/0832.bmp
631.44	0.72	868	6	8	119	mem	con	mod	mod	mod	nt	ht	nh/0556_nh.bmp
632.16	0.72	869	6	7	61	per	lib	low	mod	low	tg	ht	wh/0374.bmp
632.88	0.72	870	5	5	69	mem	con	mod	mod	mod	tg	ms	wh/0968.bmp
633.60	0.72	871	6	err	err	err	err	err	err	err	err	err	nh/0756_nh.bmp
634.32	0.72	872	6	err	err	err	err	err	err	err	err	err	wh/0114.bmp
635.04	0.72	873	5	err	err	err	err	err	err	err	err	err	nh/0249_nh.bmp
635.76	0.72	874	6	err	err	err	err	err	err	err	err	err	nh/0763_nh.bmp
636.48	0.72	875	1	8	78	mem	con	low	low	low	nt	ms	nh/0240_nh.bmp
637.20	0.72	876	1	7	102	per	con	low	low	low	tg	ms	wh/0135.bmp
637.92	0.72	877	6	8	87	per	con	low	mod	low	nt	cr	nh/0073_nh.bmp
638.64	0.72	878	6	err	err	err	err	err	err	err	err	err	nh/0978_nh.bmp
639.36	0.72	879	6	8	19	per	lib	mod	mod	mod	nt	cr	nh/0269_nh.bmp
640.08	0.72	880	6	6	58	per	con	mod	mod	mod	nt	cr	nh/0778_nh.bmp
640.80	0.72	881	1	6	45	mem	con	low	low	mod	tg	ms	wh/0980.bmp
641.52	0.72	882	6	err	err	err	err	err	err	err	err	err	wh/0814.bmp
642.24	0.72	883	6	6	3	per	lib	low	mod	low	tg	ht	wh/0024.bmp
642.96	0.72	884	6	7	45	mem	lib	mod	mod	mod	nt	ht	nh/0549_nh.bmp
643.68	0.72	885	6	5	69	mem	con	mod	mod	mod	tg	ms	wh/0968.bmp
644.40	0.72	886	6	7	66	per	con	mod	mod	mod	tg	ht	wh/0337.bmp
645.12	0.72	887	1	6	30	mem	lib	low	low	mod	tg	ht	wh/0227.bmp
645.84	0.72	888	1	7	12	per	lib	mod	low	mod	tg	ms	wh/0389.bmp
646.56	0.72	889	6	err	err	err	err	err	err	err	err	err	nh/0249_nh.bmp
647.28	0.72	890	1	8	60	per	lib	low	low	low	nt	fa	nh/0617_nh.bmp
648.00	0.72	891	1	5	108	per	lib	mod	low	mod	tg	ht	wh/0663.bmp
648.72	0.72	892	6	7	56	per	lib	low	mod	low	tg	ht	wh/0193.bmp
649.44	0.72	893	6	6	55	per	con	mod	mod	mod	tg	ms	wh/0086.bmp
650.16	0.72	894	6	8	17	per	lib	mod	mod	mod	tg	ht	wh/0764.bmp
650.88	0.72	895	6	6	57	per	con	mod	mod	mod	nt	cr	nh/0385_nh.bmp
651.60	0.72	896	6	err	err	err	err	err	err	err	err	err	wh/0832.bmp
