onset	duration	trial	pres	ts_blk	ts_trl	task	crit	disc	mem_disc	per_disc	per_type	accuracy	stim_file
7.20	0.72	1	1	7	120	mem	con	mod	mod	mod	nt	ms	nh/0542_nh.bmp
7.92	0.72	2	1	6	75	mem	lib	mod	mod	low	tg	ht	wh/0345.bmp
8.64	0.72	3	1	8	96	mem	lib	mod	mod	low	nt	ms	nh/0351_nh.bmp
9.36	0.72	4	1	5	122	per	lib	mod	mod	mod	nt	cr	nh/0462_nh.bmp
10.08	0.72	5	1	7	126	mem	con	mod	mod	mod	nt	ht	nh/0594_nh.bmp
10.80	0.72	6	1	7	26	mem	lib	mod	mod	mod	nt	ht	nh/0319_nh.bmp
11.52	0.72	7	1	6	104	per	con	mod	mod	mod	tg	ht	wh/0946.bmp
12.24	0.72	8	1	8	8	per	con	low	mod	low	nt	cr	nh/0082_nh.bmp
12.96	0.72	9	1	7	29	mem	lib	mod	mod	mod	nt	n/a	nh/0187_nh.bmp
13.68	0.72	10	1	8	25	per	lib	low	mod	low	nt	cr	nh/0190_nh.bmp
14.40	0.72	11	1	7	83	per	con	mod	mod	mod	nt	cr	nh/0591_nh.bmp
15.12	0.72	12	1	6	19	per	lib	low	mod	low	nt	cr	nh/0029_nh.bmp
15.84	0.72	13	1	7	128	mem	con	mod	mod	mod	tg	ms	wh/0714.bmp
16.56	0.72	14	1	5	109	mem	con	mod	mod	low	nt	ht	nh/0036_nh.bmp
17.28	0.72	15	2	6	75	mem	lib	mod	mod	low	tg	ht	wh/0345.bmp
18.00	0.72	16	1	6	105	per	con	mod	mod	mod	tg	ht	wh/0962.bmp
18.72	0.72	17	1	6	54	per	con	low	mod	low	tg	ms	wh/0417.bmp
19.44	0.72	18	1	8	30	per	lib	low	mod	low	tg	ms	wh/0238.bmp
20.16	0.72	19	1	6	99	per	con	mod	mod	mod	nt	cr	nh/0339_nh.bmp
20.88	0.72	20	1	8	94	mem	lib	mod	mod	low	nt	ht	nh/0758_nh.bmp
21.60	0.72	21	1	8	15	per	con	low	mod	low	nt	cr	nh/0964_nh.bmp
22.32	0.72	22	1	7	104	per	con	low	low	low	nt	cr	nh/0266_nh.bmp
23.04	0.72	23	1	6	25	per	lib	low	mod	low	nt	cr	nh/0489_nh.bmp
23.76	0.72	24	1	6	101	per	con	mod	mod	mod	tg	ms	wh/0957.bmp
24.48	0.72	25	2	6	104	per	con	mod	mod	mod	tg	ht	wh/0946.bmp
25.20	0.72	26	1	8	10	per	con	low	mod	low	nt	cr	nh/0635_nh.bmp
25.92	0.72	27	3	6	75	mem	lib	mod	mod	low	tg	ht	wh/0345.bmp
26.64	0.72	28	2	7	120	mem	con	mod	mod	mod	nt	ms	nh/0542_nh.bmp
27.36	0.72	29	1	7	125	mem	con	mod	mod	mod	tg	ms	wh/0196.bmp
28.08	0.72	30	1	7	95	per	con	mod	mod	mod	tg	ht	wh/0684.bmp
28.80	0.72	31	1	5	66	mem	lib	mod	mod	mod	nt	ms	nh/0650_nh.bmp
29.52	0.72	32	2	8	10	per	con	low	mod	low	nt	cr	nh/0635_nh.bmp
30.24	0.72	33	1	6	70	mem	lib	mod	mod	low	nt	ms	nh/0299_nh.bmp
30.96	0.72	34	2	8	94	mem	lib	mod	mod	low	nt	ht	nh/0758_nh.bmp
31.68	0.72	35	1	7	96	per	con	mod	mod	mod	tg	ht	wh/0442.bmp
32.40	0.72	36	2	7	29	mem	lib	mod	mod	mod	nt	n/a	nh/0187_nh.bmp
33.12	0.72	37	1	5	10	per	con	low	low	low	tg	ms	wh/0528.bmp
33.84	0.72	38	1	7	51	per	lib	low	low	low	tg	ht	wh/0146.bmp
34.56	0.72	39	1	8	18	per	lib	low	mod	low	tg	ms	wh/0383.bmp
35.28	0.72	40	1	7	13	per	lib	mod	mod	mod	tg	ht	wh/0843.bmp
36.00	0.72	41	1	5	110	mem	con	mod	mod	low	tg	ms	wh/0690.bmp
36.72	0.72	42	2	7	126	mem	con	mod	mod	mod	nt	ht	nh/0594_nh.bmp
37.44	0.72	43	1	6	57	per	con	low	mod	low	nt	cr	nh/0451_nh.bmp
38.16	0.72	44	1	5	102	mem	con	mod	mod	low	nt	ms	nh/0818_nh.bmp
38.88	0.72	45	1	6	122	mem	con	mod	mod	mod	tg	ms	wh/0928.bmp
39.60	0.72	46	1	7	127	mem	con	mod	mod	mod	nt	ht	nh/0543_nh.bmp
40.32	0.72	47	1	5	112	mem	con	mod	mod	low	tg	ht	wh/0443.bmp
41.04	0.72	48	1	8	79	mem	lib	low	low	mod	tg	ht	wh/0520.bmp
41.76	0.72	49	2	5	109	mem	con	mod	mod	low	nt	ht	nh/0036_nh.bmp
42.48	0.72	50	1	5	98	mem	con	mod	mod	low	nt	ms	nh/0077_nh.bmp
43.20	0.72	51	1	7	66	mem	con	low	low	mod	tg	ms	wh/0572.bmp
43.92	0.72	52	3	6	104	per	con	mod	mod	mod	tg	ht	wh/0946.bmp
44.64	0.72	53	1	8	62	mem	con	mod	mod	low	nt	ht	nh/0940_nh.bmp
45.36	0.72	54	1	6	49	per	con	low	mod	low	nt	cr	nh/0150_nh.bmp
46.08	0.72	55	2	7	26	mem	lib	mod	mod	mod	nt	ht	nh/0319_nh.bmp
46.80	0.72	56	2	7	96	per	con	mod	mod	mod	tg	ht	wh/0442.bmp
47.52	0.72	57	1	8	93	mem	lib	mod	mod	low	tg	ms	wh/0355.bmp
48.24	0.72	58	1	6	60	per	con	low	mod	low	tg	ht	wh/0613.bmp
48.96	0.72	59	2	8	15	per	con	low	mod	low	nt	cr	nh/0964_nh.bmp
49.68	0.72	60	1	7	42	mem	lib	low	low	low	nt	ht	nh/0998_nh.bmp
50.40	0.72	61	3	7	126	mem	con	mod	mod	mod	nt	ht	nh/0594_nh.bmp
51.12	0.72	62	1	6	73	mem	lib	mod	mod	low	tg	ht	wh/0338.bmp
51.84	0.72	63	2	7	95	per	con	mod	mod	mod	tg	ht	wh/0684.bmp
52.56	0.72	64	2	6	70	mem	lib	mod	mod	low	nt	ms	nh/0299_nh.bmp
53.28	0.72	65	1	6	43	mem	con	low	low	low	tg	ht	wh/0292.bmp
54.00	0.72	66	1	8	2	per	con	low	mod	low	tg	ht	wh/1023.bmp
54.72	0.72	67	2	6	49	per	con	low	mod	low	nt	cr	nh/0150_nh.bmp
55.44	0.72	68	3	7	120	mem	con	mod	mod	mod	nt	ms	nh/0542_nh.bmp
56.16	0.72	69	2	7	13	per	lib	mod	mod	mod	tg	ht	wh/0843.bmp
56.88	0.72	70	1	7	6	per	lib	mod	mod	mod	tg	ht	wh/0396.bmp
57.60	0.72	71	1	6	117	mem	con	mod	mod	mod	tg	ms	wh/0371.bmp
58.32	0.72	72	1	8	58	mem	con	mod	mod	low	tg	ms	wh/0963.bmp
59.04	0.72	73	1	5	114	per	lib	mod	mod	mod	nt	cr	nh/0947_nh.bmp
59.76	0.72	74	1	8	61	mem	con	mod	mod	low	tg	n/a	wh/0035.bmp
60.48	0.72	75	1	6	77	mem	lib	mod	mod	low	nt	ms	nh/0284_nh.bmp
61.20	0.72	76	1	6	4	mem	lib	low	low	low	nt	ms	nh/0845_nh.bmp
61.92	0.72	77	1	6	111	per	con	mod	mod	mod	nt	cr	nh/0558_nh.bmp
62.64	0.72	78	2	8	30	per	lib	low	mod	low	tg	ms	wh/0238.bmp
63.36	0.72	79	1	6	125	mem	con	mod	mod	mod	tg	ht	wh/0803.bmp
64.08	0.72	80	1	7	35	mem	lib	low	low	low	nt	ms	nh/0633_nh.bmp
64.80	0.72	81	1	5	18	per	con	mod	low	mod	tg	ht	wh/0048.bmp
65.52	0.72	82	2	6	117	mem	con	mod	mod	mod	tg	ms	wh/0371.bmp
66.24	0.72	83	3	8	30	per	lib	low	mod	low	tg	ms	wh/0238.bmp
66.96	0.72	84	2	6	77	mem	lib	mod	mod	low	nt	ms	nh/0284_nh.bmp
67.68	0.72	85	2	6	54	per	con	low	mod	low	tg	ms	wh/0417.bmp
68.40	0.72	86	1	6	30	per	lib	low	mod	low	tg	ms	wh/0568.bmp
69.12	0.72	87	1	7	85	per	con	mod	mod	mod	tg	ms	wh/0380.bmp
69.84	0.72	88	3	7	13	per	lib	mod	mod	mod	tg	ht	wh/0843.bmp
70.56	0.72	89	1	5	9	per	con	low	low	low	nt	cr	nh/0999_nh.bmp
71.28	0.72	90	1	8	85	mem	lib	mod	mod	low	tg	ht	wh/0744.bmp
72.00	0.72	91	2	8	2	per	con	low	mod	low	tg	ht	wh/1023.bmp
72.72	0.72	92	1	6	64	per	con	low	mod	low	tg	ms	wh/0153.bmp
73.44	0.72	93	1	6	46	mem	con	low	low	low	nt	ms	nh/0197_nh.bmp
74.16	0.72	94	1	6	80	mem	lib	mod	mod	low	nt	ms	nh/0329_nh.bmp
74.88	0.72	95	1	7	93	per	con	mod	mod	mod	nt	cr	nh/0328_nh.bmp
75.60	0.72	96	1	6	67	mem	lib	mod	mod	low	nt	ht	nh/0382_nh.bmp
76.32	0.72	97	1	7	3	per	lib	mod	mod	mod	nt	cr	nh/0954_nh.bmp
77.04	0.72	98	1	8	6	per	con	low	mod	low	nt	cr	nh/0608_nh.bmp
77.76	0.72	99	1	6	2	mem	lib	low	low	low	tg	ht	wh/0055.bmp
78.48	0.72	100	3	7	29	mem	lib	mod	mod	mod	nt	n/a	nh/0187_nh.bmp
79.20	0.72	101	1	5	70	mem	lib	mod	mod	mod	nt	ht	nh/0904_nh.bmp
79.92	0.72	102	2	7	125	mem	con	mod	mod	mod	tg	ms	wh/0196.bmp
80.64	0.72	103	2	7	85	per	con	mod	mod	mod	tg	ms	wh/0380.bmp
81.36	0.72	104	1	5	67	mem	lib	mod	mod	mod	tg	ms	wh/0805.bmp
82.08	0.72	105	1	6	23	per	lib	low	mod	low	nt	cr	nh/0893_nh.bmp
82.80	0.72	106	1	6	116	mem	con	mod	mod	mod	tg	ht	wh/0909.bmp
83.52	0.72	107	2	6	30	per	lib	low	mod	low	tg	ms	wh/0568.bmp
84.24	0.72	108	2	6	125	mem	con	mod	mod	mod	tg	ht	wh/0803.bmp
84.96	0.72	109	1	5	100	mem	con	mod	mod	low	nt	ms	nh/0232_nh.bmp
85.68	0.72	110	1	6	92	per	lib	mod	low	mod	nt	cr	nh/0290_nh.bmp
86.40	0.72	111	4	7	120	mem	con	mod	mod	mod	nt	ms	nh/0542_nh.bmp
87.12	0.72	112	1	8	90	mem	lib	mod	mod	low	nt	ms	nh/0364_nh.bmp
87.84	0.72	113	3	6	30	per	lib	low	mod	low	tg	ms	wh/0568.bmp
88.56	0.72	114	3	6	117	mem	con	mod	mod	mod	tg	ms	wh/0371.bmp
89.28	0.72	115	1	5	69	mem	lib	mod	mod	mod	tg	ht	wh/0273.bmp
90.00	0.72	116	1	6	65	mem	lib	mod	mod	low	tg	ht	wh/0510.bmp
90.72	0.72	117	1	7	21	mem	lib	mod	mod	mod	nt	ht	nh/0094_nh.bmp
91.44	0.72	118	2	7	3	per	lib	mod	mod	mod	nt	cr	nh/0954_nh.bmp
92.16	0.72	119	1	6	13	mem	lib	low	low	low	tg	ht	wh/0261.bmp
92.88	0.72	120	1	7	19	mem	lib	mod	mod	mod	tg	ms	wh/0222.bmp
93.60	0.72	121	1	8	22	per	lib	low	mod	low	tg	ht	wh/0125.bmp
94.32	0.72	122	3	7	3	per	lib	mod	mod	mod	nt	cr	nh/0954_nh.bmp
95.04	0.72	123	2	6	25	per	lib	low	mod	low	nt	cr	nh/0489_nh.bmp
95.76	0.72	124	2	6	23	per	lib	low	mod	low	nt	cr	nh/0893_nh.bmp
96.48	0.72	125	2	8	22	per	lib	low	mod	low	tg	ht	wh/0125.bmp
97.20	0.72	126	2	7	21	mem	lib	mod	mod	mod	nt	ht	nh/0094_nh.bmp
97.92	0.72	127	2	6	67	mem	lib	mod	mod	low	nt	ht	nh/0382_nh.bmp
98.64	0.72	128	1	7	86	per	con	mod	mod	mod	nt	cr	nh/0398_nh.bmp
99.36	0.72	129	1	5	124	per	lib	mod	mod	mod	nt	cr	nh/0973_nh.bmp
100.08	0.72	130	2	5	124	per	lib	mod	mod	mod	nt	cr	nh/0973_nh.bmp
100.80	0.72	131	3	8	10	per	con	low	mod	low	nt	cr	nh/0635_nh.bmp
101.52	0.72	132	1	5	59	mem	lib	low	low	mod	nt	ht	nh/0860_nh.bmp
102.24	0.72	133	2	6	19	per	lib	low	mod	low	nt	cr	nh/0029_nh.bmp
102.96	0.72	134	1	5	117	per	lib	mod	mod	mod	tg	ht	wh/0784.bmp
103.68	0.72	135	1	6	103	per	con	mod	mod	mod	nt	cr	nh/0593_nh.bmp
104.40	0.72	136	1	8	87	mem	lib	mod	mod	low	tg	ht	wh/0730.bmp
105.12	0.72	137	3	8	15	per	con	low	mod	low	nt	cr	nh/0964_nh.bmp
105.84	0.72	138	2	6	80	mem	lib	mod	mod	low	nt	ms	nh/0329_nh.bmp
106.56	0.72	139	4	7	13	per	lib	mod	mod	mod	tg	ht	wh/0843.bmp
107.28	0.72	140	2	6	101	per	con	mod	mod	mod	tg	ms	wh/0957.bmp
108.00	0.72	141	2	5	114	per	lib	mod	mod	mod	nt	cr	nh/0947_nh.bmp
108.72	0.72	142	2	5	102	mem	con	mod	mod	low	nt	ms	nh/0818_nh.bmp
109.44	0.72	143	2	7	86	per	con	mod	mod	mod	nt	cr	nh/0398_nh.bmp
110.16	0.72	144	2	8	90	mem	lib	mod	mod	low	nt	ms	nh/0364_nh.bmp
110.88	0.72	145	2	5	70	mem	lib	mod	mod	mod	nt	ht	nh/0904_nh.bmp
111.60	0.72	146	2	6	116	mem	con	mod	mod	mod	tg	ht	wh/0909.bmp
112.32	0.72	147	2	7	127	mem	con	mod	mod	mod	nt	ht	nh/0543_nh.bmp
113.04	0.72	148	1	6	66	mem	lib	mod	mod	low	tg	ms	wh/0134.bmp
113.76	0.72	149	1	8	24	per	lib	low	mod	low	nt	cr	nh/0967_nh.bmp
114.48	0.72	150	1	7	89	per	con	mod	mod	mod	nt	cr	nh/0902_nh.bmp
115.20	0.72	151	3	7	86	per	con	mod	mod	mod	nt	cr	nh/0398_nh.bmp
115.92	0.72	152	1	6	9	mem	lib	low	low	low	nt	ht	nh/0458_nh.bmp
116.64	0.72	153	1	7	4	per	lib	mod	mod	mod	nt	cr	nh/0697_nh.bmp
117.36	0.72	154	1	6	21	per	lib	low	mod	low	tg	ms	wh/0577.bmp
118.08	0.72	155	1	6	31	per	lib	low	mod	low	nt	cr	nh/0619_nh.bmp
118.80	0.72	156	4	7	29	mem	lib	mod	mod	mod	nt	n/a	nh/0187_nh.bmp
119.52	0.72	157	5	7	120	mem	con	mod	mod	mod	nt	ms	nh/0542_nh.bmp
120.24	0.72	158	1	6	52	per	con	low	mod	low	tg	ms	wh/0802.bmp
120.96	0.72	159	2	7	128	mem	con	mod	mod	mod	tg	ms	wh/0714.bmp
121.68	0.72	160	3	5	70	mem	lib	mod	mod	mod	nt	ht	nh/0904_nh.bmp
122.40	0.72	161	2	8	8	per	con	low	mod	low	nt	cr	nh/0082_nh.bmp
123.12	0.72	162	3	6	70	mem	lib	mod	mod	low	nt	ms	nh/0299_nh.bmp
123.84	0.72	163	4	6	104	per	con	mod	mod	mod	tg	ht	wh/0946.bmp
124.56	0.72	164	1	5	19	per	con	mod	low	mod	tg	ht	wh/0992.bmp
125.28	0.72	165	2	6	122	mem	con	mod	mod	mod	tg	ms	wh/0928.bmp
126.00	0.72	166	4	7	86	per	con	mod	mod	mod	nt	cr	nh/0398_nh.bmp
126.72	0.72	167	1	7	71	mem	con	low	low	mod	nt	ms	nh/0025_nh.bmp
127.44	0.72	168	2	5	112	mem	con	mod	mod	low	tg	ht	wh/0443.bmp
128.16	0.72	169	2	7	93	per	con	mod	mod	mod	nt	cr	nh/0328_nh.bmp
128.88	0.72	170	2	5	110	mem	con	mod	mod	low	tg	ms	wh/0690.bmp
129.60	0.72	171	1	8	41	mem	con	low	low	low	nt	ms	nh/0460_nh.bmp
130.32	0.72	172	1	7	105	per	con	low	low	low	tg	ms	wh/0536.bmp
131.04	0.72	173	3	7	26	mem	lib	mod	mod	mod	nt	ht	nh/0319_nh.bmp
131.76	0.72	174	1	8	57	mem	con	mod	mod	low	nt	ht	nh/0646_nh.bmp
132.48	0.72	175	1	6	123	mem	con	mod	mod	mod	nt	ms	nh/0807_nh.bmp
133.20	0.72	176	3	5	112	mem	con	mod	mod	low	tg	ht	wh/0443.bmp
133.92	0.72	177	3	8	22	per	lib	low	mod	low	tg	ht	wh/0125.bmp
134.64	0.72	178	1	7	22	mem	lib	mod	mod	mod	nt	ht	nh/0855_nh.bmp
135.36	0.72	179	1	6	3	mem	lib	low	low	low	nt	ms	nh/0706_nh.bmp
136.08	0.72	180	2	6	52	per	con	low	mod	low	tg	ms	wh/0802.bmp
136.80	0.72	181	2	8	25	per	lib	low	mod	low	nt	cr	nh/0190_nh.bmp
137.52	0.72	182	1	6	39	mem	con	low	low	low	nt	ms	nh/0711_nh.bmp
138.24	0.72	183	3	5	102	mem	con	mod	mod	low	nt	ms	nh/0818_nh.bmp
138.96	0.72	184	1	7	25	mem	lib	mod	mod	mod	tg	ms	wh/0941.bmp
139.68	0.72	185	1	8	54	mem	con	mod	mod	low	tg	ms	wh/0194.bmp
140.40	0.72	186	2	6	103	per	con	mod	mod	mod	nt	cr	nh/0593_nh.bmp
141.12	0.72	187	3	6	77	mem	lib	mod	mod	low	nt	ms	nh/0284_nh.bmp
141.84	0.72	188	1	7	18	mem	lib	mod	mod	mod	tg	ht	wh/0874.bmp
142.56	0.72	189	3	7	96	per	con	mod	mod	mod	tg	ht	wh/0442.bmp
143.28	0.72	190	1	8	11	per	con	low	mod	low	tg	ms	wh/0493.bmp
144.00	0.72	191	1	8	52	mem	con	mod	mod	low	nt	ht	nh/0032_nh.bmp
144.72	0.72	192	1	6	55	per	con	low	mod	low	nt	fa	nh/0079_nh.bmp
145.44	0.72	193	1	7	34	mem	lib	low	low	low	nt	ht	nh/0823_nh.bmp
146.16	0.72	194	1	8	21	per	lib	low	mod	low	nt	cr	nh/0074_nh.bmp
146.88	0.72	195	3	6	67	mem	lib	mod	mod	low	nt	ht	nh/0382_nh.bmp
147.60	0.72	196	2	5	122	per	lib	mod	mod	mod	nt	cr	nh/0462_nh.bmp
148.32	0.72	197	1	5	44	mem	con	low	low	mod	nt	ms	nh/0781_nh.bmp
149.04	0.72	198	1	8	34	mem	con	low	low	low	tg	ht	wh/0437.bmp
149.76	0.72	199	4	8	10	per	con	low	mod	low	nt	cr	nh/0635_nh.bmp
150.48	0.72	200	1	6	109	per	con	mod	mod	mod	tg	ht	wh/0748.bmp
151.20	0.72	201	1	6	26	per	lib	low	mod	low	tg	ht	wh/0503.bmp
151.92	0.72	202	2	7	4	per	lib	mod	mod	mod	nt	cr	nh/0697_nh.bmp
152.64	0.72	203	2	5	66	mem	lib	mod	mod	mod	nt	ms	nh/0650_nh.bmp
153.36	0.72	204	2	8	52	mem	con	mod	mod	low	nt	ht	nh/0032_nh.bmp
154.08	0.72	205	3	7	127	mem	con	mod	mod	mod	nt	ht	nh/0543_nh.bmp
154.80	0.72	206	1	8	31	per	lib	low	mod	low	tg	ht	wh/0465.bmp
155.52	0.72	207	2	6	123	mem	con	mod	mod	mod	nt	ms	nh/0807_nh.bmp
156.24	0.72	208	2	5	117	per	lib	mod	mod	mod	tg	ht	wh/0784.bmp
156.96	0.72	209	1	5	35	mem	con	low	low	mod	nt	ms	nh/1018_nh.bmp
157.68	0.72	210	3	5	114	per	lib	mod	mod	mod	nt	cr	nh/0947_nh.bmp
158.40	0.72	211	4	6	75	mem	lib	mod	mod	low	tg	ht	wh/0345.bmp
159.12	0.72	212	1	7	81	per	con	mod	mod	mod	tg	ms	wh/0795.bmp
159.84	0.72	213	1	5	31	per	con	mod	low	mod	tg	ht	wh/0216.bmp
160.56	0.72	214	1	5	85	per	lib	low	low	low	tg	ht	wh/0701.bmp
161.28	0.72	215	4	7	96	per	con	mod	mod	mod	tg	ht	wh/0442.bmp
162.00	0.72	216	1	7	31	mem	lib	mod	mod	mod	tg	ht	wh/0199.bmp
162.72	0.72	217	3	6	52	per	con	low	mod	low	tg	ms	wh/0802.bmp
163.44	0.72	218	2	6	73	mem	lib	mod	mod	low	tg	ht	wh/0338.bmp
164.16	0.72	219	1	7	65	mem	con	low	low	mod	tg	ht	wh/0277.bmp
164.88	0.72	220	3	5	109	mem	con	mod	mod	low	nt	ht	nh/0036_nh.bmp
165.60	0.72	221	1	7	101	per	con	low	low	low	tg	ms	wh/0691.bmp
166.32	0.72	222	2	8	96	mem	lib	mod	mod	low	nt	ms	nh/0351_nh.bmp
167.04	0.72	223	1	8	45	mem	con	low	low	low	nt	ht	nh/0013_nh.bmp
167.76	0.72	224	1	5	13	per	con	low	low	low	tg	ms	wh/0488.bmp
168.48	0.72	225	4	6	117	mem	con	mod	mod	mod	tg	ms	wh/0371.bmp
169.20	0.72	226	1	6	114	mem	con	mod	mod	mod	nt	ht	nh/0772_nh.bmp
169.92	0.72	227	3	7	125	mem	con	mod	mod	mod	tg	ms	wh/0196.bmp
170.64	0.72	228	2	6	60	per	con	low	mod	low	tg	ht	wh/0613.bmp
171.36	0.72	229	1	5	126	per	lib	mod	mod	mod	tg	ms	wh/0447.bmp
172.08	0.72	230	2	6	26	per	lib	low	mod	low	tg	ht	wh/0503.bmp
172.80	0.72	231	1	5	57	mem	lib	low	low	mod	tg	ms	wh/0787.bmp
173.52	0.72	232	2	8	87	mem	lib	mod	mod	low	tg	ht	wh/0730.bmp
174.24	0.72	233	1	5	128	per	lib	mod	mod	mod	tg	ht	wh/0548.bmp
174.96	0.72	234	1	8	1	per	con	low	mod	low	tg	ms	wh/0934.bmp
175.68	0.72	235	3	6	49	per	con	low	mod	low	nt	cr	nh/0150_nh.bmp
176.40	0.72	236	3	6	122	mem	con	mod	mod	mod	tg	ms	wh/0928.bmp
177.12	0.72	237	2	8	93	mem	lib	mod	mod	low	tg	ms	wh/0355.bmp
177.84	0.72	238	2	6	111	per	con	mod	mod	mod	nt	cr	nh/0558_nh.bmp
178.56	0.72	239	4	6	49	per	con	low	mod	low	nt	cr	nh/0150_nh.bmp
179.28	0.72	240	1	7	12	per	lib	mod	mod	mod	nt	cr	nh/0876_nh.bmp
180.00	0.72	241	3	6	80	mem	lib	mod	mod	low	nt	ms	nh/0329_nh.bmp
180.72	0.72	242	1	5	111	mem	con	mod	mod	low	tg	ht	wh/0760.bmp
181.44	0.72	243	4	7	126	mem	con	mod	mod	mod	nt	ht	nh/0594_nh.bmp
182.16	0.72	244	3	7	128	mem	con	mod	mod	mod	tg	ms	wh/0714.bmp
182.88	0.72	245	1	8	116	per	con	mod	low	mod	nt	cr	nh/0096_nh.bmp
183.60	0.72	246	2	5	67	mem	lib	mod	mod	mod	tg	ms	wh/0805.bmp
184.32	0.72	247	3	6	54	per	con	low	mod	low	tg	ms	wh/0417.bmp
185.04	0.72	248	1	6	100	per	con	mod	mod	mod	nt	fa	nh/0350_nh.bmp
185.76	0.72	249	1	5	26	per	con	mod	low	mod	tg	ht	wh/0068.bmp
186.48	0.72	250	1	6	18	per	lib	low	mod	low	tg	ms	wh/0508.bmp
187.20	0.72	251	3	6	19	per	lib	low	mod	low	nt	cr	nh/0029_nh.bmp
187.92	0.72	252	2	6	18	per	lib	low	mod	low	tg	ms	wh/0508.bmp
188.64	0.72	253	1	7	47	mem	lib	low	low	low	tg	ht	wh/0812.bmp
189.36	0.72	254	3	8	87	mem	lib	mod	mod	low	tg	ht	wh/0730.bmp
190.08	0.72	255	1	7	121	mem	con	mod	mod	mod	tg	ht	wh/0099.bmp
190.80	0.72	256	4	8	87	mem	lib	mod	mod	low	tg	ht	wh/0730.bmp
191.52	0.72	257	2	7	6	per	lib	mod	mod	mod	tg	ht	wh/0396.bmp
192.24	0.72	258	1	7	117	mem	con	mod	mod	mod	tg	ht	wh/0446.bmp
192.96	0.72	259	4	5	109	mem	con	mod	mod	low	nt	ht	nh/0036_nh.bmp
193.68	0.72	260	1	8	125	per	con	mod	low	mod	nt	cr	nh/0426_nh.bmp
194.40	0.72	261	1	8	105	per	lib	mod	low	mod	tg	ht	wh/0652.bmp
195.12	0.72	262	2	7	117	mem	con	mod	mod	mod	tg	ht	wh/0446.bmp
195.84	0.72	263	1	5	77	mem	lib	mod	mod	mod	nt	ht	nh/0810_nh.bmp
196.56	0.72	264	1	8	88	mem	lib	mod	mod	low	tg	ms	wh/0404.bmp
197.28	0.72	265	4	6	77	mem	lib	mod	mod	low	nt	ms	nh/0284_nh.bmp
198.00	0.72	266	1	8	98	per	lib	mod	low	mod	nt	fa	nh/0933_nh.bmp
198.72	0.72	267	2	5	77	mem	lib	mod	mod	mod	nt	ht	nh/0810_nh.bmp
199.44	0.72	268	2	8	24	per	lib	low	mod	low	nt	cr	nh/0967_nh.bmp
200.16	0.72	269	2	7	22	mem	lib	mod	mod	mod	nt	ht	nh/0855_nh.bmp
200.88	0.72	270	5	6	77	mem	lib	mod	mod	low	nt	ms	nh/0284_nh.bmp
201.60	0.72	271	4	7	128	mem	con	mod	mod	mod	tg	ms	wh/0714.bmp
202.32	0.72	272	1	7	75	mem	con	low	low	mod	nt	ms	nh/0870_nh.bmp
203.04	0.72	273	3	6	103	per	con	mod	mod	mod	nt	cr	nh/0593_nh.bmp
203.76	0.72	274	5	6	75	mem	lib	mod	mod	low	tg	ht	wh/0345.bmp
204.48	0.72	275	2	5	126	per	lib	mod	mod	mod	tg	ms	wh/0447.bmp
205.20	0.72	276	3	6	25	per	lib	low	mod	low	nt	cr	nh/0489_nh.bmp
205.92	0.72	277	2	7	31	mem	lib	mod	mod	mod	tg	ht	wh/0199.bmp
206.64	0.72	278	2	8	62	mem	con	mod	mod	low	nt	ht	nh/0940_nh.bmp
207.36	0.72	279	4	7	3	per	lib	mod	mod	mod	nt	cr	nh/0954_nh.bmp
208.08	0.72	280	2	7	19	mem	lib	mod	mod	mod	tg	ms	wh/0222.bmp
208.80	0.72	281	5	7	96	per	con	mod	mod	mod	tg	ht	wh/0442.bmp
209.52	0.72	282	1	5	72	mem	lib	mod	mod	mod	tg	ht	wh/0428.bmp
210.24	0.72	283	2	5	69	mem	lib	mod	mod	mod	tg	ht	wh/0273.bmp
210.96	0.72	284	5	7	29	mem	lib	mod	mod	mod	nt	n/a	nh/0187_nh.bmp
211.68	0.72	285	1	8	47	mem	con	low	low	low	tg	ms	wh/0225.bmp
212.40	0.72	286	1	6	1	mem	lib	low	low	low	tg	ht	wh/0768.bmp
213.12	0.72	287	1	7	69	mem	con	low	low	mod	nt	ms	nh/0220_nh.bmp
213.84	0.72	288	2	8	61	mem	con	mod	mod	low	tg	n/a	wh/0035.bmp
214.56	0.72	289	3	5	69	mem	lib	mod	mod	mod	tg	ht	wh/0273.bmp
215.28	0.72	290	1	8	95	mem	lib	mod	mod	low	nt	ht	nh/0256_nh.bmp
216.00	0.72	291	3	8	61	mem	con	mod	mod	low	tg	n/a	wh/0035.bmp
216.72	0.72	292	1	7	60	per	lib	low	low	low	tg	ht	wh/0483.bmp
217.44	0.72	293	3	7	22	mem	lib	mod	mod	mod	nt	ht	nh/0855_nh.bmp
218.16	0.72	294	1	8	53	mem	con	mod	mod	low	tg	ms	wh/0660.bmp
218.88	0.72	295	2	7	121	mem	con	mod	mod	mod	tg	ht	wh/0099.bmp
219.60	0.72	296	2	6	57	per	con	low	mod	low	nt	cr	nh/0451_nh.bmp
220.32	0.72	297	1	5	107	mem	con	mod	mod	low	tg	ht	wh/0361.bmp
221.04	0.72	298	2	8	85	mem	lib	mod	mod	low	tg	ht	wh/0744.bmp
221.76	0.72	299	3	8	93	mem	lib	mod	mod	low	tg	ms	wh/0355.bmp
222.48	0.72	300	3	5	66	mem	lib	mod	mod	mod	nt	ms	nh/0650_nh.bmp
223.20	0.72	301	6	6	75	mem	lib	mod	mod	low	tg	ht	wh/0345.bmp
223.92	0.72	302	2	6	114	mem	con	mod	mod	mod	nt	ht	nh/0772_nh.bmp
224.64	0.72	303	2	6	21	per	lib	low	mod	low	tg	ms	wh/0577.bmp
225.36	0.72	304	1	5	119	per	lib	mod	mod	mod	tg	ht	wh/0563.bmp
226.08	0.72	305	2	8	57	mem	con	mod	mod	low	nt	ht	nh/0646_nh.bmp
226.80	0.72	306	3	6	60	per	con	low	mod	low	tg	ht	wh/0613.bmp
227.52	0.72	307	4	6	25	per	lib	low	mod	low	nt	cr	nh/0489_nh.bmp
228.24	0.72	308	4	5	112	mem	con	mod	mod	low	tg	ht	wh/0443.bmp
228.96	0.72	309	1	6	15	mem	lib	low	low	low	nt	ms	nh/0513_nh.bmp
229.68	0.72	310	2	6	66	mem	lib	mod	mod	low	tg	ms	wh/0134.bmp
230.40	0.72	311	2	8	54	mem	con	mod	mod	low	tg	ms	wh/0194.bmp
231.12	0.72	312	3	7	21	mem	lib	mod	mod	mod	nt	ht	nh/0094_nh.bmp
231.84	0.72	313	3	6	18	per	lib	low	mod	low	tg	ms	wh/0508.bmp
232.56	0.72	314	1	6	81	per	lib	mod	low	mod	tg	ht	wh/0782.bmp
233.28	0.72	315	1	7	78	mem	con	low	low	mod	nt	ms	nh/0699_nh.bmp
234.00	0.72	316	3	5	67	mem	lib	mod	mod	mod	tg	ms	wh/0805.bmp
234.72	0.72	317	1	5	68	mem	lib	mod	mod	mod	nt	ht	nh/0182_nh.bmp
235.44	0.72	318	4	6	122	mem	con	mod	mod	mod	tg	ms	wh/0928.bmp
236.16	0.72	319	4	6	30	per	lib	low	mod	low	tg	ms	wh/0568.bmp
236.88	0.72	320	4	7	22	mem	lib	mod	mod	mod	nt	ht	nh/0855_nh.bmp
237.60	0.72	321	5	6	30	per	lib	low	mod	low	tg	ms	wh/0568.bmp
238.32	0.72	322	1	6	61	per	con	low	mod	low	nt	cr	nh/0336_nh.bmp
239.04	0.72	323	3	7	93	per	con	mod	mod	mod	nt	cr	nh/0328_nh.bmp
239.76	0.72	324	3	7	4	per	lib	mod	mod	mod	nt	cr	nh/0697_nh.bmp
240.48	0.72	325	2	6	99	per	con	mod	mod	mod	nt	cr	nh/0339_nh.bmp
241.20	0.72	326	3	6	73	mem	lib	mod	mod	low	tg	ht	wh/0338.bmp
241.92	0.72	327	2	8	31	per	lib	low	mod	low	tg	ht	wh/0465.bmp
242.64	0.72	328	3	5	110	mem	con	mod	mod	low	tg	ms	wh/0690.bmp
243.36	0.72	329	1	7	39	mem	lib	low	low	low	tg	ht	wh/0956.bmp
244.08	0.72	330	3	8	57	mem	con	mod	mod	low	nt	ht	nh/0646_nh.bmp
244.80	0.72	331	5	6	25	per	lib	low	mod	low	nt	cr	nh/0489_nh.bmp
245.52	0.72	332	1	6	124	mem	con	mod	mod	mod	nt	ht	nh/0716_nh.bmp
246.24	0.72	333	3	6	125	mem	con	mod	mod	mod	tg	ht	wh/0803.bmp
246.96	0.72	334	3	6	123	mem	con	mod	mod	mod	nt	ms	nh/0807_nh.bmp
247.68	0.72	335	5	8	87	mem	lib	mod	mod	low	tg	ht	wh/0730.bmp
248.40	0.72	336	3	8	90	mem	lib	mod	mod	low	nt	ms	nh/0364_nh.bmp
249.12	0.72	337	3	6	23	per	lib	low	mod	low	nt	cr	nh/0893_nh.bmp
249.84	0.72	338	3	8	31	per	lib	low	mod	low	tg	ht	wh/0465.bmp
250.56	0.72	339	4	6	60	per	con	low	mod	low	tg	ht	wh/0613.bmp
251.28	0.72	340	4	6	67	mem	lib	mod	mod	low	nt	ht	nh/0382_nh.bmp
252.00	0.72	341	3	6	21	per	lib	low	mod	low	tg	ms	wh/0577.bmp
252.72	0.72	342	2	8	53	mem	con	mod	mod	low	tg	ms	wh/0660.bmp
253.44	0.72	343	1	6	90	per	lib	mod	low	mod	tg	ht	wh/0340.bmp
254.16	0.72	344	4	6	80	mem	lib	mod	mod	low	nt	ms	nh/0329_nh.bmp
254.88	0.72	345	5	7	22	mem	lib	mod	mod	mod	nt	ht	nh/0855_nh.bmp
255.60	0.72	346	3	8	25	per	lib	low	mod	low	nt	cr	nh/0190_nh.bmp
256.32	0.72	347	2	8	21	per	lib	low	mod	low	nt	cr	nh/0074_nh.bmp
257.04	0.72	348	2	5	107	mem	con	mod	mod	low	tg	ht	wh/0361.bmp
257.76	0.72	349	2	6	109	per	con	mod	mod	mod	tg	ht	wh/0748.bmp
258.48	0.72	350	4	7	21	mem	lib	mod	mod	mod	nt	ht	nh/0094_nh.bmp
259.20	0.72	351	3	6	116	mem	con	mod	mod	mod	tg	ht	wh/0909.bmp
259.92	0.72	352	2	5	128	per	lib	mod	mod	mod	tg	ht	wh/0548.bmp
260.64	0.72	353	1	7	77	mem	con	low	low	mod	tg	ms	wh/0267.bmp
261.36	0.72	354	1	5	15	per	con	low	low	low	nt	cr	nh/0112_nh.bmp
262.08	0.72	355	2	7	18	mem	lib	mod	mod	mod	tg	ht	wh/0874.bmp
262.80	0.72	356	6	6	77	mem	lib	mod	mod	low	nt	ms	nh/0284_nh.bmp
263.52	0.72	357	4	6	123	mem	con	mod	mod	mod	nt	ms	nh/0807_nh.bmp
264.24	0.72	358	5	7	3	per	lib	mod	mod	mod	nt	cr	nh/0954_nh.bmp
264.96	0.72	359	4	6	23	per	lib	low	mod	low	nt	cr	nh/0893_nh.bmp
265.68	0.72	360	1	5	42	mem	con	low	low	mod	nt	ht	nh/0736_nh.bmp
266.40	0.72	361	2	8	95	mem	lib	mod	mod	low	nt	ht	nh/0256_nh.bmp
267.12	0.72	362	3	6	57	per	con	low	mod	low	nt	cr	nh/0451_nh.bmp
267.84	0.72	363	2	7	83	per	con	mod	mod	mod	nt	cr	nh/0591_nh.bmp
268.56	0.72	364	2	5	68	mem	lib	mod	mod	mod	nt	ht	nh/0182_nh.bmp
269.28	0.72	365	2	6	61	per	con	low	mod	low	nt	cr	nh/0336_nh.bmp
270.00	0.72	366	1	5	50	mem	lib	low	low	mod	nt	n/a	nh/0581_nh.bmp
270.72	0.72	367	1	6	84	per	lib	mod	low	mod	nt	cr	nh/0059_nh.bmp
271.44	0.72	368	3	5	126	per	lib	mod	mod	mod	tg	ms	wh/0447.bmp
272.16	0.72	369	3	8	62	mem	con	mod	mod	low	nt	ht	nh/0940_nh.bmp
272.88	0.72	370	3	8	8	per	con	low	mod	low	nt	cr	nh/0082_nh.bmp
273.60	0.72	371	1	5	120	per	lib	mod	mod	mod	nt	cr	nh/0397_nh.bmp
274.32	0.72	372	2	5	111	mem	con	mod	mod	low	tg	ht	wh/0760.bmp
275.04	0.72	373	3	7	6	per	lib	mod	mod	mod	tg	ht	wh/0396.bmp
275.76	0.72	374	3	6	66	mem	lib	mod	mod	low	tg	ms	wh/0134.bmp
276.48	0.72	375	2	8	11	per	con	low	mod	low	tg	ms	wh/0493.bmp
277.20	0.72	376	1	5	73	mem	lib	mod	mod	mod	tg	ht	wh/0209.bmp
277.92	0.72	377	4	7	26	mem	lib	mod	mod	mod	nt	ht	nh/0319_nh.bmp
278.64	0.72	378	4	8	25	per	lib	low	mod	low	nt	cr	nh/0190_nh.bmp
279.36	0.72	379	6	7	3	per	lib	mod	mod	mod	nt	cr	nh/0954_nh.bmp
280.08	0.72	380	3	6	99	per	con	mod	mod	mod	nt	cr	nh/0339_nh.bmp
280.80	0.72	381	4	6	116	mem	con	mod	mod	mod	tg	ht	wh/0909.bmp
281.52	0.72	382	2	5	73	mem	lib	mod	mod	mod	tg	ht	wh/0209.bmp
282.24	0.72	383	1	8	104	per	lib	mod	low	mod	tg	ht	wh/0038.bmp
282.96	0.72	384	2	6	124	mem	con	mod	mod	mod	nt	ht	nh/0716_nh.bmp
283.68	0.72	385	4	6	66	mem	lib	mod	mod	low	tg	ms	wh/0134.bmp
284.40	0.72	386	3	5	122	per	lib	mod	mod	mod	nt	cr	nh/0462_nh.bmp
285.12	0.72	387	6	6	30	per	lib	low	mod	low	tg	ms	wh/0568.bmp
285.84	0.72	388	1	5	46	mem	con	low	low	mod	tg	ht	wh/0949.bmp
286.56	0.72	389	2	8	1	per	con	low	mod	low	tg	ms	wh/0934.bmp
287.28	0.72	390	4	5	67	mem	lib	mod	mod	mod	tg	ms	wh/0805.bmp
288.00	0.72	391	3	5	73	mem	lib	mod	mod	mod	tg	ht	wh/0209.bmp
288.72	0.72	392	1	6	121	mem	con	mod	mod	mod	nt	ms	nh/0540_nh.bmp
289.44	0.72	393	1	7	1	per	lib	mod	mod	mod	nt	cr	nh/0095_nh.bmp
290.16	0.72	394	3	8	21	per	lib	low	mod	low	nt	cr	nh/0074_nh.bmp
290.88	0.72	395	3	7	95	per	con	mod	mod	mod	tg	ht	wh/0684.bmp
291.60	0.72	396	4	8	31	per	lib	low	mod	low	tg	ht	wh/0465.bmp
292.32	0.72	397	2	7	12	per	lib	mod	mod	mod	nt	cr	nh/0876_nh.bmp
293.04	0.72	398	1	8	49	mem	con	mod	mod	low	nt	ms	nh/0080_nh.bmp
293.76	0.72	399	2	7	89	per	con	mod	mod	mod	nt	cr	nh/0902_nh.bmp
294.48	0.72	400	3	8	1	per	con	low	mod	low	tg	ms	wh/0934.bmp
295.20	0.72	401	3	5	77	mem	lib	mod	mod	mod	nt	ht	nh/0810_nh.bmp
295.92	0.72	402	3	5	111	mem	con	mod	mod	low	tg	ht	wh/0760.bmp
296.64	0.72	403	4	6	21	per	lib	low	mod	low	tg	ms	wh/0577.bmp
297.36	0.72	404	1	5	90	per	lib	low	low	low	tg	ht	wh/0370.bmp
298.08	0.72	405	2	5	119	per	lib	mod	mod	mod	tg	ht	wh/0563.bmp
298.80	0.72	406	1	5	94	per	lib	low	low	low	nt	cr	nh/0579_nh.bmp
299.52	0.72	407	2	8	58	mem	con	mod	mod	low	tg	ms	wh/0963.bmp
300.24	0.72	408	3	7	18	mem	lib	mod	mod	mod	tg	ht	wh/0874.bmp
300.96	0.72	409	2	6	100	per	con	mod	mod	mod	nt	fa	nh/0350_nh.bmp
301.68	0.72	410	4	6	19	per	lib	low	mod	low	nt	cr	nh/0029_nh.bmp
302.40	0.72	411	1	6	91	per	lib	mod	low	mod	nt	cr	nh/0669_nh.bmp
303.12	0.72	412	2	7	1	per	lib	mod	mod	mod	nt	cr	nh/0095_nh.bmp
303.84	0.72	413	2	6	64	per	con	low	mod	low	tg	ms	wh/0153.bmp
304.56	0.72	414	4	6	18	per	lib	low	mod	low	tg	ms	wh/0508.bmp
305.28	0.72	415	2	6	65	mem	lib	mod	mod	low	tg	ht	wh/0510.bmp
306.00	0.72	416	4	5	102	mem	con	mod	mod	low	nt	ms	nh/0818_nh.bmp
306.72	0.72	417	4	7	125	mem	con	mod	mod	mod	tg	ms	wh/0196.bmp
307.44	0.72	418	4	7	4	per	lib	mod	mod	mod	nt	cr	nh/0697_nh.bmp
308.16	0.72	419	2	7	81	per	con	mod	mod	mod	tg	ms	wh/0795.bmp
308.88	0.72	420	1	8	107	per	lib	mod	low	mod	nt	cr	nh/0281_nh.bmp
309.60	0.72	421	1	8	19	per	lib	low	mod	low	nt	cr	nh/0075_nh.bmp
310.32	0.72	422	2	6	105	per	con	mod	mod	mod	tg	ht	wh/0962.bmp
311.04	0.72	423	3	6	61	per	con	low	mod	low	nt	cr	nh/0336_nh.bmp
311.76	0.72	424	1	7	62	per	lib	low	low	low	tg	ms	wh/0206.bmp
312.48	0.72	425	1	7	119	mem	con	mod	mod	mod	nt	ht	nh/0680_nh.bmp
313.20	0.72	426	5	5	102	mem	con	mod	mod	low	nt	ms	nh/0818_nh.bmp
313.92	0.72	427	3	6	124	mem	con	mod	mod	mod	nt	ht	nh/0716_nh.bmp
314.64	0.72	428	3	6	64	per	con	low	mod	low	tg	ms	wh/0153.bmp
315.36	0.72	429	3	6	100	per	con	mod	mod	mod	nt	fa	nh/0350_nh.bmp
316.08	0.72	430	2	5	72	mem	lib	mod	mod	mod	tg	ht	wh/0428.bmp
316.80	0.72	431	3	5	128	per	lib	mod	mod	mod	tg	ht	wh/0548.bmp
317.52	0.72	432	5	6	80	mem	lib	mod	mod	low	nt	ms	nh/0329_nh.bmp
318.24	0.72	433	3	7	117	mem	con	mod	mod	mod	tg	ht	wh/0446.bmp
318.96	0.72	434	2	6	55	per	con	low	mod	low	nt	fa	nh/0079_nh.bmp
319.68	0.72	435	3	8	24	per	lib	low	mod	low	nt	cr	nh/0967_nh.bmp
320.40	0.72	436	4	6	73	mem	lib	mod	mod	low	tg	ht	wh/0338.bmp
321.12	0.72	437	3	8	85	mem	lib	mod	mod	low	tg	ht	wh/0744.bmp
321.84	0.72	438	2	7	25	mem	lib	mod	mod	mod	tg	ms	wh/0941.bmp
322.56	0.72	439	1	7	5	per	lib	mod	mod	mod	tg	ms	wh/0497.bmp
323.28	0.72	440	1	5	93	per	lib	low	low	low	tg	ms	wh/0864.bmp
324.00	0.72	441	1	8	74	mem	lib	low	low	mod	nt	ht	nh/0718_nh.bmp
324.72	0.72	442	1	8	36	mem	con	low	low	low	nt	ht	nh/0881_nh.bmp
325.44	0.72	443	4	8	21	per	lib	low	mod	low	nt	cr	nh/0074_nh.bmp
326.16	0.72	444	1	5	25	per	con	mod	low	mod	nt	cr	nh/0762_nh.bmp
326.88	0.72	445	3	6	101	per	con	mod	mod	mod	tg	ms	wh/0957.bmp
327.60	0.72	446	4	6	70	mem	lib	mod	mod	low	nt	ms	nh/0299_nh.bmp
328.32	0.72	447	3	6	109	per	con	mod	mod	mod	tg	ht	wh/0748.bmp
329.04	0.72	448	2	8	18	per	lib	low	mod	low	tg	ms	wh/0383.bmp
329.76	0.72	449	3	8	95	mem	lib	mod	mod	low	nt	ht	nh/0256_nh.bmp
330.48	0.72	450	1	5	81	per	lib	low	low	low	nt	cr	nh/0789_nh.bmp
331.20	0.72	451	3	7	83	per	con	mod	mod	mod	nt	cr	nh/0591_nh.bmp
331.92	0.72	452	3	6	26	per	lib	low	mod	low	tg	ht	wh/0503.bmp
332.64	0.72	453	2	5	120	per	lib	mod	mod	mod	nt	cr	nh/0397_nh.bmp
333.36	0.72	454	3	6	55	per	con	low	mod	low	nt	fa	nh/0079_nh.bmp
334.08	0.72	455	3	5	68	mem	lib	mod	mod	mod	nt	ht	nh/0182_nh.bmp
334.80	0.72	456	3	7	85	per	con	mod	mod	mod	tg	ms	wh/0380.bmp
335.52	0.72	457	2	5	98	mem	con	mod	mod	low	nt	ms	nh/0077_nh.bmp
336.24	0.72	458	1	8	9	per	con	low	mod	low	tg	ht	wh/0123.bmp
336.96	0.72	459	2	7	119	mem	con	mod	mod	mod	nt	ht	nh/0680_nh.bmp
337.68	0.72	460	3	7	1	per	lib	mod	mod	mod	nt	cr	nh/0095_nh.bmp
338.40	0.72	461	3	8	54	mem	con	mod	mod	low	tg	ms	wh/0194.bmp
339.12	0.72	462	1	5	8	per	con	low	low	low	nt	cr	nh/1007_nh.bmp
339.84	0.72	463	5	6	123	mem	con	mod	mod	mod	nt	ms	nh/0807_nh.bmp
340.56	0.72	464	4	6	103	per	con	mod	mod	mod	nt	cr	nh/0593_nh.bmp
341.28	0.72	465	1	5	41	mem	con	low	low	mod	nt	ht	nh/0838_nh.bmp
342.00	0.72	466	5	5	67	mem	lib	mod	mod	mod	tg	ms	wh/0805.bmp
342.72	0.72	467	4	8	85	mem	lib	mod	mod	low	tg	ht	wh/0744.bmp
343.44	0.72	468	4	8	61	mem	con	mod	mod	low	tg	n/a	wh/0035.bmp
344.16	0.72	469	3	5	98	mem	con	mod	mod	low	nt	ms	nh/0077_nh.bmp
344.88	0.72	470	3	5	120	per	lib	mod	mod	mod	nt	cr	nh/0397_nh.bmp
345.60	0.72	471	3	7	31	mem	lib	mod	mod	mod	tg	ht	wh/0199.bmp
346.32	0.72	472	5	6	23	per	lib	low	mod	low	nt	cr	nh/0893_nh.bmp
347.04	0.72	473	1	7	107	per	con	low	low	low	nt	cr	nh/0655_nh.bmp
347.76	0.72	474	5	8	25	per	lib	low	mod	low	nt	cr	nh/0190_nh.bmp
348.48	0.72	475	4	7	95	per	con	mod	mod	mod	tg	ht	wh/0684.bmp
349.20	0.72	476	1	8	109	per	lib	mod	low	mod	tg	ms	wh/0721.bmp
349.92	0.72	477	5	6	103	per	con	mod	mod	mod	nt	cr	nh/0593_nh.bmp
350.64	0.72	478	3	5	107	mem	con	mod	mod	low	tg	ht	wh/0361.bmp
351.36	0.72	479	5	7	126	mem	con	mod	mod	mod	nt	ht	nh/0594_nh.bmp
352.08	0.72	480	2	8	6	per	con	low	mod	low	nt	cr	nh/0608_nh.bmp
352.80	0.72	481	1	8	124	per	con	mod	low	mod	nt	cr	nh/0569_nh.bmp
353.52	0.72	482	1	6	38	mem	con	low	low	low	nt	ht	nh/0090_nh.bmp
354.24	0.72	483	2	8	19	per	lib	low	mod	low	nt	cr	nh/0075_nh.bmp
354.96	0.72	484	6	7	126	mem	con	mod	mod	mod	nt	ht	nh/0594_nh.bmp
355.68	0.72	485	3	6	114	mem	con	mod	mod	mod	nt	ht	nh/0772_nh.bmp
356.40	0.72	486	4	8	57	mem	con	mod	mod	low	nt	ht	nh/0646_nh.bmp
357.12	0.72	487	4	6	54	per	con	low	mod	low	tg	ms	wh/0417.bmp
357.84	0.72	488	4	6	125	mem	con	mod	mod	mod	tg	ht	wh/0803.bmp
358.56	0.72	489	4	6	109	per	con	mod	mod	mod	tg	ht	wh/0748.bmp
359.28	0.72	490	1	7	46	mem	lib	low	low	low	nt	ms	nh/0507_nh.bmp
360.00	0.72	491	2	6	121	mem	con	mod	mod	mod	nt	ms	nh/0540_nh.bmp
360.72	0.72	492	3	5	117	per	lib	mod	mod	mod	tg	ht	wh/0784.bmp
361.44	0.72	493	4	8	30	per	lib	low	mod	low	tg	ms	wh/0238.bmp
362.16	0.72	494	5	6	125	mem	con	mod	mod	mod	tg	ht	wh/0803.bmp
362.88	0.72	495	4	6	61	per	con	low	mod	low	nt	cr	nh/0336_nh.bmp
363.60	0.72	496	3	8	6	per	con	low	mod	low	nt	cr	nh/0608_nh.bmp
364.32	0.72	497	3	8	52	mem	con	mod	mod	low	nt	ht	nh/0032_nh.bmp
365.04	0.72	498	3	8	19	per	lib	low	mod	low	nt	cr	nh/0075_nh.bmp
365.76	0.72	499	4	5	107	mem	con	mod	mod	low	tg	ht	wh/0361.bmp
366.48	0.72	500	4	7	93	per	con	mod	mod	mod	nt	cr	nh/0328_nh.bmp
367.20	0.72	501	5	8	10	per	con	low	mod	low	nt	cr	nh/0635_nh.bmp
367.92	0.72	502	4	5	68	mem	lib	mod	mod	mod	nt	ht	nh/0182_nh.bmp
368.64	0.72	503	5	8	31	per	lib	low	mod	low	tg	ht	wh/0465.bmp
369.36	0.72	504	5	6	104	per	con	mod	mod	mod	tg	ht	wh/0946.bmp
370.08	0.72	505	4	5	128	per	lib	mod	mod	mod	tg	ht	wh/0548.bmp
370.80	0.72	506	4	6	52	per	con	low	mod	low	tg	ms	wh/0802.bmp
371.52	0.72	507	2	8	49	mem	con	mod	mod	low	nt	ms	nh/0080_nh.bmp
372.24	0.72	508	3	5	72	mem	lib	mod	mod	mod	tg	ht	wh/0428.bmp
372.96	0.72	509	3	5	119	per	lib	mod	mod	mod	tg	ht	wh/0563.bmp
373.68	0.72	510	5	6	54	per	con	low	mod	low	tg	ms	wh/0417.bmp
374.40	0.72	511	1	7	9	per	lib	mod	mod	mod	tg	ht	wh/0588.bmp
375.12	0.72	512	3	7	121	mem	con	mod	mod	mod	tg	ht	wh/0099.bmp
375.84	0.72	513	1	6	12	mem	lib	low	low	low	tg	ht	wh/0433.bmp
376.56	0.72	514	3	7	119	mem	con	mod	mod	mod	nt	ht	nh/0680_nh.bmp
377.28	0.72	515	4	8	24	per	lib	low	mod	low	nt	cr	nh/0967_nh.bmp
378.00	0.72	516	3	7	89	per	con	mod	mod	mod	nt	cr	nh/0902_nh.bmp
378.72	0.72	517	3	8	18	per	lib	low	mod	low	tg	ms	wh/0383.bmp
379.44	0.72	518	6	7	22	mem	lib	mod	mod	mod	nt	ht	nh/0855_nh.bmp
380.16	0.72	519	1	7	48	mem	lib	low	low	low	tg	ht	wh/0384.bmp
380.88	0.72	520	1	8	38	mem	con	low	low	low	nt	ms	nh/0434_nh.bmp
381.60	0.72	521	4	8	6	per	con	low	mod	low	nt	cr	nh/0608_nh.bmp
382.32	0.72	522	4	7	117	mem	con	mod	mod	mod	tg	ht	wh/0446.bmp
383.04	0.72	523	4	6	64	per	con	low	mod	low	tg	ms	wh/0153.bmp
383.76	0.72	524	3	7	81	per	con	mod	mod	mod	tg	ms	wh/0795.bmp
384.48	0.72	525	4	6	55	per	con	low	mod	low	nt	fa	nh/0079_nh.bmp
385.20	0.72	526	4	7	85	per	con	mod	mod	mod	tg	ms	wh/0380.bmp
385.92	0.72	527	4	8	90	mem	lib	mod	mod	low	nt	ms	nh/0364_nh.bmp
386.64	0.72	528	4	6	26	per	lib	low	mod	low	tg	ht	wh/0503.bmp
387.36	0.72	529	5	5	112	mem	con	mod	mod	low	tg	ht	wh/0443.bmp
388.08	0.72	530	4	5	73	mem	lib	mod	mod	mod	tg	ht	wh/0209.bmp
388.80	0.72	531	4	5	120	per	lib	mod	mod	mod	nt	cr	nh/0397_nh.bmp
389.52	0.72	532	1	5	95	per	lib	low	low	low	tg	ht	wh/0930.bmp
390.24	0.72	533	4	7	89	per	con	mod	mod	mod	nt	cr	nh/0902_nh.bmp
390.96	0.72	534	4	7	81	per	con	mod	mod	mod	tg	ms	wh/0795.bmp
391.68	0.72	535	4	5	119	per	lib	mod	mod	mod	tg	ht	wh/0563.bmp
392.40	0.72	536	3	7	19	mem	lib	mod	mod	mod	tg	ms	wh/0222.bmp
393.12	0.72	537	3	8	53	mem	con	mod	mod	low	tg	ms	wh/0660.bmp
393.84	0.72	538	5	6	116	mem	con	mod	mod	mod	tg	ht	wh/0909.bmp
394.56	0.72	539	5	6	70	mem	lib	mod	mod	low	nt	ms	nh/0299_nh.bmp
395.28	0.72	540	3	6	121	mem	con	mod	mod	mod	nt	ms	nh/0540_nh.bmp
396.00	0.72	541	4	7	18	mem	lib	mod	mod	mod	tg	ht	wh/0874.bmp
396.72	0.72	542	5	7	128	mem	con	mod	mod	mod	tg	ms	wh/0714.bmp
397.44	0.72	543	5	7	93	per	con	mod	mod	mod	nt	cr	nh/0328_nh.bmp
398.16	0.72	544	5	5	68	mem	lib	mod	mod	mod	nt	ht	nh/0182_nh.bmp
398.88	0.72	545	4	5	110	mem	con	mod	mod	low	tg	ms	wh/0690.bmp
399.60	0.72	546	6	6	23	per	lib	low	mod	low	nt	cr	nh/0893_nh.bmp
400.32	0.72	547	1	5	3	per	con	low	low	low	tg	ms	wh/0148.bmp
401.04	0.72	548	1	7	56	per	lib	low	low	low	nt	fa	nh/0571_nh.bmp
401.76	0.72	549	4	8	19	per	lib	low	mod	low	nt	cr	nh/0075_nh.bmp
402.48	0.72	550	4	6	57	per	con	low	mod	low	nt	cr	nh/0451_nh.bmp
403.20	0.72	551	1	5	37	mem	con	low	low	mod	tg	ht	wh/1024.bmp
403.92	0.72	552	4	5	66	mem	lib	mod	mod	mod	nt	ms	nh/0650_nh.bmp
404.64	0.72	553	3	8	11	per	con	low	mod	low	tg	ms	wh/0493.bmp
405.36	0.72	554	4	7	127	mem	con	mod	mod	mod	nt	ht	nh/0543_nh.bmp
406.08	0.72	555	2	7	5	per	lib	mod	mod	mod	tg	ms	wh/0497.bmp
406.80	0.72	556	5	8	90	mem	lib	mod	mod	low	nt	ms	nh/0364_nh.bmp
407.52	0.72	557	2	5	100	mem	con	mod	mod	low	nt	ms	nh/0232_nh.bmp
408.24	0.72	558	4	5	72	mem	lib	mod	mod	mod	tg	ht	wh/0428.bmp
408.96	0.72	559	1	6	83	per	lib	mod	low	mod	tg	ht	wh/0316.bmp
409.68	0.72	560	4	7	83	per	con	mod	mod	mod	nt	cr	nh/0591_nh.bmp
410.40	0.72	561	4	5	126	per	lib	mod	mod	mod	tg	ms	wh/0447.bmp
411.12	0.72	562	5	5	66	mem	lib	mod	mod	mod	nt	ms	nh/0650_nh.bmp
411.84	0.72	563	1	8	108	per	lib	mod	low	mod	nt	cr	nh/0900_nh.bmp
412.56	0.72	564	6	6	103	per	con	mod	mod	mod	nt	cr	nh/0593_nh.bmp
413.28	0.72	565	6	6	125	mem	con	mod	mod	mod	tg	ht	wh/0803.bmp
414.00	0.72	566	2	8	88	mem	lib	mod	mod	low	tg	ms	wh/0404.bmp
414.72	0.72	567	5	7	85	per	con	mod	mod	mod	tg	ms	wh/0380.bmp
415.44	0.72	568	4	8	53	mem	con	mod	mod	low	tg	ms	wh/0660.bmp
416.16	0.72	569	3	8	94	mem	lib	mod	mod	low	nt	ht	nh/0758_nh.bmp
416.88	0.72	570	6	7	96	per	con	mod	mod	mod	tg	ht	wh/0442.bmp
417.60	0.72	571	5	8	53	mem	con	mod	mod	low	tg	ms	wh/0660.bmp
418.32	0.72	572	4	5	111	mem	con	mod	mod	low	tg	ht	wh/0760.bmp
419.04	0.72	573	3	8	2	per	con	low	mod	low	tg	ht	wh/1023.bmp
419.76	0.72	574	3	5	100	mem	con	mod	mod	low	nt	ms	nh/0232_nh.bmp
420.48	0.72	575	5	5	120	per	lib	mod	mod	mod	nt	cr	nh/0397_nh.bmp
421.20	0.72	576	5	6	57	per	con	low	mod	low	nt	cr	nh/0451_nh.bmp
421.92	0.72	577	5	7	127	mem	con	mod	mod	mod	nt	ht	nh/0543_nh.bmp
422.64	0.72	578	5	6	73	mem	lib	mod	mod	low	tg	ht	wh/0338.bmp
423.36	0.72	579	4	5	114	per	lib	mod	mod	mod	nt	cr	nh/0947_nh.bmp
424.08	0.72	580	4	5	98	mem	con	mod	mod	low	nt	ms	nh/0077_nh.bmp
424.80	0.72	581	1	7	73	mem	con	low	low	mod	tg	ht	wh/0092.bmp
425.52	0.72	582	1	8	37	mem	con	low	low	low	tg	ms	wh/0731.bmp
426.24	0.72	583	6	8	53	mem	con	mod	mod	low	tg	ms	wh/0660.bmp
426.96	0.72	584	4	8	15	per	con	low	mod	low	nt	cr	nh/0964_nh.bmp
427.68	0.72	585	4	5	70	mem	lib	mod	mod	mod	nt	ht	nh/0904_nh.bmp
428.40	0.72	586	5	8	15	per	con	low	mod	low	nt	cr	nh/0964_nh.bmp
429.12	0.72	587	4	5	117	per	lib	mod	mod	mod	tg	ht	wh/0784.bmp
429.84	0.72	588	4	6	121	mem	con	mod	mod	mod	nt	ms	nh/0540_nh.bmp
430.56	0.72	589	5	5	119	per	lib	mod	mod	mod	tg	ht	wh/0563.bmp
431.28	0.72	590	5	5	128	per	lib	mod	mod	mod	tg	ht	wh/0548.bmp
432.00	0.72	591	4	7	1	per	lib	mod	mod	mod	nt	cr	nh/0095_nh.bmp
432.72	0.72	592	4	7	31	mem	lib	mod	mod	mod	tg	ht	wh/0199.bmp
433.44	0.72	593	4	6	101	per	con	mod	mod	mod	tg	ms	wh/0957.bmp
434.16	0.72	594	5	5	70	mem	lib	mod	mod	mod	nt	ht	nh/0904_nh.bmp
434.88	0.72	595	4	8	93	mem	lib	mod	mod	low	tg	ms	wh/0355.bmp
435.60	0.72	596	5	6	121	mem	con	mod	mod	mod	nt	ms	nh/0540_nh.bmp
436.32	0.72	597	6	6	54	per	con	low	mod	low	tg	ms	wh/0417.bmp
437.04	0.72	598	5	7	1	per	lib	mod	mod	mod	nt	cr	nh/0095_nh.bmp
437.76	0.72	599	5	5	111	mem	con	mod	mod	low	tg	ht	wh/0760.bmp
438.48	0.72	600	4	8	52	mem	con	mod	mod	low	nt	ht	nh/0032_nh.bmp
439.20	0.72	601	5	6	109	per	con	mod	mod	mod	tg	ht	wh/0748.bmp
439.92	0.72	602	4	8	54	mem	con	mod	mod	low	tg	ms	wh/0194.bmp
440.64	0.72	603	6	7	29	mem	lib	mod	mod	mod	nt	n/a	nh/0187_nh.bmp
441.36	0.72	604	4	6	114	mem	con	mod	mod	mod	nt	ht	nh/0772_nh.bmp
442.08	0.72	605	2	6	31	per	lib	low	mod	low	nt	cr	nh/0619_nh.bmp
442.80	0.72	606	3	5	124	per	lib	mod	mod	mod	nt	cr	nh/0973_nh.bmp
443.52	0.72	607	3	8	96	mem	lib	mod	mod	low	nt	ms	nh/0351_nh.bmp
444.24	0.72	608	4	8	62	mem	con	mod	mod	low	nt	ht	nh/0940_nh.bmp
444.96	0.72	609	5	7	86	per	con	mod	mod	mod	nt	cr	nh/0398_nh.bmp
445.68	0.72	610	5	7	81	per	con	mod	mod	mod	tg	ms	wh/0795.bmp
446.40	0.72	611	6	7	128	mem	con	mod	mod	mod	tg	ms	wh/0714.bmp
447.12	0.72	612	4	7	19	mem	lib	mod	mod	mod	tg	ms	wh/0222.bmp
447.84	0.72	613	1	7	100	per	con	low	low	low	tg	ms	wh/0223.bmp
448.56	0.72	614	2	7	9	per	lib	mod	mod	mod	tg	ht	wh/0588.bmp
449.28	0.72	615	3	8	58	mem	con	mod	mod	low	tg	ms	wh/0963.bmp
450.00	0.72	616	1	5	43	mem	con	low	low	mod	tg	ht	wh/0849.bmp
450.72	0.72	617	5	8	30	per	lib	low	mod	low	tg	ms	wh/0238.bmp
451.44	0.72	618	5	5	98	mem	con	mod	mod	low	nt	ms	nh/0077_nh.bmp
452.16	0.72	619	1	8	123	per	con	mod	low	mod	tg	ht	wh/0729.bmp
452.88	0.72	620	3	6	31	per	lib	low	mod	low	nt	cr	nh/0619_nh.bmp
453.60	0.72	621	1	5	7	per	con	low	low	low	tg	ht	wh/0215.bmp
454.32	0.72	622	6	5	120	per	lib	mod	mod	mod	nt	cr	nh/0397_nh.bmp
455.04	0.72	623	6	7	120	mem	con	mod	mod	mod	nt	ms	nh/0542_nh.bmp
455.76	0.72	624	4	8	18	per	lib	low	mod	low	tg	ms	wh/0383.bmp
456.48	0.72	625	3	6	105	per	con	mod	mod	mod	tg	ht	wh/0962.bmp
457.20	0.72	626	6	7	93	per	con	mod	mod	mod	nt	cr	nh/0328_nh.bmp
457.92	0.72	627	3	6	111	per	con	mod	mod	mod	nt	cr	nh/0558_nh.bmp
458.64	0.72	628	4	5	124	per	lib	mod	mod	mod	nt	cr	nh/0973_nh.bmp
459.36	0.72	629	4	8	11	per	con	low	mod	low	tg	ms	wh/0493.bmp
460.08	0.72	630	4	6	124	mem	con	mod	mod	mod	nt	ht	nh/0716_nh.bmp
460.80	0.72	631	5	6	19	per	lib	low	mod	low	nt	cr	nh/0029_nh.bmp
461.52	0.72	632	5	7	4	per	lib	mod	mod	mod	nt	cr	nh/0697_nh.bmp
462.24	0.72	633	5	7	18	mem	lib	mod	mod	mod	tg	ht	wh/0874.bmp
462.96	0.72	634	5	7	117	mem	con	mod	mod	mod	tg	ht	wh/0446.bmp
463.68	0.72	635	5	8	54	mem	con	mod	mod	low	tg	ms	wh/0194.bmp
464.40	0.72	636	4	5	77	mem	lib	mod	mod	mod	nt	ht	nh/0810_nh.bmp
465.12	0.72	637	3	8	88	mem	lib	mod	mod	low	tg	ms	wh/0404.bmp
465.84	0.72	638	5	8	85	mem	lib	mod	mod	low	tg	ht	wh/0744.bmp
466.56	0.72	639	6	6	123	mem	con	mod	mod	mod	nt	ms	nh/0807_nh.bmp
467.28	0.72	640	1	7	109	per	con	low	low	low	nt	fa	nh/0158_nh.bmp
468.00	0.72	641	5	8	19	per	lib	low	mod	low	nt	cr	nh/0075_nh.bmp
468.72	0.72	642	1	7	108	per	con	low	low	low	nt	cr	nh/0439_nh.bmp
469.44	0.72	643	4	6	31	per	lib	low	mod	low	nt	cr	nh/0619_nh.bmp
470.16	0.72	644	6	7	85	per	con	mod	mod	mod	tg	ms	wh/0380.bmp
470.88	0.72	645	5	6	67	mem	lib	mod	mod	low	nt	ht	nh/0382_nh.bmp
471.60	0.72	646	4	8	1	per	con	low	mod	low	tg	ms	wh/0934.bmp
472.32	0.72	647	4	5	122	per	lib	mod	mod	mod	nt	cr	nh/0462_nh.bmp
473.04	0.72	648	5	6	55	per	con	low	mod	low	nt	fa	nh/0079_nh.bmp
473.76	0.72	649	1	5	61	mem	lib	low	low	mod	nt	ht	nh/0530_nh.bmp
474.48	0.72	650	5	8	61	mem	con	mod	mod	low	tg	n/a	wh/0035.bmp
475.20	0.72	651	6	5	70	mem	lib	mod	mod	mod	nt	ht	nh/0904_nh.bmp
475.92	0.72	652	5	6	101	per	con	mod	mod	mod	tg	ms	wh/0957.bmp
476.64	0.72	653	4	6	100	per	con	mod	mod	mod	nt	fa	nh/0350_nh.bmp
477.36	0.72	654	4	8	95	mem	lib	mod	mod	low	nt	ht	nh/0256_nh.bmp
478.08	0.72	655	1	5	91	per	lib	low	low	low	nt	cr	nh/0815_nh.bmp
478.80	0.72	656	5	7	26	mem	lib	mod	mod	mod	nt	ht	nh/0319_nh.bmp
479.52	0.72	657	5	6	124	mem	con	mod	mod	mod	nt	ht	nh/0716_nh.bmp
480.24	0.72	658	5	6	26	per	lib	low	mod	low	tg	ht	wh/0503.bmp
480.96	0.72	659	3	6	65	mem	lib	mod	mod	low	tg	ht	wh/0510.bmp
481.68	0.72	660	1	5	55	mem	lib	low	low	mod	tg	ms	wh/0936.bmp
482.40	0.72	661	4	8	8	per	con	low	mod	low	nt	cr	nh/0082_nh.bmp
483.12	0.72	662	6	8	87	mem	lib	mod	mod	low	tg	ht	wh/0730.bmp
483.84	0.72	663	5	5	117	per	lib	mod	mod	mod	tg	ht	wh/0784.bmp
484.56	0.72	664	1	7	61	per	lib	low	low	low	tg	ms	wh/0452.bmp
485.28	0.72	665	6	5	68	mem	lib	mod	mod	mod	nt	ht	nh/0182_nh.bmp
486.00	0.72	666	1	8	78	mem	lib	low	low	mod	nt	ht	nh/0890_nh.bmp
486.72	0.72	667	5	6	117	mem	con	mod	mod	mod	tg	ms	wh/0371.bmp
487.44	0.72	668	3	8	49	mem	con	mod	mod	low	nt	ms	nh/0080_nh.bmp
488.16	0.72	669	6	8	19	per	lib	low	mod	low	nt	cr	nh/0075_nh.bmp
488.88	0.72	670	1	5	29	per	con	mod	low	mod	nt	cr	nh/0469_nh.bmp
489.60	0.72	671	6	6	121	mem	con	mod	mod	mod	nt	ms	nh/0540_nh.bmp
490.32	0.72	672	3	7	9	per	lib	mod	mod	mod	tg	ht	wh/0588.bmp
491.04	0.72	673	3	7	5	per	lib	mod	mod	mod	tg	ms	wh/0497.bmp
491.76	0.72	674	1	8	73	mem	lib	low	low	mod	tg	ht	wh/0301.bmp
492.48	0.72	675	5	8	93	mem	lib	mod	mod	low	tg	ms	wh/0355.bmp
493.20	0.72	676	5	8	95	mem	lib	mod	mod	low	nt	ht	nh/0256_nh.bmp
493.92	0.72	677	6	6	57	per	con	low	mod	low	nt	cr	nh/0451_nh.bmp
494.64	0.72	678	6	8	31	per	lib	low	mod	low	tg	ht	wh/0465.bmp
495.36	0.72	679	4	7	9	per	lib	mod	mod	mod	tg	ht	wh/0588.bmp
496.08	0.72	680	5	6	66	mem	lib	mod	mod	low	tg	ms	wh/0134.bmp
496.80	0.72	681	4	7	6	per	lib	mod	mod	mod	tg	ht	wh/0396.bmp
497.52	0.72	682	1	8	68	mem	lib	low	low	mod	tg	ms	wh/0927.bmp
498.24	0.72	683	4	8	22	per	lib	low	mod	low	tg	ht	wh/0125.bmp
498.96	0.72	684	4	7	119	mem	con	mod	mod	mod	nt	ht	nh/0680_nh.bmp
499.68	0.72	685	3	7	25	mem	lib	mod	mod	mod	tg	ms	wh/0941.bmp
500.40	0.72	686	5	5	122	per	lib	mod	mod	mod	nt	cr	nh/0462_nh.bmp
501.12	0.72	687	1	5	89	per	lib	low	low	low	nt	cr	nh/0185_nh.bmp
501.84	0.72	688	5	8	1	per	con	low	mod	low	tg	ms	wh/0934.bmp
502.56	0.72	689	4	8	2	per	con	low	mod	low	tg	ht	wh/1023.bmp
503.28	0.72	690	5	6	18	per	lib	low	mod	low	tg	ms	wh/0508.bmp
504.00	0.72	691	5	8	24	per	lib	low	mod	low	nt	cr	nh/0967_nh.bmp
504.72	0.72	692	6	7	86	per	con	mod	mod	mod	nt	cr	nh/0398_nh.bmp
505.44	0.72	693	5	7	31	mem	lib	mod	mod	mod	tg	ht	wh/0199.bmp
506.16	0.72	694	6	7	81	per	con	mod	mod	mod	tg	ms	wh/0795.bmp
506.88	0.72	695	4	7	5	per	lib	mod	mod	mod	tg	ms	wh/0497.bmp
507.60	0.72	696	6	6	70	mem	lib	mod	mod	low	nt	ms	nh/0299_nh.bmp
508.32	0.72	697	5	7	83	per	con	mod	mod	mod	nt	cr	nh/0591_nh.bmp
509.04	0.72	698	5	7	19	mem	lib	mod	mod	mod	tg	ms	wh/0222.bmp
509.76	0.72	699	5	7	89	per	con	mod	mod	mod	nt	cr	nh/0902_nh.bmp
510.48	0.72	700	1	6	35	mem	con	low	low	low	tg	ht	wh/0831.bmp
511.20	0.72	701	4	6	65	mem	lib	mod	mod	low	tg	ht	wh/0510.bmp
511.92	0.72	702	5	7	13	per	lib	mod	mod	mod	tg	ht	wh/0843.bmp
512.64	0.72	703	5	7	9	per	lib	mod	mod	mod	tg	ht	wh/0588.bmp
513.36	0.72	704	4	5	69	mem	lib	mod	mod	mod	tg	ht	wh/0273.bmp
514.08	0.72	705	5	5	77	mem	lib	mod	mod	mod	nt	ht	nh/0810_nh.bmp
514.80	0.72	706	4	6	111	per	con	mod	mod	mod	nt	cr	nh/0558_nh.bmp
515.52	0.72	707	5	6	64	per	con	low	mod	low	tg	ms	wh/0153.bmp
516.24	0.72	708	4	7	121	mem	con	mod	mod	mod	tg	ht	wh/0099.bmp
516.96	0.72	709	6	7	83	per	con	mod	mod	mod	nt	cr	nh/0591_nh.bmp
517.68	0.72	710	4	8	49	mem	con	mod	mod	low	nt	ms	nh/0080_nh.bmp
518.40	0.72	711	1	8	65	mem	lib	low	low	mod	nt	ht	nh/0525_nh.bmp
519.12	0.72	712	6	7	18	mem	lib	mod	mod	mod	tg	ht	wh/0874.bmp
519.84	0.72	713	5	7	21	mem	lib	mod	mod	mod	nt	ht	nh/0094_nh.bmp
520.56	0.72	714	5	5	110	mem	con	mod	mod	low	tg	ms	wh/0690.bmp
521.28	0.72	715	6	5	112	mem	con	mod	mod	low	tg	ht	wh/0443.bmp
522.00	0.72	716	5	6	21	per	lib	low	mod	low	tg	ms	wh/0577.bmp
522.72	0.72	717	5	5	124	per	lib	mod	mod	mod	nt	cr	nh/0973_nh.bmp
523.44	0.72	718	2	8	9	per	con	low	mod	low	tg	ht	wh/0123.bmp
524.16	0.72	719	4	7	25	mem	lib	mod	mod	mod	tg	ms	wh/0941.bmp
524.88	0.72	720	4	6	105	per	con	mod	mod	mod	tg	ht	wh/0962.bmp
525.60	0.72	721	5	8	62	mem	con	mod	mod	low	nt	ht	nh/0940_nh.bmp
526.32	0.72	722	1	6	34	mem	con	low	low	low	tg	ms	wh/1009.bmp
527.04	0.72	723	5	5	109	mem	con	mod	mod	low	nt	ht	nh/0036_nh.bmp
527.76	0.72	724	4	8	88	mem	lib	mod	mod	low	tg	ms	wh/0404.bmp
528.48	0.72	725	1	5	54	mem	lib	low	low	mod	tg	ht	wh/0531.bmp
529.20	0.72	726	1	6	48	mem	con	low	low	low	tg	ms	wh/0088.bmp
529.92	0.72	727	5	6	65	mem	lib	mod	mod	low	tg	ht	wh/0510.bmp
530.64	0.72	728	5	7	95	per	con	mod	mod	mod	tg	ht	wh/0684.bmp
531.36	0.72	729	6	6	65	mem	lib	mod	mod	low	tg	ht	wh/0510.bmp
532.08	0.72	730	5	8	21	per	lib	low	mod	low	nt	cr	nh/0074_nh.bmp
532.80	0.72	731	3	8	9	per	con	low	mod	low	tg	ht	wh/0123.bmp
533.52	0.72	732	5	7	25	mem	lib	mod	mod	mod	tg	ms	wh/0941.bmp
534.24	0.72	733	5	7	5	per	lib	mod	mod	mod	tg	ms	wh/0497.bmp
534.96	0.72	734	1	7	37	mem	lib	low	low	low	tg	ht	wh/0804.bmp
535.68	0.72	735	6	6	80	mem	lib	mod	mod	low	nt	ms	nh/0329_nh.bmp
536.40	0.72	736	6	6	64	per	con	low	mod	low	tg	ms	wh/0153.bmp
537.12	0.72	737	6	7	117	mem	con	mod	mod	mod	tg	ht	wh/0446.bmp
537.84	0.72	738	6	5	119	per	lib	mod	mod	mod	tg	ht	wh/0563.bmp
538.56	0.72	739	6	8	24	per	lib	low	mod	low	nt	cr	nh/0967_nh.bmp
539.28	0.72	740	5	7	125	mem	con	mod	mod	mod	tg	ms	wh/0196.bmp
540.00	0.72	741	5	5	126	per	lib	mod	mod	mod	tg	ms	wh/0447.bmp
540.72	0.72	742	6	5	102	mem	con	mod	mod	low	nt	ms	nh/0818_nh.bmp
541.44	0.72	743	1	8	126	per	con	mod	low	mod	tg	ht	wh/0693.bmp
542.16	0.72	744	6	8	30	per	lib	low	mod	low	tg	ms	wh/0238.bmp
542.88	0.72	745	6	8	21	per	lib	low	mod	low	nt	cr	nh/0074_nh.bmp
543.60	0.72	746	5	6	111	per	con	mod	mod	mod	nt	cr	nh/0558_nh.bmp
544.32	0.72	747	6	7	125	mem	con	mod	mod	mod	tg	ms	wh/0196.bmp
545.04	0.72	748	6	7	127	mem	con	mod	mod	mod	nt	ht	nh/0543_nh.bmp
545.76	0.72	749	4	8	9	per	con	low	mod	low	tg	ht	wh/0123.bmp
546.48	0.72	750	6	8	54	mem	con	mod	mod	low	tg	ms	wh/0194.bmp
547.20	0.72	751	5	5	73	mem	lib	mod	mod	mod	tg	ht	wh/0209.bmp
547.92	0.72	752	5	8	88	mem	lib	mod	mod	low	tg	ms	wh/0404.bmp
548.64	0.72	753	6	8	25	per	lib	low	mod	low	nt	cr	nh/0190_nh.bmp
549.36	0.72	754	6	6	111	per	con	mod	mod	mod	nt	cr	nh/0558_nh.bmp
550.08	0.72	755	5	7	119	mem	con	mod	mod	mod	nt	ht	nh/0680_nh.bmp
550.80	0.72	756	6	6	19	per	lib	low	mod	low	nt	cr	nh/0029_nh.bmp
551.52	0.72	757	5	6	100	per	con	mod	mod	mod	nt	fa	nh/0350_nh.bmp
552.24	0.72	758	5	8	6	per	con	low	mod	low	nt	cr	nh/0608_nh.bmp
552.96	0.72	759	4	8	96	mem	lib	mod	mod	low	nt	ms	nh/0351_nh.bmp
553.68	0.72	760	5	5	107	mem	con	mod	mod	low	tg	ht	wh/0361.bmp
554.40	0.72	761	6	8	1	per	con	low	mod	low	tg	ms	wh/0934.bmp
555.12	0.72	762	5	7	6	per	lib	mod	mod	mod	tg	ht	wh/0396.bmp
555.84	0.72	763	6	8	85	mem	lib	mod	mod	low	tg	ht	wh/0744.bmp
556.56	0.72	764	5	8	96	mem	lib	mod	mod	low	nt	ms	nh/0351_nh.bmp
557.28	0.72	765	5	8	49	mem	con	mod	mod	low	nt	ms	nh/0080_nh.bmp
558.00	0.72	766	6	7	13	per	lib	mod	mod	mod	tg	ht	wh/0843.bmp
558.72	0.72	767	5	8	22	per	lib	low	mod	low	tg	ht	wh/0125.bmp
559.44	0.72	768	1	7	111	per	con	low	low	low	tg	ms	wh/0237.bmp
560.16	0.72	769	6	7	6	per	lib	mod	mod	mod	tg	ht	wh/0396.bmp
560.88	0.72	770	1	8	103	per	lib	mod	low	mod	nt	cr	nh/0774_nh.bmp
561.60	0.72	771	5	5	69	mem	lib	mod	mod	mod	tg	ht	wh/0273.bmp
562.32	0.72	772	5	8	2	per	con	low	mod	low	tg	ht	wh/1023.bmp
563.04	0.72	773	6	5	126	per	lib	mod	mod	mod	tg	ms	wh/0447.bmp
563.76	0.72	774	1	7	57	per	lib	low	low	low	nt	cr	nh/0113_nh.bmp
564.48	0.72	775	6	6	67	mem	lib	mod	mod	low	nt	ht	nh/0382_nh.bmp
565.20	0.72	776	6	8	61	mem	con	mod	mod	low	tg	n/a	wh/0035.bmp
565.92	0.72	777	6	6	55	per	con	low	mod	low	nt	fa	nh/0079_nh.bmp
566.64	0.72	778	6	7	89	per	con	mod	mod	mod	nt	cr	nh/0902_nh.bmp
567.36	0.72	779	6	6	116	mem	con	mod	mod	mod	tg	ht	wh/0909.bmp
568.08	0.72	780	6	5	77	mem	lib	mod	mod	mod	nt	ht	nh/0810_nh.bmp
568.80	0.72	781	4	8	94	mem	lib	mod	mod	low	nt	ht	nh/0758_nh.bmp
569.52	0.72	782	5	6	60	per	con	low	mod	low	tg	ht	wh/0613.bmp
570.24	0.72	783	5	6	31	per	lib	low	mod	low	nt	cr	nh/0619_nh.bmp
570.96	0.72	784	6	6	26	per	lib	low	mod	low	tg	ht	wh/0503.bmp
571.68	0.72	785	6	7	31	mem	lib	mod	mod	mod	tg	ht	wh/0199.bmp
572.40	0.72	786	6	7	9	per	lib	mod	mod	mod	tg	ht	wh/0588.bmp
573.12	0.72	787	5	8	52	mem	con	mod	mod	low	nt	ht	nh/0032_nh.bmp
573.84	0.72	788	1	6	87	per	lib	mod	low	mod	nt	cr	nh/0598_nh.bmp
574.56	0.72	789	6	8	6	per	con	low	mod	low	nt	cr	nh/0608_nh.bmp
575.28	0.72	790	6	6	31	per	lib	low	mod	low	nt	cr	nh/0619_nh.bmp
576.00	0.72	791	1	7	59	per	lib	low	low	low	nt	fa	nh/0695_nh.bmp
576.72	0.72	792	4	8	58	mem	con	mod	mod	low	tg	ms	wh/0963.bmp
577.44	0.72	793	6	8	96	mem	lib	mod	mod	low	nt	ms	nh/0351_nh.bmp
578.16	0.72	794	6	8	88	mem	lib	mod	mod	low	tg	ms	wh/0404.bmp
578.88	0.72	795	4	5	100	mem	con	mod	mod	low	nt	ms	nh/0232_nh.bmp
579.60	0.72	796	6	8	62	mem	con	mod	mod	low	nt	ht	nh/0940_nh.bmp
580.32	0.72	797	5	8	58	mem	con	mod	mod	low	tg	ms	wh/0963.bmp
581.04	0.72	798	6	7	19	mem	lib	mod	mod	mod	tg	ms	wh/0222.bmp
581.76	0.72	799	4	6	99	per	con	mod	mod	mod	nt	cr	nh/0339_nh.bmp
582.48	0.72	800	6	7	25	mem	lib	mod	mod	mod	tg	ms	wh/0941.bmp
583.20	0.72	801	5	8	18	per	lib	low	mod	low	tg	ms	wh/0383.bmp
583.92	0.72	802	5	8	8	per	con	low	mod	low	nt	cr	nh/0082_nh.bmp
584.64	0.72	803	5	6	114	mem	con	mod	mod	mod	nt	ht	nh/0772_nh.bmp
585.36	0.72	804	6	8	22	per	lib	low	mod	low	tg	ht	wh/0125.bmp
586.08	0.72	805	1	8	117	per	con	mod	low	mod	nt	cr	nh/0626_nh.bmp
586.80	0.72	806	6	6	109	per	con	mod	mod	mod	tg	ht	wh/0748.bmp
587.52	0.72	807	6	6	114	mem	con	mod	mod	mod	nt	ht	nh/0772_nh.bmp
588.24	0.72	808	6	6	66	mem	lib	mod	mod	low	tg	ms	wh/0134.bmp
588.96	0.72	809	5	6	61	per	con	low	mod	low	nt	cr	nh/0336_nh.bmp
589.68	0.72	810	1	8	112	per	lib	mod	low	mod	tg	ht	wh/0846.bmp
590.40	0.72	811	5	8	11	per	con	low	mod	low	tg	ms	wh/0493.bmp
591.12	0.72	812	1	5	17	per	con	mod	low	mod	nt	cr	nh/0419_nh.bmp
591.84	0.72	813	6	8	58	mem	con	mod	mod	low	tg	ms	wh/0963.bmp
592.56	0.72	814	5	6	99	per	con	mod	mod	mod	nt	cr	nh/0339_nh.bmp
593.28	0.72	815	6	5	128	per	lib	mod	mod	mod	tg	ht	wh/0548.bmp
594.00	0.72	816	1	7	52	per	lib	low	low	low	nt	cr	nh/0710_nh.bmp
594.72	0.72	817	5	8	9	per	con	low	mod	low	tg	ht	wh/0123.bmp
595.44	0.72	818	5	5	114	per	lib	mod	mod	mod	nt	cr	nh/0947_nh.bmp
596.16	0.72	819	6	5	98	mem	con	mod	mod	low	nt	ms	nh/0077_nh.bmp
596.88	0.72	820	5	7	121	mem	con	mod	mod	mod	tg	ht	wh/0099.bmp
597.60	0.72	821	6	8	2	per	con	low	mod	low	tg	ht	wh/1023.bmp
598.32	0.72	822	6	5	110	mem	con	mod	mod	low	tg	ms	wh/0690.bmp
599.04	0.72	823	6	5	124	per	lib	mod	mod	mod	nt	cr	nh/0973_nh.bmp
599.76	0.72	824	6	7	1	per	lib	mod	mod	mod	nt	cr	nh/0095_nh.bmp
600.48	0.72	825	6	7	119	mem	con	mod	mod	mod	nt	ht	nh/0680_nh.bmp
601.20	0.72	826	6	6	73	mem	lib	mod	mod	low	tg	ht	wh/0338.bmp
601.92	0.72	827	6	6	61	per	con	low	mod	low	nt	cr	nh/0336_nh.bmp
602.64	0.72	828	6	6	60	per	con	low	mod	low	tg	ht	wh/0613.bmp
603.36	0.72	829	6	8	49	mem	con	mod	mod	low	nt	ms	nh/0080_nh.bmp
604.08	0.72	830	6	8	11	per	con	low	mod	low	tg	ms	wh/0493.bmp
604.80	0.72	831	6	6	21	per	lib	low	mod	low	tg	ms	wh/0577.bmp
605.52	0.72	832	6	7	21	mem	lib	mod	mod	mod	nt	ht	nh/0094_nh.bmp
606.24	0.72	833	1	6	36	mem	con	low	low	low	nt	ms	nh/0053_nh.bmp
606.96	0.72	834	1	5	62	mem	lib	low	low	mod	nt	ht	nh/0584_nh.bmp
607.68	0.72	835	6	8	52	mem	con	mod	mod	low	nt	ht	nh/0032_nh.bmp
608.40	0.72	836	6	5	73	mem	lib	mod	mod	mod	tg	ht	wh/0209.bmp
609.12	0.72	837	1	8	43	mem	con	low	low	low	tg	ms	wh/0173.bmp
609.84	0.72	838	6	7	5	per	lib	mod	mod	mod	tg	ms	wh/0497.bmp
610.56	0.72	839	5	6	105	per	con	mod	mod	mod	tg	ht	wh/0962.bmp
611.28	0.72	840	6	8	93	mem	lib	mod	mod	low	tg	ms	wh/0355.bmp
612.00	0.72	841	1	5	28	per	con	mod	low	mod	nt	cr	nh/0923_nh.bmp
612.72	0.72	842	6	7	121	mem	con	mod	mod	mod	tg	ht	wh/0099.bmp
613.44	0.72	843	5	8	57	mem	con	mod	mod	low	nt	ht	nh/0646_nh.bmp
614.16	0.72	844	1	6	88	per	lib	mod	low	mod	tg	ms	wh/0708.bmp
614.88	0.72	845	6	5	107	mem	con	mod	mod	low	tg	ht	wh/0361.bmp
615.60	0.72	846	1	8	75	mem	lib	low	low	mod	nt	ht	nh/0129_nh.bmp
616.32	0.72	847	6	6	104	per	con	mod	mod	mod	tg	ht	wh/0946.bmp
617.04	0.72	848	6	5	66	mem	lib	mod	mod	mod	nt	ms	nh/0650_nh.bmp
617.76	0.72	849	3	7	12	per	lib	mod	mod	mod	nt	cr	nh/0876_nh.bmp
618.48	0.72	850	5	5	72	mem	lib	mod	mod	mod	tg	ht	wh/0428.bmp
619.20	0.72	851	4	7	12	per	lib	mod	mod	mod	nt	cr	nh/0876_nh.bmp
619.92	0.72	852	5	8	94	mem	lib	mod	mod	low	nt	ht	nh/0758_nh.bmp
620.64	0.72	853	6	8	15	per	con	low	mod	low	nt	cr	nh/0964_nh.bmp
621.36	0.72	854	6	8	57	mem	con	mod	mod	low	nt	ht	nh/0646_nh.bmp
622.08	0.72	855	6	6	124	mem	con	mod	mod	mod	nt	ht	nh/0716_nh.bmp
622.80	0.72	856	6	6	18	per	lib	low	mod	low	tg	ms	wh/0508.bmp
623.52	0.72	857	1	8	122	per	con	mod	low	mod	tg	ht	wh/0044.bmp
624.24	0.72	858	6	8	94	mem	lib	mod	mod	low	nt	ht	nh/0758_nh.bmp
624.96	0.72	859	1	8	127	per	con	mod	low	mod	tg	ht	wh/0306.bmp
625.68	0.72	860	6	5	114	per	lib	mod	mod	mod	nt	cr	nh/0947_nh.bmp
626.40	0.72	861	6	5	117	per	lib	mod	mod	mod	tg	ht	wh/0784.bmp
627.12	0.72	862	5	5	100	mem	con	mod	mod	low	nt	ms	nh/0232_nh.bmp
627.84	0.72	863	6	6	117	mem	con	mod	mod	mod	tg	ms	wh/0371.bmp
628.56	0.72	864	6	8	10	per	con	low	mod	low	nt	cr	nh/0635_nh.bmp
629.28	0.72	865	5	6	122	mem	con	mod	mod	mod	tg	ms	wh/0928.bmp
630.00	0.72	866	6	6	25	per	lib	low	mod	low	nt	cr	nh/0489_nh.bmp
630.72	0.72	867	6	5	72	mem	lib	mod	mod	mod	tg	ht	wh/0428.bmp
631.44	0.72	868	6	6	100	per	con	mod	mod	mod	nt	fa	nh/0350_nh.bmp
632.16	0.72	869	5	7	12	per	lib	mod	mod	mod	nt	cr	nh/0876_nh.bmp
632.88	0.72	870	5	6	49	per	con	low	mod	low	nt	cr	nh/0150_nh.bmp
633.60	0.72	871	6	5	67	mem	lib	mod	mod	mod	tg	ms	wh/0805.bmp
634.32	0.72	872	6	5	69	mem	lib	mod	mod	mod	tg	ht	wh/0273.bmp
635.04	0.72	873	6	5	109	mem	con	mod	mod	low	nt	ht	nh/0036_nh.bmp
635.76	0.72	874	6	6	49	per	con	low	mod	low	nt	cr	nh/0150_nh.bmp
636.48	0.72	875	1	5	58	mem	lib	low	low	mod	tg	ht	wh/0966.bmp
637.20	0.72	876	6	7	26	mem	lib	mod	mod	mod	nt	ht	nh/0319_nh.bmp
637.92	0.72	877	6	8	8	per	con	low	mod	low	nt	cr	nh/0082_nh.bmp
638.64	0.72	878	6	6	105	per	con	mod	mod	mod	tg	ht	wh/0962.bmp
639.36	0.72	879	6	7	4	per	lib	mod	mod	mod	nt	cr	nh/0697_nh.bmp
640.08	0.72	880	1	8	70	mem	lib	low	low	mod	tg	ht	wh/0278.bmp
640.80	0.72	881	6	6	99	per	con	mod	mod	mod	nt	cr	nh/0339_nh.bmp
641.52	0.72	882	6	8	9	per	con	low	mod	low	tg	ht	wh/0123.bmp
642.24	0.72	883	6	5	111	mem	con	mod	mod	low	tg	ht	wh/0760.bmp
642.96	0.72	884	1	5	45	mem	con	low	low	mod	tg	ms	wh/0461.bmp
643.68	0.72	885	6	8	95	mem	lib	mod	mod	low	nt	ht	nh/0256_nh.bmp
644.40	0.72	886	6	7	95	per	con	mod	mod	mod	tg	ht	wh/0684.bmp
645.12	0.72	887	6	6	122	mem	con	mod	mod	mod	tg	ms	wh/0928.bmp
645.84	0.72	888	6	7	12	per	lib	mod	mod	mod	nt	cr	nh/0876_nh.bmp
646.56	0.72	889	5	6	52	per	con	low	mod	low	tg	ms	wh/0802.bmp
647.28	0.72	890	6	6	101	per	con	mod	mod	mod	tg	ms	wh/0957.bmp
648.00	0.72	891	6	8	18	per	lib	low	mod	low	tg	ms	wh/0383.bmp
648.72	0.72	892	6	6	52	per	con	low	mod	low	tg	ms	wh/0802.bmp
649.44	0.72	893	6	5	122	per	lib	mod	mod	mod	nt	cr	nh/0462_nh.bmp
650.16	0.72	894	6	8	90	mem	lib	mod	mod	low	nt	ms	nh/0364_nh.bmp
650.88	0.72	895	6	5	100	mem	con	mod	mod	low	nt	ms	nh/0232_nh.bmp
651.60	0.72	896	1	5	5	per	con	low	low	low	nt	cr	nh/0431_nh.bmp
