onset	duration	trial	pres	ts_blk	ts_trl	task	crit	disc	mem_disc	per_disc	per_type	accuracy	stim_file
7.20	0.72	1	1	1	79	per	con	mod	mod	mod	tg	ms	wh/0538.bmp
7.92	0.72	2	1	3	102	per	lib	low	mod	low	tg	ht	wh/0124.bmp
8.64	0.72	3	1	2	119	mem	lib	mod	mod	mod	tg	ht	wh/0365.bmp
9.36	0.72	4	1	2	107	mem	con	low	low	mod	nt	ht	nh/0498_nh.bmp
10.08	0.72	5	1	2	77	mem	lib	low	low	low	tg	ms	wh/0127.bmp
10.80	0.72	6	1	2	20	mem	con	mod	mod	mod	tg	ht	wh/0664.bmp
11.52	0.72	7	1	1	83	mem	con	low	low	low	tg	ms	wh/0824.bmp
12.24	0.72	8	1	3	103	per	lib	low	mod	low	tg	ht	wh/0661.bmp
12.96	0.72	9	1	4	75	mem	con	mod	mod	mod	tg	ms	wh/0137.bmp
13.68	0.72	10	1	4	36	per	lib	mod	mod	mod	tg	ms	wh/0104.bmp
14.40	0.72	11	1	4	1	per	con	mod	mod	mod	tg	ms	wh/0901.bmp
15.12	0.72	12	1	1	3	per	lib	low	low	low	tg	ht	wh/0632.bmp
15.84	0.72	13	1	4	50	mem	lib	mod	mod	low	tg	ht	wh/0302.bmp
16.56	0.72	14	1	4	35	per	lib	mod	mod	mod	tg	ht	wh/0761.bmp
17.28	0.72	15	1	1	29	per	lib	mod	low	mod	tg	ht	wh/0192.bmp
18.00	0.72	16	1	3	57	mem	con	mod	mod	low	tg	ms	wh/0412.bmp
18.72	0.72	17	1	1	78	per	con	mod	mod	mod	tg	ht	wh/0343.bmp
19.44	0.72	18	1	4	26	per	con	low	mod	low	tg	ht	wh/0295.bmp
20.16	0.72	19	1	2	69	mem	lib	low	low	low	nt	ht	nh/0720_nh.bmp
20.88	0.72	20	1	2	45	per	lib	low	mod	low	tg	ht	wh/0512.bmp
21.60	0.72	21	1	4	64	mem	lib	mod	mod	low	nt	ht	nh/0259_nh.bmp
22.32	0.72	22	2	2	119	mem	lib	mod	mod	mod	tg	ht	wh/0365.bmp
23.04	0.72	23	1	4	9	per	con	mod	mod	mod	tg	ht	wh/0742.bmp
23.76	0.72	24	1	2	115	mem	lib	mod	mod	mod	tg	ht	wh/0604.bmp
24.48	0.72	25	1	1	76	per	con	mod	mod	mod	tg	ht	wh/0705.bmp
25.20	0.72	26	1	4	39	per	lib	mod	mod	mod	nt	cr	nh/0674_nh.bmp
25.92	0.72	27	2	1	78	per	con	mod	mod	mod	tg	ht	wh/0343.bmp
26.64	0.72	28	2	4	50	mem	lib	mod	mod	low	tg	ht	wh/0302.bmp
27.36	0.72	29	1	2	47	per	lib	low	mod	low	nt	cr	nh/0757_nh.bmp
28.08	0.72	30	1	3	36	per	con	mod	low	mod	tg	ms	wh/0944.bmp
28.80	0.72	31	1	2	18	mem	con	mod	mod	mod	tg	ms	wh/0448.bmp
29.52	0.72	32	1	1	126	mem	lib	mod	mod	low	nt	ht	nh/0195_nh.bmp
30.24	0.72	33	1	3	8	per	con	low	low	low	nt	fa	nh/0107_nh.bmp
30.96	0.72	34	1	4	20	per	con	low	mod	low	nt	cr	nh/0791_nh.bmp
31.68	0.72	35	2	2	47	per	lib	low	mod	low	nt	cr	nh/0757_nh.bmp
32.40	0.72	36	1	2	85	per	lib	mod	mod	mod	nt	cr	nh/0834_nh.bmp
33.12	0.72	37	1	1	69	per	con	mod	mod	mod	tg	ht	wh/0151.bmp
33.84	0.72	38	1	4	61	mem	lib	mod	mod	low	tg	ms	wh/0882.bmp
34.56	0.72	39	1	1	71	per	con	mod	mod	mod	nt	cr	nh/0282_nh.bmp
35.28	0.72	40	1	2	92	per	lib	mod	mod	mod	nt	cr	nh/0344_nh.bmp
36.00	0.72	41	1	4	72	mem	con	mod	mod	mod	tg	ht	wh/0738.bmp
36.72	0.72	42	1	1	114	mem	lib	mod	mod	low	tg	ht	wh/0641.bmp
37.44	0.72	43	1	4	77	mem	con	mod	mod	mod	nt	ht	nh/0279_nh.bmp
38.16	0.72	44	1	3	120	mem	lib	mod	mod	mod	nt	ht	nh/0331_nh.bmp
38.88	0.72	45	1	4	41	per	lib	mod	mod	mod	nt	cr	nh/0583_nh.bmp
39.60	0.72	46	1	3	54	mem	con	mod	mod	low	tg	ht	wh/0263.bmp
40.32	0.72	47	1	3	60	mem	con	mod	mod	low	tg	ms	wh/0293.bmp
41.04	0.72	48	1	1	105	mem	con	mod	mod	low	tg	ht	wh/0410.bmp
41.76	0.72	49	1	3	80	per	lib	mod	low	mod	tg	ht	wh/0467.bmp
42.48	0.72	50	1	1	66	per	con	mod	mod	mod	nt	cr	nh/0753_nh.bmp
43.20	0.72	51	1	3	73	per	lib	mod	low	mod	tg	ht	wh/0470.bmp
43.92	0.72	52	1	4	38	per	lib	mod	mod	mod	tg	ht	wh/0983.bmp
44.64	0.72	53	1	4	19	per	con	low	mod	low	tg	ms	wh/0415.bmp
45.36	0.72	54	1	4	12	per	con	mod	mod	mod	tg	ht	wh/0320.bmp
46.08	0.72	55	1	1	63	per	con	low	low	low	tg	ms	wh/0877.bmp
46.80	0.72	56	1	4	46	per	lib	mod	mod	mod	nt	cr	nh/0348_nh.bmp
47.52	0.72	57	1	1	49	per	con	low	low	low	nt	cr	nh/0653_nh.bmp
48.24	0.72	58	1	2	48	per	lib	low	mod	low	tg	ht	wh/0976.bmp
48.96	0.72	59	1	1	108	mem	con	mod	mod	low	nt	ht	nh/0575_nh.bmp
49.68	0.72	60	2	3	57	mem	con	mod	mod	low	tg	ms	wh/0412.bmp
50.40	0.72	61	1	3	52	mem	con	mod	mod	low	nt	n/a	nh/0554_nh.bmp
51.12	0.72	62	2	4	46	per	lib	mod	mod	mod	nt	cr	nh/0348_nh.bmp
51.84	0.72	63	2	3	103	per	lib	low	mod	low	tg	ht	wh/0661.bmp
52.56	0.72	64	1	3	59	mem	con	mod	mod	low	tg	ht	wh/0459.bmp
53.28	0.72	65	2	1	69	per	con	mod	mod	mod	tg	ht	wh/0151.bmp
54.00	0.72	66	1	3	42	per	con	mod	low	mod	nt	cr	nh/0858_nh.bmp
54.72	0.72	67	2	4	26	per	con	low	mod	low	tg	ht	wh/0295.bmp
55.44	0.72	68	2	4	35	per	lib	mod	mod	mod	tg	ht	wh/0761.bmp
56.16	0.72	69	1	2	5	per	con	low	mod	low	nt	cr	nh/0798_nh.bmp
56.88	0.72	70	1	2	122	mem	lib	mod	mod	mod	nt	ht	nh/0072_nh.bmp
57.60	0.72	71	1	3	53	mem	con	mod	mod	low	nt	ms	nh/0914_nh.bmp
58.32	0.72	72	2	2	48	per	lib	low	mod	low	tg	ht	wh/0976.bmp
59.04	0.72	73	2	3	60	mem	con	mod	mod	low	tg	ms	wh/0293.bmp
59.76	0.72	74	1	4	16	per	con	mod	mod	mod	nt	cr	nh/1010_nh.bmp
60.48	0.72	75	1	3	110	per	lib	low	mod	low	nt	fa	nh/0203_nh.bmp
61.20	0.72	76	1	3	14	per	con	low	low	low	tg	ms	wh/0211.bmp
61.92	0.72	77	1	3	93	mem	con	low	low	mod	nt	ms	nh/0567_nh.bmp
62.64	0.72	78	2	3	120	mem	lib	mod	mod	mod	nt	ht	nh/0331_nh.bmp
63.36	0.72	79	1	3	116	mem	lib	mod	mod	mod	tg	ht	wh/0628.bmp
64.08	0.72	80	1	3	99	per	lib	low	mod	low	tg	ms	wh/0988.bmp
64.80	0.72	81	1	1	109	mem	con	mod	mod	low	nt	ht	nh/0315_nh.bmp
65.52	0.72	82	1	3	58	mem	con	mod	mod	low	nt	ht	nh/0438_nh.bmp
66.24	0.72	83	1	2	81	per	lib	mod	mod	mod	nt	cr	nh/0358_nh.bmp
66.96	0.72	84	1	4	52	mem	lib	mod	mod	low	tg	ht	wh/0496.bmp
67.68	0.72	85	1	2	2	per	con	low	mod	low	nt	cr	nh/0424_nh.bmp
68.40	0.72	86	2	2	18	mem	con	mod	mod	mod	tg	ms	wh/0448.bmp
69.12	0.72	87	1	1	32	per	lib	mod	low	mod	nt	cr	nh/0894_nh.bmp
69.84	0.72	88	2	3	54	mem	con	mod	mod	low	tg	ht	wh/0263.bmp
70.56	0.72	89	2	3	53	mem	con	mod	mod	low	nt	ms	nh/0914_nh.bmp
71.28	0.72	90	1	1	9	per	lib	low	low	low	nt	n/a	nh/0310_nh.bmp
72.00	0.72	91	1	4	31	per	con	low	mod	low	nt	cr	nh/0494_nh.bmp
72.72	0.72	92	2	2	122	mem	lib	mod	mod	mod	nt	ht	nh/0072_nh.bmp
73.44	0.72	93	2	4	64	mem	lib	mod	mod	low	nt	ht	nh/0259_nh.bmp
74.16	0.72	94	1	2	15	per	con	low	mod	low	tg	ms	wh/0523.bmp
74.88	0.72	95	1	4	89	mem	con	low	low	low	tg	ms	wh/0916.bmp
75.60	0.72	96	2	3	110	per	lib	low	mod	low	nt	fa	nh/0203_nh.bmp
76.32	0.72	97	3	2	47	per	lib	low	mod	low	nt	cr	nh/0757_nh.bmp
77.04	0.72	98	1	2	93	per	lib	mod	mod	mod	nt	cr	nh/0759_nh.bmp
77.76	0.72	99	1	4	102	per	lib	low	low	low	nt	fa	nh/0161_nh.bmp
78.48	0.72	100	1	2	32	mem	con	mod	mod	mod	nt	ht	nh/0689_nh.bmp
79.20	0.72	101	1	2	19	mem	con	mod	mod	mod	nt	ht	nh/0806_nh.bmp
79.92	0.72	102	2	2	20	mem	con	mod	mod	mod	tg	ht	wh/0664.bmp
80.64	0.72	103	1	3	115	mem	lib	mod	mod	mod	tg	ht	wh/0333.bmp
81.36	0.72	104	1	4	80	mem	con	mod	mod	mod	tg	ht	wh/0796.bmp
82.08	0.72	105	1	3	63	mem	con	mod	mod	low	nt	ht	nh/0765_nh.bmp
82.80	0.72	106	1	4	5	per	con	mod	mod	mod	nt	cr	nh/0487_nh.bmp
83.52	0.72	107	1	2	41	per	lib	low	mod	low	nt	cr	nh/0174_nh.bmp
84.24	0.72	108	1	1	28	per	lib	mod	low	mod	nt	fa	nh/0214_nh.bmp
84.96	0.72	109	2	2	92	per	lib	mod	mod	mod	nt	cr	nh/0344_nh.bmp
85.68	0.72	110	1	4	13	per	con	mod	mod	mod	nt	cr	nh/0576_nh.bmp
86.40	0.72	111	1	4	44	per	lib	mod	mod	mod	nt	cr	nh/0970_nh.bmp
87.12	0.72	112	2	1	109	mem	con	mod	mod	low	nt	ht	nh/0315_nh.bmp
87.84	0.72	113	1	4	37	per	lib	mod	mod	mod	tg	ht	wh/0413.bmp
88.56	0.72	114	1	1	103	mem	con	mod	mod	low	nt	ms	nh/0509_nh.bmp
89.28	0.72	115	1	4	59	mem	lib	mod	mod	low	nt	ht	nh/0422_nh.bmp
90.00	0.72	116	2	2	45	per	lib	low	mod	low	tg	ht	wh/0512.bmp
90.72	0.72	117	3	2	119	mem	lib	mod	mod	mod	tg	ht	wh/0365.bmp
91.44	0.72	118	3	2	45	per	lib	low	mod	low	tg	ht	wh/0512.bmp
92.16	0.72	119	1	2	118	mem	lib	mod	mod	mod	nt	ht	nh/0061_nh.bmp
92.88	0.72	120	1	4	24	per	con	low	mod	low	tg	ht	wh/0312.bmp
93.60	0.72	121	4	2	47	per	lib	low	mod	low	nt	cr	nh/0757_nh.bmp
94.32	0.72	122	2	4	61	mem	lib	mod	mod	low	tg	ms	wh/0882.bmp
95.04	0.72	123	1	1	127	mem	lib	mod	mod	low	tg	ht	wh/0454.bmp
95.76	0.72	124	1	2	9	per	con	low	mod	low	tg	ht	wh/0390.bmp
96.48	0.72	125	1	3	104	per	lib	low	mod	low	nt	fa	nh/0323_nh.bmp
97.20	0.72	126	2	1	103	mem	con	mod	mod	low	nt	ms	nh/0509_nh.bmp
97.92	0.72	127	1	4	124	mem	lib	low	low	low	tg	ht	wh/0471.bmp
98.64	0.72	128	1	2	46	per	lib	low	mod	low	nt	fa	nh/0067_nh.bmp
99.36	0.72	129	2	3	59	mem	con	mod	mod	low	tg	ht	wh/0459.bmp
100.08	0.72	130	1	2	82	per	lib	mod	mod	mod	tg	ms	wh/0809.bmp
100.80	0.72	131	2	4	52	mem	lib	mod	mod	low	tg	ht	wh/0496.bmp
101.52	0.72	132	3	4	64	mem	lib	mod	mod	low	nt	ht	nh/0259_nh.bmp
102.24	0.72	133	1	1	89	mem	con	low	low	low	tg	n/a	wh/0356.bmp
102.96	0.72	134	1	1	115	mem	lib	mod	mod	low	nt	ht	nh/0400_nh.bmp
103.68	0.72	135	2	1	126	mem	lib	mod	mod	low	nt	ht	nh/0195_nh.bmp
104.40	0.72	136	1	2	14	per	con	low	mod	low	tg	ht	wh/0291.bmp
105.12	0.72	137	2	2	46	per	lib	low	mod	low	nt	fa	nh/0067_nh.bmp
105.84	0.72	138	3	3	54	mem	con	mod	mod	low	tg	ht	wh/0263.bmp
106.56	0.72	139	1	2	31	mem	con	mod	mod	mod	nt	ms	nh/0479_nh.bmp
107.28	0.72	140	1	3	105	per	lib	low	mod	low	nt	fa	nh/0368_nh.bmp
108.00	0.72	141	1	3	124	mem	lib	mod	mod	mod	tg	ht	wh/0562.bmp
108.72	0.72	142	3	1	109	mem	con	mod	mod	low	nt	ht	nh/0315_nh.bmp
109.44	0.72	143	2	1	71	per	con	mod	mod	mod	nt	cr	nh/0282_nh.bmp
110.16	0.72	144	1	1	97	mem	con	mod	mod	low	nt	ms	nh/0081_nh.bmp
110.88	0.72	145	2	2	2	per	con	low	mod	low	nt	cr	nh/0424_nh.bmp
111.60	0.72	146	1	4	30	per	con	low	mod	low	tg	ms	wh/0444.bmp
112.32	0.72	147	2	4	24	per	con	low	mod	low	tg	ht	wh/0312.bmp
113.04	0.72	148	2	4	80	mem	con	mod	mod	mod	tg	ht	wh/0796.bmp
113.76	0.72	149	1	1	106	mem	con	mod	mod	low	tg	ht	wh/0030.bmp
114.48	0.72	150	1	2	43	per	lib	low	mod	low	tg	ht	wh/0792.bmp
115.20	0.72	151	1	3	113	mem	lib	mod	mod	mod	tg	ht	wh/0799.bmp
115.92	0.72	152	3	3	110	per	lib	low	mod	low	nt	fa	nh/0203_nh.bmp
116.64	0.72	153	3	3	103	per	lib	low	mod	low	tg	ht	wh/0661.bmp
117.36	0.72	154	1	1	52	per	con	low	low	low	tg	ht	wh/0242.bmp
118.08	0.72	155	1	4	49	mem	lib	mod	mod	low	nt	ht	nh/0671_nh.bmp
118.80	0.72	156	1	2	12	per	con	low	mod	low	tg	ht	wh/0131.bmp
119.52	0.72	157	1	2	24	mem	con	mod	mod	mod	tg	ht	wh/0229.bmp
120.24	0.72	158	1	1	128	mem	lib	mod	mod	low	tg	ht	wh/0132.bmp
120.96	0.72	159	2	2	31	mem	con	mod	mod	mod	nt	ms	nh/0479_nh.bmp
121.68	0.72	160	2	1	114	mem	lib	mod	mod	low	tg	ht	wh/0641.bmp
122.40	0.72	161	2	4	12	per	con	mod	mod	mod	tg	ht	wh/0320.bmp
123.12	0.72	162	1	4	51	mem	lib	mod	mod	low	nt	ht	nh/0672_nh.bmp
123.84	0.72	163	1	3	1	per	con	low	low	low	nt	cr	nh/0504_nh.bmp
124.56	0.72	164	2	3	102	per	lib	low	mod	low	tg	ht	wh/0124.bmp
125.28	0.72	165	2	4	19	per	con	low	mod	low	tg	ms	wh/0415.bmp
126.00	0.72	166	3	2	122	mem	lib	mod	mod	mod	nt	ht	nh/0072_nh.bmp
126.72	0.72	167	3	4	46	per	lib	mod	mod	mod	nt	cr	nh/0348_nh.bmp
127.44	0.72	168	2	4	39	per	lib	mod	mod	mod	nt	cr	nh/0674_nh.bmp
128.16	0.72	169	2	2	32	mem	con	mod	mod	mod	nt	ht	nh/0689_nh.bmp
128.88	0.72	170	1	3	47	per	con	mod	low	mod	nt	fa	nh/0886_nh.bmp
129.60	0.72	171	3	2	20	mem	con	mod	mod	mod	tg	ht	wh/0664.bmp
130.32	0.72	172	2	1	127	mem	lib	mod	mod	low	tg	ht	wh/0454.bmp
131.04	0.72	173	2	2	14	per	con	low	mod	low	tg	ht	wh/0291.bmp
131.76	0.72	174	2	2	12	per	con	low	mod	low	tg	ht	wh/0131.bmp
132.48	0.72	175	2	4	37	per	lib	mod	mod	mod	tg	ht	wh/0413.bmp
133.20	0.72	176	3	2	46	per	lib	low	mod	low	nt	fa	nh/0067_nh.bmp
133.92	0.72	177	1	4	10	per	con	mod	mod	mod	tg	ht	wh/0071.bmp
134.64	0.72	178	1	2	91	per	lib	mod	mod	mod	tg	ht	wh/0039.bmp
135.36	0.72	179	1	1	124	mem	lib	mod	mod	low	nt	ht	nh/0283_nh.bmp
136.08	0.72	180	1	4	2	per	con	mod	mod	mod	nt	cr	nh/1006_nh.bmp
136.80	0.72	181	2	2	85	per	lib	mod	mod	mod	nt	cr	nh/0834_nh.bmp
137.52	0.72	182	2	1	105	mem	con	mod	mod	low	tg	ht	wh/0410.bmp
138.24	0.72	183	1	4	84	mem	con	low	low	low	tg	ms	wh/0989.bmp
138.96	0.72	184	2	2	24	mem	con	mod	mod	mod	tg	ht	wh/0229.bmp
139.68	0.72	185	3	4	80	mem	con	mod	mod	mod	tg	ht	wh/0796.bmp
140.40	0.72	186	2	2	9	per	con	low	mod	low	tg	ht	wh/0390.bmp
141.12	0.72	187	1	2	36	per	lib	low	mod	low	tg	ms	wh/0683.bmp
141.84	0.72	188	3	2	24	mem	con	mod	mod	mod	tg	ht	wh/0229.bmp
142.56	0.72	189	2	1	115	mem	lib	mod	mod	low	nt	ht	nh/0400_nh.bmp
143.28	0.72	190	2	1	76	per	con	mod	mod	mod	tg	ht	wh/0705.bmp
144.00	0.72	191	1	2	68	mem	lib	low	low	low	tg	ht	wh/0808.bmp
144.72	0.72	192	2	1	66	per	con	mod	mod	mod	nt	cr	nh/0753_nh.bmp
145.44	0.72	193	1	1	122	mem	lib	mod	mod	low	tg	ht	wh/0703.bmp
146.16	0.72	194	3	2	31	mem	con	mod	mod	mod	nt	ms	nh/0479_nh.bmp
146.88	0.72	195	3	1	76	per	con	mod	mod	mod	tg	ht	wh/0705.bmp
147.60	0.72	196	4	2	20	mem	con	mod	mod	mod	tg	ht	wh/0664.bmp
148.32	0.72	197	1	2	73	mem	lib	low	low	low	nt	ms	nh/0430_nh.bmp
149.04	0.72	198	1	2	51	per	con	mod	low	mod	nt	cr	nh/0474_nh.bmp
149.76	0.72	199	3	1	105	mem	con	mod	mod	low	tg	ht	wh/0410.bmp
150.48	0.72	200	1	4	100	per	lib	low	low	low	tg	ms	wh/0783.bmp
151.20	0.72	201	3	4	12	per	con	mod	mod	mod	tg	ht	wh/0320.bmp
151.92	0.72	202	2	2	43	per	lib	low	mod	low	tg	ht	wh/0792.bmp
152.64	0.72	203	2	1	122	mem	lib	mod	mod	low	tg	ht	wh/0703.bmp
153.36	0.72	204	2	1	106	mem	con	mod	mod	low	tg	ht	wh/0030.bmp
154.08	0.72	205	4	2	122	mem	lib	mod	mod	mod	nt	ht	nh/0072_nh.bmp
154.80	0.72	206	2	4	1	per	con	mod	mod	mod	tg	ms	wh/0901.bmp
155.52	0.72	207	4	1	105	mem	con	mod	mod	low	tg	ht	wh/0410.bmp
156.24	0.72	208	1	3	125	mem	lib	mod	mod	mod	nt	ht	nh/0359_nh.bmp
156.96	0.72	209	3	3	120	mem	lib	mod	mod	mod	nt	ht	nh/0331_nh.bmp
157.68	0.72	210	2	2	15	per	con	low	mod	low	tg	ms	wh/0523.bmp
158.40	0.72	211	1	4	66	mem	con	mod	mod	mod	nt	ms	nh/0925_nh.bmp
159.12	0.72	212	2	4	75	mem	con	mod	mod	mod	tg	ms	wh/0137.bmp
159.84	0.72	213	1	1	99	mem	con	mod	mod	low	tg	ht	wh/0166.bmp
160.56	0.72	214	3	3	53	mem	con	mod	mod	low	nt	ms	nh/0914_nh.bmp
161.28	0.72	215	2	3	63	mem	con	mod	mod	low	nt	ht	nh/0765_nh.bmp
162.00	0.72	216	1	4	29	per	con	low	mod	low	nt	cr	nh/0007_nh.bmp
162.72	0.72	217	4	3	53	mem	con	mod	mod	low	nt	ms	nh/0914_nh.bmp
163.44	0.72	218	3	1	69	per	con	mod	mod	mod	tg	ht	wh/0151.bmp
164.16	0.72	219	2	2	36	per	lib	low	mod	low	tg	ms	wh/0683.bmp
164.88	0.72	220	1	3	81	mem	con	low	low	mod	nt	ms	nh/0616_nh.bmp
165.60	0.72	221	4	1	109	mem	con	mod	mod	low	nt	ht	nh/0315_nh.bmp
166.32	0.72	222	3	1	122	mem	lib	mod	mod	low	tg	ht	wh/0703.bmp
167.04	0.72	223	2	1	108	mem	con	mod	mod	low	nt	ht	nh/0575_nh.bmp
167.76	0.72	224	3	4	61	mem	lib	mod	mod	low	tg	ms	wh/0882.bmp
168.48	0.72	225	1	2	53	per	con	mod	low	mod	nt	cr	nh/0409_nh.bmp
169.20	0.72	226	1	3	119	mem	lib	mod	mod	mod	nt	ht	nh/0097_nh.bmp
169.92	0.72	227	1	1	77	per	con	mod	mod	mod	nt	cr	nh/0445_nh.bmp
170.64	0.72	228	2	4	30	per	con	low	mod	low	tg	ms	wh/0444.bmp
171.36	0.72	229	1	3	31	mem	lib	low	low	mod	tg	ht	wh/0102.bmp
172.08	0.72	230	3	1	106	mem	con	mod	mod	low	tg	ht	wh/0030.bmp
172.80	0.72	231	1	2	7	per	con	low	mod	low	nt	cr	nh/0615_nh.bmp
173.52	0.72	232	3	2	18	mem	con	mod	mod	mod	tg	ms	wh/0448.bmp
174.24	0.72	233	4	1	76	per	con	mod	mod	mod	tg	ht	wh/0705.bmp
174.96	0.72	234	1	3	20	mem	lib	low	low	mod	tg	ht	wh/0723.bmp
175.68	0.72	235	3	4	37	per	lib	mod	mod	mod	tg	ht	wh/0413.bmp
176.40	0.72	236	1	4	78	mem	con	mod	mod	mod	tg	ms	wh/0961.bmp
177.12	0.72	237	1	3	37	per	con	mod	low	mod	nt	cr	nh/0719_nh.bmp
177.84	0.72	238	1	1	125	mem	lib	mod	mod	low	nt	ht	nh/1000_nh.bmp
178.56	0.72	239	3	2	32	mem	con	mod	mod	mod	nt	ht	nh/0689_nh.bmp
179.28	0.72	240	3	1	126	mem	lib	mod	mod	low	nt	ht	nh/0195_nh.bmp
180.00	0.72	241	2	3	105	per	lib	low	mod	low	nt	fa	nh/0368_nh.bmp
180.72	0.72	242	1	2	54	per	con	mod	low	mod	tg	ht	wh/0620.bmp
181.44	0.72	243	2	4	2	per	con	mod	mod	mod	nt	cr	nh/1006_nh.bmp
182.16	0.72	244	1	3	118	mem	lib	mod	mod	mod	nt	ht	nh/0313_nh.bmp
182.88	0.72	245	2	1	125	mem	lib	mod	mod	low	nt	ht	nh/1000_nh.bmp
183.60	0.72	246	4	1	69	per	con	mod	mod	mod	tg	ht	wh/0151.bmp
184.32	0.72	247	3	2	36	per	lib	low	mod	low	tg	ms	wh/0683.bmp
185.04	0.72	248	1	4	122	mem	lib	low	low	low	tg	ms	wh/0987.bmp
185.76	0.72	249	3	4	35	per	lib	mod	mod	mod	tg	ht	wh/0761.bmp
186.48	0.72	250	3	4	39	per	lib	mod	mod	mod	nt	cr	nh/0674_nh.bmp
187.20	0.72	251	3	1	108	mem	con	mod	mod	low	nt	ht	nh/0575_nh.bmp
187.92	0.72	252	4	3	110	per	lib	low	mod	low	nt	fa	nh/0203_nh.bmp
188.64	0.72	253	4	4	12	per	con	mod	mod	mod	tg	ht	wh/0320.bmp
189.36	0.72	254	2	2	81	per	lib	mod	mod	mod	nt	cr	nh/0358_nh.bmp
190.08	0.72	255	1	3	101	per	lib	low	mod	low	tg	ms	wh/0511.bmp
190.80	0.72	256	3	2	15	per	con	low	mod	low	tg	ms	wh/0523.bmp
191.52	0.72	257	2	3	125	mem	lib	mod	mod	mod	nt	ht	nh/0359_nh.bmp
192.24	0.72	258	2	4	72	mem	con	mod	mod	mod	tg	ht	wh/0738.bmp
192.96	0.72	259	1	3	41	per	con	mod	low	mod	nt	cr	nh/0440_nh.bmp
193.68	0.72	260	2	3	101	per	lib	low	mod	low	tg	ms	wh/0511.bmp
194.40	0.72	261	3	4	50	mem	lib	mod	mod	low	tg	ht	wh/0302.bmp
195.12	0.72	262	2	3	58	mem	con	mod	mod	low	nt	ht	nh/0438_nh.bmp
195.84	0.72	263	2	1	79	per	con	mod	mod	mod	tg	ms	wh/0538.bmp
196.56	0.72	264	4	4	35	per	lib	mod	mod	mod	tg	ht	wh/0761.bmp
197.28	0.72	265	2	4	77	mem	con	mod	mod	mod	nt	ht	nh/0279_nh.bmp
198.00	0.72	266	2	2	19	mem	con	mod	mod	mod	nt	ht	nh/0806_nh.bmp
198.72	0.72	267	1	3	77	per	lib	mod	low	mod	tg	ms	wh/0913.bmp
199.44	0.72	268	2	2	5	per	con	low	mod	low	nt	cr	nh/0798_nh.bmp
200.16	0.72	269	2	4	13	per	con	mod	mod	mod	nt	cr	nh/0576_nh.bmp
200.88	0.72	270	1	4	88	mem	con	low	low	low	nt	ms	nh/0250_nh.bmp
201.60	0.72	271	3	1	66	per	con	mod	mod	mod	nt	cr	nh/0753_nh.bmp
202.32	0.72	272	1	1	93	mem	con	low	low	low	nt	ht	nh/0276_nh.bmp
203.04	0.72	273	3	3	102	per	lib	low	mod	low	tg	ht	wh/0124.bmp
203.76	0.72	274	4	4	64	mem	lib	mod	mod	low	nt	ht	nh/0259_nh.bmp
204.48	0.72	275	3	4	72	mem	con	mod	mod	mod	tg	ht	wh/0738.bmp
205.20	0.72	276	3	3	60	mem	con	mod	mod	low	tg	ms	wh/0293.bmp
205.92	0.72	277	4	4	80	mem	con	mod	mod	mod	tg	ht	wh/0796.bmp
206.64	0.72	278	1	1	55	per	con	low	low	low	nt	cr	nh/0713_nh.bmp
207.36	0.72	279	1	2	63	per	con	mod	low	mod	tg	ms	wh/0969.bmp
208.08	0.72	280	3	3	63	mem	con	mod	mod	low	nt	ht	nh/0765_nh.bmp
208.80	0.72	281	3	1	114	mem	lib	mod	mod	low	tg	ht	wh/0641.bmp
209.52	0.72	282	3	2	92	per	lib	mod	mod	mod	nt	cr	nh/0344_nh.bmp
210.24	0.72	283	3	4	77	mem	con	mod	mod	mod	nt	ht	nh/0279_nh.bmp
210.96	0.72	284	2	3	113	mem	lib	mod	mod	mod	tg	ht	wh/0799.bmp
211.68	0.72	285	2	3	99	per	lib	low	mod	low	tg	ms	wh/0988.bmp
212.40	0.72	286	2	4	51	mem	lib	mod	mod	low	nt	ht	nh/0672_nh.bmp
213.12	0.72	287	2	4	20	per	con	low	mod	low	nt	cr	nh/0791_nh.bmp
213.84	0.72	288	4	1	126	mem	lib	mod	mod	low	nt	ht	nh/0195_nh.bmp
214.56	0.72	289	1	4	60	mem	lib	mod	mod	low	tg	ht	wh/0212.bmp
215.28	0.72	290	3	4	19	per	con	low	mod	low	tg	ms	wh/0415.bmp
216.00	0.72	291	1	4	126	mem	lib	low	low	low	tg	ht	wh/0011.bmp
216.72	0.72	292	5	2	122	mem	lib	mod	mod	mod	nt	ht	nh/0072_nh.bmp
217.44	0.72	293	3	1	79	per	con	mod	mod	mod	tg	ms	wh/0538.bmp
218.16	0.72	294	2	3	115	mem	lib	mod	mod	mod	tg	ht	wh/0333.bmp
218.88	0.72	295	2	4	5	per	con	mod	mod	mod	nt	cr	nh/0487_nh.bmp
219.60	0.72	296	3	4	13	per	con	mod	mod	mod	nt	cr	nh/0576_nh.bmp
220.32	0.72	297	2	4	31	per	con	low	mod	low	nt	cr	nh/0494_nh.bmp
221.04	0.72	298	3	4	26	per	con	low	mod	low	tg	ht	wh/0295.bmp
221.76	0.72	299	3	2	19	mem	con	mod	mod	mod	nt	ht	nh/0806_nh.bmp
222.48	0.72	300	1	3	88	mem	con	low	low	mod	tg	ht	wh/0003.bmp
223.20	0.72	301	5	4	12	per	con	mod	mod	mod	tg	ht	wh/0320.bmp
223.92	0.72	302	3	1	103	mem	con	mod	mod	low	nt	ms	nh/0509_nh.bmp
224.64	0.72	303	1	4	118	mem	lib	low	low	low	nt	ms	nh/0375_nh.bmp
225.36	0.72	304	2	3	119	mem	lib	mod	mod	mod	nt	ht	nh/0097_nh.bmp
226.08	0.72	305	4	1	106	mem	con	mod	mod	low	tg	ht	wh/0030.bmp
226.80	0.72	306	4	2	36	per	lib	low	mod	low	tg	ms	wh/0683.bmp
227.52	0.72	307	1	2	21	mem	con	mod	mod	mod	tg	ht	wh/0895.bmp
228.24	0.72	308	3	1	125	mem	lib	mod	mod	low	nt	ht	nh/1000_nh.bmp
228.96	0.72	309	4	3	103	per	lib	low	mod	low	tg	ht	wh/0661.bmp
229.68	0.72	310	5	1	69	per	con	mod	mod	mod	tg	ht	wh/0151.bmp
230.40	0.72	311	1	2	71	mem	lib	low	low	low	nt	ht	nh/0120_nh.bmp
231.12	0.72	312	2	4	16	per	con	mod	mod	mod	nt	cr	nh/1010_nh.bmp
231.84	0.72	313	1	3	34	per	con	mod	low	mod	tg	ht	wh/0950.bmp
232.56	0.72	314	2	1	97	mem	con	mod	mod	low	nt	ms	nh/0081_nh.bmp
233.28	0.72	315	3	4	2	per	con	mod	mod	mod	nt	cr	nh/1006_nh.bmp
234.00	0.72	316	3	4	16	per	con	mod	mod	mod	nt	cr	nh/1010_nh.bmp
234.72	0.72	317	4	4	39	per	lib	mod	mod	mod	nt	cr	nh/0674_nh.bmp
235.44	0.72	318	3	2	2	per	con	low	mod	low	nt	cr	nh/0424_nh.bmp
236.16	0.72	319	2	3	52	mem	con	mod	mod	low	nt	n/a	nh/0554_nh.bmp
236.88	0.72	320	1	2	127	mem	lib	mod	mod	mod	nt	ms	nh/0427_nh.bmp
237.60	0.72	321	4	4	16	per	con	mod	mod	mod	nt	cr	nh/1010_nh.bmp
238.32	0.72	322	3	1	78	per	con	mod	mod	mod	tg	ht	wh/0343.bmp
239.04	0.72	323	2	4	44	per	lib	mod	mod	mod	nt	cr	nh/0970_nh.bmp
239.76	0.72	324	4	2	31	mem	con	mod	mod	mod	nt	ms	nh/0479_nh.bmp
240.48	0.72	325	4	4	77	mem	con	mod	mod	mod	nt	ht	nh/0279_nh.bmp
241.20	0.72	326	2	3	118	mem	lib	mod	mod	mod	nt	ht	nh/0313_nh.bmp
241.92	0.72	327	1	2	100	mem	con	low	low	mod	nt	ht	nh/0826_nh.bmp
242.64	0.72	328	1	2	103	mem	con	low	low	mod	tg	ms	wh/0317.bmp
243.36	0.72	329	1	4	71	mem	con	mod	mod	mod	nt	ht	nh/0665_nh.bmp
244.08	0.72	330	1	2	33	per	lib	low	mod	low	nt	fa	nh/0643_nh.bmp
244.80	0.72	331	3	2	12	per	con	low	mod	low	tg	ht	wh/0131.bmp
245.52	0.72	332	3	4	52	mem	lib	mod	mod	low	tg	ht	wh/0496.bmp
246.24	0.72	333	1	2	95	per	lib	mod	mod	mod	tg	ht	wh/0861.bmp
246.96	0.72	334	3	3	105	per	lib	low	mod	low	nt	fa	nh/0368_nh.bmp
247.68	0.72	335	3	2	85	per	lib	mod	mod	mod	nt	cr	nh/0834_nh.bmp
248.40	0.72	336	3	3	113	mem	lib	mod	mod	mod	tg	ht	wh/0799.bmp
249.12	0.72	337	4	3	54	mem	con	mod	mod	low	tg	ht	wh/0263.bmp
249.84	0.72	338	1	1	30	per	lib	mod	low	mod	tg	ht	wh/0004.bmp
250.56	0.72	339	2	3	104	per	lib	low	mod	low	nt	fa	nh/0323_nh.bmp
251.28	0.72	340	1	1	53	per	con	low	low	low	tg	ms	wh/0117.bmp
252.00	0.72	341	1	4	107	per	lib	low	low	low	tg	ht	wh/0327.bmp
252.72	0.72	342	4	4	2	per	con	mod	mod	mod	nt	cr	nh/1006_nh.bmp
253.44	0.72	343	4	2	2	per	con	low	mod	low	nt	cr	nh/0424_nh.bmp
254.16	0.72	344	4	4	46	per	lib	mod	mod	mod	nt	cr	nh/0348_nh.bmp
254.88	0.72	345	1	1	12	per	lib	low	low	low	tg	ms	wh/0264.bmp
255.60	0.72	346	4	1	122	mem	lib	mod	mod	low	tg	ht	wh/0703.bmp
256.32	0.72	347	2	2	118	mem	lib	mod	mod	mod	nt	ht	nh/0061_nh.bmp
257.04	0.72	348	6	1	69	per	con	mod	mod	mod	tg	ht	wh/0151.bmp
257.76	0.72	349	3	4	30	per	con	low	mod	low	tg	ms	wh/0444.bmp
258.48	0.72	350	5	3	54	mem	con	mod	mod	low	tg	ht	wh/0263.bmp
259.20	0.72	351	4	4	37	per	lib	mod	mod	mod	tg	ht	wh/0413.bmp
259.92	0.72	352	1	2	26	mem	con	mod	mod	mod	nt	ms	nh/0592_nh.bmp
260.64	0.72	353	2	4	60	mem	lib	mod	mod	low	tg	ht	wh/0212.bmp
261.36	0.72	354	4	4	61	mem	lib	mod	mod	low	tg	ms	wh/0882.bmp
262.08	0.72	355	2	2	7	per	con	low	mod	low	nt	cr	nh/0615_nh.bmp
262.80	0.72	356	5	2	2	per	con	low	mod	low	nt	cr	nh/0424_nh.bmp
263.52	0.72	357	2	3	116	mem	lib	mod	mod	mod	tg	ht	wh/0628.bmp
264.24	0.72	358	2	1	99	mem	con	mod	mod	low	tg	ht	wh/0166.bmp
264.96	0.72	359	3	2	14	per	con	low	mod	low	tg	ht	wh/0291.bmp
265.68	0.72	360	5	4	80	mem	con	mod	mod	mod	tg	ht	wh/0796.bmp
266.40	0.72	361	2	1	128	mem	lib	mod	mod	low	tg	ht	wh/0132.bmp
267.12	0.72	362	2	2	26	mem	con	mod	mod	mod	nt	ms	nh/0592_nh.bmp
267.84	0.72	363	1	3	30	mem	lib	low	low	mod	tg	ms	wh/0854.bmp
268.56	0.72	364	1	4	67	mem	con	mod	mod	mod	nt	ht	nh/0645_nh.bmp
269.28	0.72	365	2	2	82	per	lib	mod	mod	mod	tg	ms	wh/0809.bmp
270.00	0.72	366	1	2	125	mem	lib	mod	mod	mod	nt	ht	nh/0943_nh.bmp
270.72	0.72	367	2	1	124	mem	lib	mod	mod	low	nt	ht	nh/0283_nh.bmp
271.44	0.72	368	3	3	118	mem	lib	mod	mod	mod	nt	ht	nh/0313_nh.bmp
272.16	0.72	369	5	3	110	per	lib	low	mod	low	nt	fa	nh/0203_nh.bmp
272.88	0.72	370	3	4	1	per	con	mod	mod	mod	tg	ms	wh/0901.bmp
273.60	0.72	371	4	3	120	mem	lib	mod	mod	mod	nt	ht	nh/0331_nh.bmp
274.32	0.72	372	2	2	125	mem	lib	mod	mod	mod	nt	ht	nh/0943_nh.bmp
275.04	0.72	373	4	1	78	per	con	mod	mod	mod	tg	ht	wh/0343.bmp
275.76	0.72	374	1	4	27	per	con	low	mod	low	nt	cr	nh/1013_nh.bmp
276.48	0.72	375	3	4	31	per	con	low	mod	low	nt	cr	nh/0494_nh.bmp
277.20	0.72	376	2	2	33	per	lib	low	mod	low	nt	fa	nh/0643_nh.bmp
277.92	0.72	377	3	3	52	mem	con	mod	mod	low	nt	n/a	nh/0554_nh.bmp
278.64	0.72	378	1	1	68	per	con	mod	mod	mod	nt	cr	nh/0490_nh.bmp
279.36	0.72	379	1	1	111	mem	con	mod	mod	low	tg	ms	wh/0246.bmp
280.08	0.72	380	3	4	44	per	lib	mod	mod	mod	nt	cr	nh/0970_nh.bmp
280.80	0.72	381	5	1	126	mem	lib	mod	mod	low	nt	ht	nh/0195_nh.bmp
281.52	0.72	382	4	2	46	per	lib	low	mod	low	nt	fa	nh/0067_nh.bmp
282.24	0.72	383	2	2	95	per	lib	mod	mod	mod	tg	ht	wh/0861.bmp
282.96	0.72	384	2	4	78	mem	con	mod	mod	mod	tg	ms	wh/0961.bmp
283.68	0.72	385	2	4	49	mem	lib	mod	mod	low	nt	ht	nh/0671_nh.bmp
284.40	0.72	386	2	4	9	per	con	mod	mod	mod	tg	ht	wh/0742.bmp
285.12	0.72	387	4	2	24	mem	con	mod	mod	mod	tg	ht	wh/0229.bmp
285.84	0.72	388	5	1	109	mem	con	mod	mod	low	nt	ht	nh/0315_nh.bmp
286.56	0.72	389	4	4	52	mem	lib	mod	mod	low	tg	ht	wh/0496.bmp
287.28	0.72	390	1	1	47	mem	lib	low	low	mod	nt	ms	nh/0667_nh.bmp
288.00	0.72	391	4	3	52	mem	con	mod	mod	low	nt	n/a	nh/0554_nh.bmp
288.72	0.72	392	3	3	115	mem	lib	mod	mod	mod	tg	ht	wh/0333.bmp
289.44	0.72	393	3	2	5	per	con	low	mod	low	nt	cr	nh/0798_nh.bmp
290.16	0.72	394	3	4	60	mem	lib	mod	mod	low	tg	ht	wh/0212.bmp
290.88	0.72	395	3	3	125	mem	lib	mod	mod	mod	nt	ht	nh/0359_nh.bmp
291.60	0.72	396	4	3	118	mem	lib	mod	mod	mod	nt	ht	nh/0313_nh.bmp
292.32	0.72	397	3	1	99	mem	con	mod	mod	low	tg	ht	wh/0166.bmp
293.04	0.72	398	3	4	49	mem	lib	mod	mod	low	nt	ht	nh/0671_nh.bmp
293.76	0.72	399	5	1	122	mem	lib	mod	mod	low	tg	ht	wh/0703.bmp
294.48	0.72	400	3	1	127	mem	lib	mod	mod	low	tg	ht	wh/0454.bmp
295.20	0.72	401	4	2	119	mem	lib	mod	mod	mod	tg	ht	wh/0365.bmp
295.92	0.72	402	2	4	27	per	con	low	mod	low	nt	cr	nh/1013_nh.bmp
296.64	0.72	403	4	4	31	per	con	low	mod	low	nt	cr	nh/0494_nh.bmp
297.36	0.72	404	3	2	81	per	lib	mod	mod	mod	nt	cr	nh/0358_nh.bmp
298.08	0.72	405	5	4	16	per	con	mod	mod	mod	nt	cr	nh/1010_nh.bmp
298.80	0.72	406	1	1	48	mem	lib	low	low	mod	tg	ht	wh/0346.bmp
299.52	0.72	407	5	4	31	per	con	low	mod	low	nt	cr	nh/0494_nh.bmp
300.24	0.72	408	4	4	44	per	lib	mod	mod	mod	nt	cr	nh/0970_nh.bmp
300.96	0.72	409	1	3	112	per	lib	low	mod	low	nt	fa	nh/0386_nh.bmp
301.68	0.72	410	4	4	30	per	con	low	mod	low	tg	ms	wh/0444.bmp
302.40	0.72	411	4	3	102	per	lib	low	mod	low	tg	ht	wh/0124.bmp
303.12	0.72	412	2	4	67	mem	con	mod	mod	mod	nt	ht	nh/0645_nh.bmp
303.84	0.72	413	1	1	82	mem	con	low	low	low	tg	ms	wh/0314.bmp
304.56	0.72	414	1	1	36	mem	lib	low	low	mod	tg	ms	wh/0606.bmp
305.28	0.72	415	2	4	71	mem	con	mod	mod	mod	nt	ht	nh/0665_nh.bmp
306.00	0.72	416	2	3	112	per	lib	low	mod	low	nt	fa	nh/0386_nh.bmp
306.72	0.72	417	4	1	114	mem	lib	mod	mod	low	tg	ht	wh/0641.bmp
307.44	0.72	418	5	4	30	per	con	low	mod	low	tg	ms	wh/0444.bmp
308.16	0.72	419	4	1	108	mem	con	mod	mod	low	nt	ht	nh/0575_nh.bmp
308.88	0.72	420	4	2	14	per	con	low	mod	low	tg	ht	wh/0291.bmp
309.60	0.72	421	2	4	10	per	con	mod	mod	mod	tg	ht	wh/0071.bmp
310.32	0.72	422	4	4	19	per	con	low	mod	low	tg	ms	wh/0415.bmp
311.04	0.72	423	3	2	7	per	con	low	mod	low	nt	cr	nh/0615_nh.bmp
311.76	0.72	424	4	3	125	mem	lib	mod	mod	mod	nt	ht	nh/0359_nh.bmp
312.48	0.72	425	1	1	13	per	lib	low	low	low	nt	fa	nh/0021_nh.bmp
313.20	0.72	426	3	4	78	mem	con	mod	mod	mod	tg	ms	wh/0961.bmp
313.92	0.72	427	3	3	57	mem	con	mod	mod	low	tg	ms	wh/0412.bmp
314.64	0.72	428	3	4	51	mem	lib	mod	mod	low	nt	ht	nh/0672_nh.bmp
315.36	0.72	429	2	2	41	per	lib	low	mod	low	nt	cr	nh/0174_nh.bmp
316.08	0.72	430	3	2	9	per	con	low	mod	low	tg	ht	wh/0390.bmp
316.80	0.72	431	3	4	67	mem	con	mod	mod	mod	nt	ht	nh/0645_nh.bmp
317.52	0.72	432	2	4	29	per	con	low	mod	low	nt	cr	nh/0007_nh.bmp
318.24	0.72	433	3	3	101	per	lib	low	mod	low	tg	ms	wh/0511.bmp
318.96	0.72	434	5	1	78	per	con	mod	mod	mod	tg	ht	wh/0343.bmp
319.68	0.72	435	3	3	116	mem	lib	mod	mod	mod	tg	ht	wh/0628.bmp
320.40	0.72	436	4	2	81	per	lib	mod	mod	mod	nt	cr	nh/0358_nh.bmp
321.12	0.72	437	3	3	59	mem	con	mod	mod	low	tg	ht	wh/0459.bmp
321.84	0.72	438	1	2	56	per	con	mod	low	mod	tg	ht	wh/0457.bmp
322.56	0.72	439	3	4	75	mem	con	mod	mod	mod	tg	ms	wh/0137.bmp
323.28	0.72	440	3	1	71	per	con	mod	mod	mod	nt	cr	nh/0282_nh.bmp
324.00	0.72	441	3	2	118	mem	lib	mod	mod	mod	nt	ht	nh/0061_nh.bmp
324.72	0.72	442	3	4	24	per	con	low	mod	low	tg	ht	wh/0312.bmp
325.44	0.72	443	4	3	113	mem	lib	mod	mod	mod	tg	ht	wh/0799.bmp
326.16	0.72	444	4	3	115	mem	lib	mod	mod	mod	tg	ht	wh/0333.bmp
326.88	0.72	445	2	2	21	mem	con	mod	mod	mod	tg	ht	wh/0895.bmp
327.60	0.72	446	6	4	80	mem	con	mod	mod	mod	tg	ht	wh/0796.bmp
328.32	0.72	447	5	3	113	mem	lib	mod	mod	mod	tg	ht	wh/0799.bmp
329.04	0.72	448	4	4	67	mem	con	mod	mod	mod	nt	ht	nh/0645_nh.bmp
329.76	0.72	449	3	3	58	mem	con	mod	mod	low	nt	ht	nh/0438_nh.bmp
330.48	0.72	450	3	2	21	mem	con	mod	mod	mod	tg	ht	wh/0895.bmp
331.20	0.72	451	3	2	41	per	lib	low	mod	low	nt	cr	nh/0174_nh.bmp
331.92	0.72	452	3	3	99	per	lib	low	mod	low	tg	ms	wh/0988.bmp
332.64	0.72	453	1	2	123	mem	lib	mod	mod	mod	tg	ht	wh/0931.bmp
333.36	0.72	454	3	3	112	per	lib	low	mod	low	nt	fa	nh/0386_nh.bmp
334.08	0.72	455	1	1	58	per	con	low	low	low	nt	cr	nh/0500_nh.bmp
334.80	0.72	456	1	2	6	per	con	low	mod	low	nt	cr	nh/0236_nh.bmp
335.52	0.72	457	3	2	48	per	lib	low	mod	low	tg	ht	wh/0976.bmp
336.24	0.72	458	1	3	84	mem	con	low	low	mod	tg	ms	wh/0033.bmp
336.96	0.72	459	2	2	115	mem	lib	mod	mod	mod	tg	ht	wh/0604.bmp
337.68	0.72	460	2	2	91	per	lib	mod	mod	mod	tg	ht	wh/0039.bmp
338.40	0.72	461	1	4	112	per	lib	low	low	low	nt	cr	nh/0167_nh.bmp
339.12	0.72	462	3	4	20	per	con	low	mod	low	nt	cr	nh/0791_nh.bmp
339.84	0.72	463	5	4	44	per	lib	mod	mod	mod	nt	cr	nh/0970_nh.bmp
340.56	0.72	464	4	3	59	mem	con	mod	mod	low	tg	ht	wh/0459.bmp
341.28	0.72	465	1	2	55	per	con	mod	low	mod	nt	cr	nh/0201_nh.bmp
342.00	0.72	466	4	4	60	mem	lib	mod	mod	low	tg	ht	wh/0212.bmp
342.72	0.72	467	1	3	2	per	con	low	low	low	tg	ht	wh/0524.bmp
343.44	0.72	468	2	3	124	mem	lib	mod	mod	mod	tg	ht	wh/0562.bmp
344.16	0.72	469	2	4	59	mem	lib	mod	mod	low	nt	ht	nh/0422_nh.bmp
344.88	0.72	470	3	2	26	mem	con	mod	mod	mod	nt	ms	nh/0592_nh.bmp
345.60	0.72	471	4	4	72	mem	con	mod	mod	mod	tg	ht	wh/0738.bmp
346.32	0.72	472	2	4	41	per	lib	mod	mod	mod	nt	cr	nh/0583_nh.bmp
347.04	0.72	473	3	2	125	mem	lib	mod	mod	mod	nt	ht	nh/0943_nh.bmp
347.76	0.72	474	3	3	119	mem	lib	mod	mod	mod	nt	ht	nh/0097_nh.bmp
348.48	0.72	475	1	3	96	mem	con	low	low	mod	tg	ms	wh/0062.bmp
349.20	0.72	476	6	2	2	per	con	low	mod	low	nt	cr	nh/0424_nh.bmp
349.92	0.72	477	2	2	6	per	con	low	mod	low	nt	cr	nh/0236_nh.bmp
350.64	0.72	478	5	4	35	per	lib	mod	mod	mod	tg	ht	wh/0761.bmp
351.36	0.72	479	4	2	19	mem	con	mod	mod	mod	nt	ht	nh/0806_nh.bmp
352.08	0.72	480	1	3	4	per	con	low	low	low	nt	cr	nh/0828_nh.bmp
352.80	0.72	481	3	4	27	per	con	low	mod	low	nt	cr	nh/1013_nh.bmp
353.52	0.72	482	3	2	33	per	lib	low	mod	low	nt	fa	nh/0643_nh.bmp
354.24	0.72	483	3	4	10	per	con	mod	mod	mod	tg	ht	wh/0071.bmp
354.96	0.72	484	2	1	77	per	con	mod	mod	mod	nt	cr	nh/0445_nh.bmp
355.68	0.72	485	5	4	72	mem	con	mod	mod	mod	tg	ht	wh/0738.bmp
356.40	0.72	486	2	2	123	mem	lib	mod	mod	mod	tg	ht	wh/0931.bmp
357.12	0.72	487	4	4	1	per	con	mod	mod	mod	tg	ms	wh/0901.bmp
357.84	0.72	488	5	4	19	per	con	low	mod	low	tg	ms	wh/0415.bmp
358.56	0.72	489	4	2	7	per	con	low	mod	low	nt	cr	nh/0615_nh.bmp
359.28	0.72	490	3	2	123	mem	lib	mod	mod	mod	tg	ht	wh/0931.bmp
360.00	0.72	491	2	2	93	per	lib	mod	mod	mod	nt	cr	nh/0759_nh.bmp
360.72	0.72	492	5	2	119	mem	lib	mod	mod	mod	tg	ht	wh/0365.bmp
361.44	0.72	493	3	1	124	mem	lib	mod	mod	low	nt	ht	nh/0283_nh.bmp
362.16	0.72	494	5	2	19	mem	con	mod	mod	mod	nt	ht	nh/0806_nh.bmp
362.88	0.72	495	2	4	66	mem	con	mod	mod	mod	nt	ms	nh/0925_nh.bmp
363.60	0.72	496	5	2	81	per	lib	mod	mod	mod	nt	cr	nh/0358_nh.bmp
364.32	0.72	497	1	3	5	per	con	low	low	low	tg	ht	wh/0245.bmp
365.04	0.72	498	6	3	54	mem	con	mod	mod	low	tg	ht	wh/0263.bmp
365.76	0.72	499	4	2	85	per	lib	mod	mod	mod	nt	cr	nh/0834_nh.bmp
366.48	0.72	500	1	2	126	mem	lib	mod	mod	mod	tg	ht	wh/0049.bmp
367.20	0.72	501	1	3	74	per	lib	mod	low	mod	nt	fa	nh/0555_nh.bmp
367.92	0.72	502	1	2	109	mem	con	low	low	mod	nt	ms	nh/0644_nh.bmp
368.64	0.72	503	3	2	91	per	lib	mod	mod	mod	tg	ht	wh/0039.bmp
369.36	0.72	504	4	3	60	mem	con	mod	mod	low	tg	ms	wh/0293.bmp
370.08	0.72	505	4	3	57	mem	con	mod	mod	low	tg	ms	wh/0412.bmp
370.80	0.72	506	3	2	6	per	con	low	mod	low	nt	cr	nh/0236_nh.bmp
371.52	0.72	507	4	1	99	mem	con	mod	mod	low	tg	ht	wh/0166.bmp
372.24	0.72	508	4	4	13	per	con	mod	mod	mod	nt	cr	nh/0576_nh.bmp
372.96	0.72	509	4	2	9	per	con	low	mod	low	tg	ht	wh/0390.bmp
373.68	0.72	510	4	1	125	mem	lib	mod	mod	low	nt	ht	nh/1000_nh.bmp
374.40	0.72	511	5	2	14	per	con	low	mod	low	tg	ht	wh/0291.bmp
375.12	0.72	512	3	4	59	mem	lib	mod	mod	low	nt	ht	nh/0422_nh.bmp
375.84	0.72	513	3	3	124	mem	lib	mod	mod	mod	tg	ht	wh/0562.bmp
376.56	0.72	514	4	1	127	mem	lib	mod	mod	low	tg	ht	wh/0454.bmp
377.28	0.72	515	5	2	31	mem	con	mod	mod	mod	nt	ms	nh/0479_nh.bmp
378.00	0.72	516	4	2	48	per	lib	low	mod	low	tg	ht	wh/0976.bmp
378.72	0.72	517	3	2	93	per	lib	mod	mod	mod	nt	cr	nh/0759_nh.bmp
379.44	0.72	518	4	2	15	per	con	low	mod	low	tg	ms	wh/0523.bmp
380.16	0.72	519	6	1	122	mem	lib	mod	mod	low	tg	ht	wh/0703.bmp
380.88	0.72	520	1	3	70	per	lib	mod	low	mod	nt	fa	nh/0050_nh.bmp
381.60	0.72	521	5	4	39	per	lib	mod	mod	mod	nt	cr	nh/0674_nh.bmp
382.32	0.72	522	1	4	91	mem	con	low	low	low	tg	ms	wh/0357.bmp
383.04	0.72	523	3	2	95	per	lib	mod	mod	mod	tg	ht	wh/0861.bmp
383.76	0.72	524	2	4	36	per	lib	mod	mod	mod	tg	ms	wh/0104.bmp
384.48	0.72	525	3	4	5	per	con	mod	mod	mod	nt	cr	nh/0487_nh.bmp
385.20	0.72	526	4	4	50	mem	lib	mod	mod	low	tg	ht	wh/0302.bmp
385.92	0.72	527	1	1	38	mem	lib	low	low	mod	nt	ms	nh/0670_nh.bmp
386.64	0.72	528	4	1	71	per	con	mod	mod	mod	nt	cr	nh/0282_nh.bmp
387.36	0.72	529	3	1	97	mem	con	mod	mod	low	nt	ms	nh/0081_nh.bmp
388.08	0.72	530	1	2	75	mem	lib	low	low	low	tg	ht	wh/0607.bmp
388.80	0.72	531	3	2	43	per	lib	low	mod	low	tg	ht	wh/0792.bmp
389.52	0.72	532	4	2	33	per	lib	low	mod	low	nt	fa	nh/0643_nh.bmp
390.24	0.72	533	5	3	52	mem	con	mod	mod	low	nt	n/a	nh/0554_nh.bmp
390.96	0.72	534	4	2	41	per	lib	low	mod	low	nt	cr	nh/0174_nh.bmp
391.68	0.72	535	2	1	68	per	con	mod	mod	mod	nt	cr	nh/0490_nh.bmp
392.40	0.72	536	3	1	68	per	con	mod	mod	mod	nt	cr	nh/0490_nh.bmp
393.12	0.72	537	5	2	7	per	con	low	mod	low	nt	cr	nh/0615_nh.bmp
393.84	0.72	538	4	2	95	per	lib	mod	mod	mod	tg	ht	wh/0861.bmp
394.56	0.72	539	2	1	111	mem	con	mod	mod	low	tg	ms	wh/0246.bmp
395.28	0.72	540	4	3	112	per	lib	low	mod	low	nt	fa	nh/0386_nh.bmp
396.00	0.72	541	3	4	29	per	con	low	mod	low	nt	cr	nh/0007_nh.bmp
396.72	0.72	542	5	1	108	mem	con	mod	mod	low	nt	ht	nh/0575_nh.bmp
397.44	0.72	543	5	1	76	per	con	mod	mod	mod	tg	ht	wh/0705.bmp
398.16	0.72	544	5	2	95	per	lib	mod	mod	mod	tg	ht	wh/0861.bmp
398.88	0.72	545	5	3	115	mem	lib	mod	mod	mod	tg	ht	wh/0333.bmp
399.60	0.72	546	2	4	38	per	lib	mod	mod	mod	tg	ht	wh/0983.bmp
400.32	0.72	547	1	1	20	per	lib	mod	low	mod	tg	ht	wh/0230.bmp
401.04	0.72	548	4	4	26	per	con	low	mod	low	tg	ht	wh/0295.bmp
401.76	0.72	549	4	1	124	mem	lib	mod	mod	low	nt	ht	nh/0283_nh.bmp
402.48	0.72	550	4	4	5	per	con	mod	mod	mod	nt	cr	nh/0487_nh.bmp
403.20	0.72	551	5	4	37	per	lib	mod	mod	mod	tg	ht	wh/0413.bmp
403.92	0.72	552	1	4	116	mem	lib	low	low	low	nt	ht	nh/0309_nh.bmp
404.64	0.72	553	6	4	12	per	con	mod	mod	mod	tg	ht	wh/0320.bmp
405.36	0.72	554	1	3	66	per	lib	mod	low	mod	nt	cr	nh/0502_nh.bmp
406.08	0.72	555	4	2	6	per	con	low	mod	low	nt	cr	nh/0236_nh.bmp
406.80	0.72	556	5	1	99	mem	con	mod	mod	low	tg	ht	wh/0166.bmp
407.52	0.72	557	1	2	83	per	lib	mod	mod	mod	tg	ht	wh/0477.bmp
408.24	0.72	558	4	4	49	mem	lib	mod	mod	low	nt	ht	nh/0671_nh.bmp
408.96	0.72	559	1	4	128	mem	lib	low	low	low	nt	ms	nh/0911_nh.bmp
409.68	0.72	560	1	4	101	per	lib	low	low	low	nt	fa	nh/0369_nh.bmp
410.40	0.72	561	5	3	60	mem	con	mod	mod	low	tg	ms	wh/0293.bmp
411.12	0.72	562	4	2	45	per	lib	low	mod	low	tg	ht	wh/0512.bmp
411.84	0.72	563	2	2	126	mem	lib	mod	mod	mod	tg	ht	wh/0049.bmp
412.56	0.72	564	4	2	93	per	lib	mod	mod	mod	nt	cr	nh/0759_nh.bmp
413.28	0.72	565	5	2	46	per	lib	low	mod	low	nt	fa	nh/0067_nh.bmp
414.00	0.72	566	1	2	98	mem	con	low	low	mod	tg	ht	wh/0052.bmp
414.72	0.72	567	4	2	91	per	lib	mod	mod	mod	tg	ht	wh/0039.bmp
415.44	0.72	568	3	3	104	per	lib	low	mod	low	nt	fa	nh/0323_nh.bmp
416.16	0.72	569	5	2	36	per	lib	low	mod	low	tg	ms	wh/0683.bmp
416.88	0.72	570	3	4	9	per	con	mod	mod	mod	tg	ht	wh/0742.bmp
417.60	0.72	571	4	2	92	per	lib	mod	mod	mod	nt	cr	nh/0344_nh.bmp
418.32	0.72	572	3	1	128	mem	lib	mod	mod	low	tg	ht	wh/0132.bmp
419.04	0.72	573	5	3	112	per	lib	low	mod	low	nt	fa	nh/0386_nh.bmp
419.76	0.72	574	4	4	29	per	con	low	mod	low	nt	cr	nh/0007_nh.bmp
420.48	0.72	575	5	4	77	mem	con	mod	mod	mod	nt	ht	nh/0279_nh.bmp
421.20	0.72	576	1	2	49	per	con	mod	low	mod	tg	ms	wh/0726.bmp
421.92	0.72	577	3	2	82	per	lib	mod	mod	mod	tg	ms	wh/0809.bmp
422.64	0.72	578	5	1	125	mem	lib	mod	mod	low	nt	ht	nh/1000_nh.bmp
423.36	0.72	579	3	4	66	mem	con	mod	mod	mod	nt	ms	nh/0925_nh.bmp
424.08	0.72	580	5	2	33	per	lib	low	mod	low	nt	fa	nh/0643_nh.bmp
424.80	0.72	581	5	1	114	mem	lib	mod	mod	low	tg	ht	wh/0641.bmp
425.52	0.72	582	1	2	62	per	con	mod	low	mod	nt	cr	nh/0085_nh.bmp
426.24	0.72	583	3	2	126	mem	lib	mod	mod	mod	tg	ht	wh/0049.bmp
426.96	0.72	584	5	4	49	mem	lib	mod	mod	low	nt	ht	nh/0671_nh.bmp
427.68	0.72	585	4	2	43	per	lib	low	mod	low	tg	ht	wh/0792.bmp
428.40	0.72	586	6	2	7	per	con	low	mod	low	nt	cr	nh/0615_nh.bmp
429.12	0.72	587	1	3	3	per	con	low	low	low	tg	ms	wh/0363.bmp
429.84	0.72	588	5	1	105	mem	con	mod	mod	low	tg	ht	wh/0410.bmp
430.56	0.72	589	4	2	123	mem	lib	mod	mod	mod	tg	ht	wh/0931.bmp
431.28	0.72	590	4	4	10	per	con	mod	mod	mod	tg	ht	wh/0071.bmp
432.00	0.72	591	3	2	115	mem	lib	mod	mod	mod	tg	ht	wh/0604.bmp
432.72	0.72	592	6	4	37	per	lib	mod	mod	mod	tg	ht	wh/0413.bmp
433.44	0.72	593	4	2	82	per	lib	mod	mod	mod	tg	ms	wh/0809.bmp
434.16	0.72	594	5	3	102	per	lib	low	mod	low	tg	ht	wh/0124.bmp
434.88	0.72	595	5	4	67	mem	con	mod	mod	mod	nt	ht	nh/0645_nh.bmp
435.60	0.72	596	4	1	68	per	con	mod	mod	mod	nt	cr	nh/0490_nh.bmp
436.32	0.72	597	4	4	24	per	con	low	mod	low	tg	ht	wh/0312.bmp
437.04	0.72	598	1	1	6	per	lib	low	low	low	tg	ms	wh/0565.bmp
437.76	0.72	599	5	4	1	per	con	mod	mod	mod	tg	ms	wh/0901.bmp
438.48	0.72	600	5	1	71	per	con	mod	mod	mod	nt	cr	nh/0282_nh.bmp
439.20	0.72	601	4	2	21	mem	con	mod	mod	mod	tg	ht	wh/0895.bmp
439.92	0.72	602	4	4	51	mem	lib	mod	mod	low	nt	ht	nh/0672_nh.bmp
440.64	0.72	603	4	3	63	mem	con	mod	mod	low	nt	ht	nh/0765_nh.bmp
441.36	0.72	604	6	4	31	per	con	low	mod	low	nt	cr	nh/0494_nh.bmp
442.08	0.72	605	5	2	123	mem	lib	mod	mod	mod	tg	ht	wh/0931.bmp
442.80	0.72	606	5	4	52	mem	lib	mod	mod	low	tg	ht	wh/0496.bmp
443.52	0.72	607	5	2	93	per	lib	mod	mod	mod	nt	cr	nh/0759_nh.bmp
444.24	0.72	608	6	2	95	per	lib	mod	mod	mod	tg	ht	wh/0861.bmp
444.96	0.72	609	1	1	25	per	lib	mod	low	mod	tg	ht	wh/0707.bmp
445.68	0.72	610	4	1	79	per	con	mod	mod	mod	tg	ms	wh/0538.bmp
446.40	0.72	611	4	3	58	mem	con	mod	mod	low	nt	ht	nh/0438_nh.bmp
447.12	0.72	612	5	3	53	mem	con	mod	mod	low	nt	ms	nh/0914_nh.bmp
447.84	0.72	613	5	4	46	per	lib	mod	mod	mod	nt	cr	nh/0348_nh.bmp
448.56	0.72	614	6	4	39	per	lib	mod	mod	mod	nt	cr	nh/0674_nh.bmp
449.28	0.72	615	3	4	71	mem	con	mod	mod	mod	nt	ht	nh/0665_nh.bmp
450.00	0.72	616	5	4	2	per	con	mod	mod	mod	nt	cr	nh/1006_nh.bmp
450.72	0.72	617	4	3	99	per	lib	low	mod	low	tg	ms	wh/0988.bmp
451.44	0.72	618	3	4	41	per	lib	mod	mod	mod	nt	cr	nh/0583_nh.bmp
452.16	0.72	619	4	1	128	mem	lib	mod	mod	low	tg	ht	wh/0132.bmp
452.88	0.72	620	5	3	59	mem	con	mod	mod	low	tg	ht	wh/0459.bmp
453.60	0.72	621	3	1	115	mem	lib	mod	mod	low	nt	ht	nh/0400_nh.bmp
454.32	0.72	622	6	2	93	per	lib	mod	mod	mod	nt	cr	nh/0759_nh.bmp
455.04	0.72	623	5	2	48	per	lib	low	mod	low	tg	ht	wh/0976.bmp
455.76	0.72	624	1	3	25	mem	lib	low	low	mod	nt	ms	nh/0811_nh.bmp
456.48	0.72	625	2	2	127	mem	lib	mod	mod	mod	nt	ms	nh/0427_nh.bmp
457.20	0.72	626	4	4	9	per	con	mod	mod	mod	tg	ht	wh/0742.bmp
457.92	0.72	627	1	1	46	mem	lib	low	low	mod	tg	ht	wh/0993.bmp
458.64	0.72	628	4	4	59	mem	lib	mod	mod	low	nt	ht	nh/0422_nh.bmp
459.36	0.72	629	1	1	19	per	lib	mod	low	mod	nt	cr	nh/0304_nh.bmp
460.08	0.72	630	3	4	36	per	lib	mod	mod	mod	tg	ms	wh/0104.bmp
460.80	0.72	631	5	1	106	mem	con	mod	mod	low	tg	ht	wh/0030.bmp
461.52	0.72	632	6	1	125	mem	lib	mod	mod	low	nt	ht	nh/1000_nh.bmp
462.24	0.72	633	4	3	104	per	lib	low	mod	low	nt	fa	nh/0323_nh.bmp
462.96	0.72	634	6	2	14	per	con	low	mod	low	tg	ht	wh/0291.bmp
463.68	0.72	635	3	2	127	mem	lib	mod	mod	mod	nt	ms	nh/0427_nh.bmp
464.40	0.72	636	5	2	41	per	lib	low	mod	low	nt	cr	nh/0174_nh.bmp
465.12	0.72	637	4	4	78	mem	con	mod	mod	mod	tg	ms	wh/0961.bmp
465.84	0.72	638	5	2	92	per	lib	mod	mod	mod	nt	cr	nh/0344_nh.bmp
466.56	0.72	639	5	4	13	per	con	mod	mod	mod	nt	cr	nh/0576_nh.bmp
467.28	0.72	640	4	3	101	per	lib	low	mod	low	tg	ms	wh/0511.bmp
468.00	0.72	641	2	2	83	per	lib	mod	mod	mod	tg	ht	wh/0477.bmp
468.72	0.72	642	4	4	36	per	lib	mod	mod	mod	tg	ms	wh/0104.bmp
469.44	0.72	643	5	3	58	mem	con	mod	mod	low	nt	ht	nh/0438_nh.bmp
470.16	0.72	644	6	2	92	per	lib	mod	mod	mod	nt	cr	nh/0344_nh.bmp
470.88	0.72	645	4	3	124	mem	lib	mod	mod	mod	tg	ht	wh/0562.bmp
471.60	0.72	646	1	1	8	per	lib	low	low	low	nt	fa	nh/0252_nh.bmp
472.32	0.72	647	5	2	15	per	con	low	mod	low	tg	ms	wh/0523.bmp
473.04	0.72	648	4	4	66	mem	con	mod	mod	mod	nt	ms	nh/0925_nh.bmp
473.76	0.72	649	4	2	32	mem	con	mod	mod	mod	nt	ht	nh/0689_nh.bmp
474.48	0.72	650	4	1	103	mem	con	mod	mod	low	nt	ms	nh/0509_nh.bmp
475.20	0.72	651	1	3	6	per	con	low	low	low	nt	fa	nh/0908_nh.bmp
475.92	0.72	652	4	4	41	per	lib	mod	mod	mod	nt	cr	nh/0583_nh.bmp
476.64	0.72	653	4	4	71	mem	con	mod	mod	mod	nt	ht	nh/0665_nh.bmp
477.36	0.72	654	1	3	76	per	lib	mod	low	mod	nt	fa	nh/0813_nh.bmp
478.08	0.72	655	1	4	99	per	lib	low	low	low	tg	ht	wh/0110.bmp
478.80	0.72	656	5	4	9	per	con	mod	mod	mod	tg	ht	wh/0742.bmp
479.52	0.72	657	4	3	105	per	lib	low	mod	low	nt	fa	nh/0368_nh.bmp
480.24	0.72	658	4	2	118	mem	lib	mod	mod	mod	nt	ht	nh/0061_nh.bmp
480.96	0.72	659	1	3	69	per	lib	mod	low	mod	tg	ht	wh/0208.bmp
481.68	0.72	660	5	2	82	per	lib	mod	mod	mod	tg	ms	wh/0809.bmp
482.40	0.72	661	5	4	24	per	con	low	mod	low	tg	ht	wh/0312.bmp
483.12	0.72	662	5	2	118	mem	lib	mod	mod	mod	nt	ht	nh/0061_nh.bmp
483.84	0.72	663	5	2	91	per	lib	mod	mod	mod	tg	ht	wh/0039.bmp
484.56	0.72	664	4	2	127	mem	lib	mod	mod	mod	nt	ms	nh/0427_nh.bmp
485.28	0.72	665	1	4	87	mem	con	low	low	low	tg	ms	wh/0169.bmp
486.00	0.72	666	6	1	109	mem	con	mod	mod	low	nt	ht	nh/0315_nh.bmp
486.72	0.72	667	6	1	126	mem	lib	mod	mod	low	nt	ht	nh/0195_nh.bmp
487.44	0.72	668	3	1	77	per	con	mod	mod	mod	nt	cr	nh/0445_nh.bmp
488.16	0.72	669	5	3	118	mem	lib	mod	mod	mod	nt	ht	nh/0313_nh.bmp
488.88	0.72	670	6	1	78	per	con	mod	mod	mod	tg	ht	wh/0343.bmp
489.60	0.72	671	6	2	81	per	lib	mod	mod	mod	nt	cr	nh/0358_nh.bmp
490.32	0.72	672	4	2	5	per	con	low	mod	low	nt	cr	nh/0798_nh.bmp
491.04	0.72	673	3	2	83	per	lib	mod	mod	mod	tg	ht	wh/0477.bmp
491.76	0.72	674	5	4	26	per	con	low	mod	low	tg	ht	wh/0295.bmp
492.48	0.72	675	5	2	43	per	lib	low	mod	low	tg	ht	wh/0792.bmp
493.20	0.72	676	1	1	60	per	con	low	low	low	nt	fa	nh/0171_nh.bmp
493.92	0.72	677	6	1	114	mem	lib	mod	mod	low	tg	ht	wh/0641.bmp
494.64	0.72	678	6	4	77	mem	con	mod	mod	mod	nt	ht	nh/0279_nh.bmp
495.36	0.72	679	6	3	112	per	lib	low	mod	low	nt	fa	nh/0386_nh.bmp
496.08	0.72	680	6	4	30	per	con	low	mod	low	tg	ms	wh/0444.bmp
496.80	0.72	681	5	4	60	mem	lib	mod	mod	low	tg	ht	wh/0212.bmp
497.52	0.72	682	4	4	75	mem	con	mod	mod	mod	tg	ms	wh/0137.bmp
498.24	0.72	683	1	2	112	mem	con	low	low	mod	nt	ms	nh/0595_nh.bmp
498.96	0.72	684	4	3	119	mem	lib	mod	mod	mod	nt	ht	nh/0097_nh.bmp
499.68	0.72	685	5	3	101	per	lib	low	mod	low	tg	ms	wh/0511.bmp
500.40	0.72	686	4	2	115	mem	lib	mod	mod	mod	tg	ht	wh/0604.bmp
501.12	0.72	687	5	2	127	mem	lib	mod	mod	mod	nt	ms	nh/0427_nh.bmp
501.84	0.72	688	5	2	5	per	con	low	mod	low	nt	cr	nh/0798_nh.bmp
502.56	0.72	689	1	4	98	per	lib	low	low	low	nt	fa	nh/0010_nh.bmp
503.28	0.72	690	1	4	106	per	lib	low	low	low	tg	ms	wh/0335.bmp
504.00	0.72	691	1	3	44	per	con	mod	low	mod	tg	ht	wh/0547.bmp
504.72	0.72	692	1	4	92	mem	con	low	low	low	nt	ht	nh/0078_nh.bmp
505.44	0.72	693	5	2	20	mem	con	mod	mod	mod	tg	ht	wh/0664.bmp
506.16	0.72	694	3	1	111	mem	con	mod	mod	low	tg	ms	wh/0246.bmp
506.88	0.72	695	5	1	79	per	con	mod	mod	mod	tg	ms	wh/0538.bmp
507.60	0.72	696	1	1	34	mem	lib	low	low	mod	nt	ht	nh/1020_nh.bmp
508.32	0.72	697	4	1	77	per	con	mod	mod	mod	nt	cr	nh/0445_nh.bmp
509.04	0.72	698	3	4	38	per	lib	mod	mod	mod	tg	ht	wh/0983.bmp
509.76	0.72	699	1	1	92	mem	con	low	low	low	tg	ms	wh/1003.bmp
510.48	0.72	700	5	4	78	mem	con	mod	mod	mod	tg	ms	wh/0961.bmp
511.20	0.72	701	5	4	29	per	con	low	mod	low	nt	cr	nh/0007_nh.bmp
511.92	0.72	702	5	4	66	mem	con	mod	mod	mod	nt	ms	nh/0925_nh.bmp
512.64	0.72	703	6	2	118	mem	lib	mod	mod	mod	nt	ht	nh/0061_nh.bmp
513.36	0.72	704	5	4	36	per	lib	mod	mod	mod	tg	ms	wh/0104.bmp
514.08	0.72	705	4	4	38	per	lib	mod	mod	mod	tg	ht	wh/0983.bmp
514.80	0.72	706	6	2	119	mem	lib	mod	mod	mod	tg	ht	wh/0365.bmp
515.52	0.72	707	5	3	125	mem	lib	mod	mod	mod	nt	ht	nh/0359_nh.bmp
516.24	0.72	708	1	4	123	mem	lib	low	low	low	tg	ms	wh/0184.bmp
516.96	0.72	709	1	1	2	per	lib	low	low	low	nt	cr	nh/0271_nh.bmp
517.68	0.72	710	5	2	47	per	lib	low	mod	low	nt	cr	nh/0757_nh.bmp
518.40	0.72	711	6	4	36	per	lib	mod	mod	mod	tg	ms	wh/0104.bmp
519.12	0.72	712	4	1	111	mem	con	mod	mod	low	tg	ms	wh/0246.bmp
519.84	0.72	713	6	1	106	mem	con	mod	mod	low	tg	ht	wh/0030.bmp
520.56	0.72	714	5	4	51	mem	lib	mod	mod	low	nt	ht	nh/0672_nh.bmp
521.28	0.72	715	1	4	121	mem	lib	low	low	low	nt	ht	nh/0505_nh.bmp
522.00	0.72	716	6	4	60	mem	lib	mod	mod	low	tg	ht	wh/0212.bmp
522.72	0.72	717	5	4	61	mem	lib	mod	mod	low	tg	ms	wh/0882.bmp
523.44	0.72	718	5	4	38	per	lib	mod	mod	mod	tg	ht	wh/0983.bmp
524.16	0.72	719	5	4	5	per	con	mod	mod	mod	nt	cr	nh/0487_nh.bmp
524.88	0.72	720	6	4	66	mem	con	mod	mod	mod	nt	ms	nh/0925_nh.bmp
525.60	0.72	721	1	3	27	mem	lib	low	low	mod	nt	ms	nh/0773_nh.bmp
526.32	0.72	722	4	3	116	mem	lib	mod	mod	mod	tg	ht	wh/0628.bmp
527.04	0.72	723	4	1	115	mem	lib	mod	mod	low	nt	ht	nh/0400_nh.bmp
527.76	0.72	724	6	2	122	mem	lib	mod	mod	mod	nt	ht	nh/0072_nh.bmp
528.48	0.72	725	6	3	52	mem	con	mod	mod	low	nt	n/a	nh/0554_nh.bmp
529.20	0.72	726	4	2	125	mem	lib	mod	mod	mod	nt	ht	nh/0943_nh.bmp
529.92	0.72	727	5	1	103	mem	con	mod	mod	low	nt	ms	nh/0509_nh.bmp
530.64	0.72	728	5	3	103	per	lib	low	mod	low	tg	ht	wh/0661.bmp
531.36	0.72	729	6	1	71	per	con	mod	mod	mod	nt	cr	nh/0282_nh.bmp
532.08	0.72	730	5	3	63	mem	con	mod	mod	low	nt	ht	nh/0765_nh.bmp
532.80	0.72	731	4	4	27	per	con	low	mod	low	nt	cr	nh/1013_nh.bmp
533.52	0.72	732	5	3	104	per	lib	low	mod	low	nt	fa	nh/0323_nh.bmp
534.24	0.72	733	5	4	50	mem	lib	mod	mod	low	tg	ht	wh/0302.bmp
534.96	0.72	734	1	1	10	per	lib	low	low	low	tg	ms	wh/0484.bmp
535.68	0.72	735	4	2	18	mem	con	mod	mod	mod	tg	ms	wh/0448.bmp
536.40	0.72	736	6	2	20	mem	con	mod	mod	mod	tg	ht	wh/0664.bmp
537.12	0.72	737	6	4	46	per	lib	mod	mod	mod	nt	cr	nh/0348_nh.bmp
537.84	0.72	738	6	4	72	mem	con	mod	mod	mod	tg	ht	wh/0738.bmp
538.56	0.72	739	6	3	104	per	lib	low	mod	low	nt	fa	nh/0323_nh.bmp
539.28	0.72	740	5	4	27	per	con	low	mod	low	nt	cr	nh/1013_nh.bmp
540.00	0.72	741	6	2	82	per	lib	mod	mod	mod	tg	ms	wh/0809.bmp
540.72	0.72	742	5	3	57	mem	con	mod	mod	low	tg	ms	wh/0412.bmp
541.44	0.72	743	5	4	71	mem	con	mod	mod	mod	nt	ht	nh/0665_nh.bmp
542.16	0.72	744	6	2	41	per	lib	low	mod	low	nt	cr	nh/0174_nh.bmp
542.88	0.72	745	5	1	68	per	con	mod	mod	mod	nt	cr	nh/0490_nh.bmp
543.60	0.72	746	5	4	41	per	lib	mod	mod	mod	nt	cr	nh/0583_nh.bmp
544.32	0.72	747	1	3	90	mem	con	low	low	mod	nt	ht	nh/0891_nh.bmp
545.04	0.72	748	6	4	41	per	lib	mod	mod	mod	nt	cr	nh/0583_nh.bmp
545.76	0.72	749	6	4	9	per	con	mod	mod	mod	tg	ht	wh/0742.bmp
546.48	0.72	750	4	4	20	per	con	low	mod	low	nt	cr	nh/0791_nh.bmp
547.20	0.72	751	6	1	108	mem	con	mod	mod	low	nt	ht	nh/0575_nh.bmp
547.92	0.72	752	4	2	83	per	lib	mod	mod	mod	tg	ht	wh/0477.bmp
548.64	0.72	753	5	2	83	per	lib	mod	mod	mod	tg	ht	wh/0477.bmp
549.36	0.72	754	6	2	33	per	lib	low	mod	low	nt	fa	nh/0643_nh.bmp
550.08	0.72	755	5	2	115	mem	lib	mod	mod	mod	tg	ht	wh/0604.bmp
550.80	0.72	756	5	2	6	per	con	low	mod	low	nt	cr	nh/0236_nh.bmp
551.52	0.72	757	1	1	85	mem	con	low	low	low	nt	ms	nh/0243_nh.bmp
552.24	0.72	758	6	2	19	mem	con	mod	mod	mod	nt	ht	nh/0806_nh.bmp
552.96	0.72	759	6	4	5	per	con	mod	mod	mod	nt	cr	nh/0487_nh.bmp
553.68	0.72	760	6	4	29	per	con	low	mod	low	nt	cr	nh/0007_nh.bmp
554.40	0.72	761	1	1	42	mem	lib	low	low	mod	nt	ms	nh/0539_nh.bmp
555.12	0.72	762	6	3	110	per	lib	low	mod	low	nt	fa	nh/0203_nh.bmp
555.84	0.72	763	5	4	64	mem	lib	mod	mod	low	nt	ht	nh/0259_nh.bmp
556.56	0.72	764	5	4	75	mem	con	mod	mod	mod	tg	ms	wh/0137.bmp
557.28	0.72	765	5	3	99	per	lib	low	mod	low	tg	ms	wh/0988.bmp
558.00	0.72	766	5	2	18	mem	con	mod	mod	mod	tg	ms	wh/0448.bmp
558.72	0.72	767	6	2	43	per	lib	low	mod	low	tg	ht	wh/0792.bmp
559.44	0.72	768	6	4	16	per	con	mod	mod	mod	nt	cr	nh/1010_nh.bmp
560.16	0.72	769	6	4	49	mem	lib	mod	mod	low	nt	ht	nh/0671_nh.bmp
560.88	0.72	770	1	1	39	mem	lib	low	low	mod	tg	ht	wh/0557.bmp
561.60	0.72	771	5	1	111	mem	con	mod	mod	low	tg	ms	wh/0246.bmp
562.32	0.72	772	6	2	91	per	lib	mod	mod	mod	tg	ht	wh/0039.bmp
563.04	0.72	773	5	1	124	mem	lib	mod	mod	low	nt	ht	nh/0283_nh.bmp
563.76	0.72	774	6	4	52	mem	lib	mod	mod	low	tg	ht	wh/0496.bmp
564.48	0.72	775	5	2	24	mem	con	mod	mod	mod	tg	ht	wh/0229.bmp
565.20	0.72	776	1	4	83	mem	con	low	low	low	nt	ms	nh/0535_nh.bmp
565.92	0.72	777	1	1	95	mem	con	low	low	low	nt	ht	nh/0819_nh.bmp
566.64	0.72	778	5	3	116	mem	lib	mod	mod	mod	tg	ht	wh/0628.bmp
567.36	0.72	779	5	1	127	mem	lib	mod	mod	low	tg	ht	wh/0454.bmp
568.08	0.72	780	1	3	17	mem	lib	low	low	mod	nt	ht	nh/0517_nh.bmp
568.80	0.72	781	5	3	124	mem	lib	mod	mod	mod	tg	ht	wh/0562.bmp
569.52	0.72	782	6	1	79	per	con	mod	mod	mod	tg	ms	wh/0538.bmp
570.24	0.72	783	4	2	12	per	con	low	mod	low	tg	ht	wh/0131.bmp
570.96	0.72	784	6	2	18	mem	con	mod	mod	mod	tg	ms	wh/0448.bmp
571.68	0.72	785	6	3	60	mem	con	mod	mod	low	tg	ms	wh/0293.bmp
572.40	0.72	786	6	3	118	mem	lib	mod	mod	mod	nt	ht	nh/0313_nh.bmp
573.12	0.72	787	6	2	47	per	lib	low	mod	low	nt	cr	nh/0757_nh.bmp
573.84	0.72	788	6	2	5	per	con	low	mod	low	nt	cr	nh/0798_nh.bmp
574.56	0.72	789	6	4	67	mem	con	mod	mod	mod	nt	ht	nh/0645_nh.bmp
575.28	0.72	790	5	2	85	per	lib	mod	mod	mod	nt	cr	nh/0834_nh.bmp
576.00	0.72	791	5	3	119	mem	lib	mod	mod	mod	nt	ht	nh/0097_nh.bmp
576.72	0.72	792	6	1	124	mem	lib	mod	mod	low	nt	ht	nh/0283_nh.bmp
577.44	0.72	793	6	4	50	mem	lib	mod	mod	low	tg	ht	wh/0302.bmp
578.16	0.72	794	6	2	36	per	lib	low	mod	low	tg	ms	wh/0683.bmp
578.88	0.72	795	1	1	57	per	con	low	low	low	tg	ms	wh/0026.bmp
579.60	0.72	796	6	2	85	per	lib	mod	mod	mod	nt	cr	nh/0834_nh.bmp
580.32	0.72	797	6	4	51	mem	lib	mod	mod	low	nt	ht	nh/0672_nh.bmp
581.04	0.72	798	6	3	53	mem	con	mod	mod	low	nt	ms	nh/0914_nh.bmp
581.76	0.72	799	6	1	111	mem	con	mod	mod	low	tg	ms	wh/0246.bmp
582.48	0.72	800	4	2	26	mem	con	mod	mod	mod	nt	ms	nh/0592_nh.bmp
583.20	0.72	801	6	4	61	mem	lib	mod	mod	low	tg	ms	wh/0882.bmp
583.92	0.72	802	1	3	18	mem	lib	low	low	mod	nt	ms	nh/0917_nh.bmp
584.64	0.72	803	6	4	24	per	con	low	mod	low	tg	ht	wh/0312.bmp
585.36	0.72	804	6	2	46	per	lib	low	mod	low	nt	fa	nh/0067_nh.bmp
586.08	0.72	805	6	3	59	mem	con	mod	mod	low	tg	ht	wh/0459.bmp
586.80	0.72	806	4	1	97	mem	con	mod	mod	low	nt	ms	nh/0081_nh.bmp
587.52	0.72	807	5	1	97	mem	con	mod	mod	low	nt	ms	nh/0081_nh.bmp
588.24	0.72	808	5	2	32	mem	con	mod	mod	mod	nt	ht	nh/0689_nh.bmp
588.96	0.72	809	5	1	115	mem	lib	mod	mod	low	nt	ht	nh/0400_nh.bmp
589.68	0.72	810	6	3	57	mem	con	mod	mod	low	tg	ms	wh/0412.bmp
590.40	0.72	811	6	3	125	mem	lib	mod	mod	mod	nt	ht	nh/0359_nh.bmp
591.12	0.72	812	5	4	59	mem	lib	mod	mod	low	nt	ht	nh/0422_nh.bmp
591.84	0.72	813	1	1	90	mem	con	low	low	low	nt	ht	nh/0743_nh.bmp
592.56	0.72	814	5	2	26	mem	con	mod	mod	mod	nt	ms	nh/0592_nh.bmp
593.28	0.72	815	5	3	105	per	lib	low	mod	low	nt	fa	nh/0368_nh.bmp
594.00	0.72	816	6	4	75	mem	con	mod	mod	mod	tg	ms	wh/0137.bmp
594.72	0.72	817	6	4	64	mem	lib	mod	mod	low	nt	ht	nh/0259_nh.bmp
595.44	0.72	818	5	1	77	per	con	mod	mod	mod	nt	cr	nh/0445_nh.bmp
596.16	0.72	819	6	3	115	mem	lib	mod	mod	mod	tg	ht	wh/0333.bmp
596.88	0.72	820	1	3	89	mem	con	low	low	mod	nt	ms	nh/0754_nh.bmp
597.60	0.72	821	6	1	105	mem	con	mod	mod	low	tg	ht	wh/0410.bmp
598.32	0.72	822	6	3	101	per	lib	low	mod	low	tg	ms	wh/0511.bmp
599.04	0.72	823	6	4	27	per	con	low	mod	low	nt	cr	nh/1013_nh.bmp
599.76	0.72	824	4	2	126	mem	lib	mod	mod	mod	tg	ht	wh/0049.bmp
600.48	0.72	825	5	1	128	mem	lib	mod	mod	low	tg	ht	wh/0132.bmp
601.20	0.72	826	6	1	68	per	con	mod	mod	mod	nt	cr	nh/0490_nh.bmp
601.92	0.72	827	6	2	83	per	lib	mod	mod	mod	tg	ht	wh/0477.bmp
602.64	0.72	828	6	4	26	per	con	low	mod	low	tg	ht	wh/0295.bmp
603.36	0.72	829	5	2	21	mem	con	mod	mod	mod	tg	ht	wh/0895.bmp
604.08	0.72	830	6	1	99	mem	con	mod	mod	low	tg	ht	wh/0166.bmp
604.80	0.72	831	1	2	79	mem	lib	low	low	low	nt	ht	nh/0130_nh.bmp
605.52	0.72	832	6	1	76	per	con	mod	mod	mod	tg	ht	wh/0705.bmp
606.24	0.72	833	1	2	70	mem	lib	low	low	low	tg	ms	wh/0492.bmp
606.96	0.72	834	6	2	115	mem	lib	mod	mod	mod	tg	ht	wh/0604.bmp
607.68	0.72	835	6	1	127	mem	lib	mod	mod	low	tg	ht	wh/0454.bmp
608.40	0.72	836	6	2	15	per	con	low	mod	low	tg	ms	wh/0523.bmp
609.12	0.72	837	6	2	32	mem	con	mod	mod	mod	nt	ht	nh/0689_nh.bmp
609.84	0.72	838	6	2	48	per	lib	low	mod	low	tg	ht	wh/0976.bmp
610.56	0.72	839	6	3	58	mem	con	mod	mod	low	nt	ht	nh/0438_nh.bmp
611.28	0.72	840	5	2	9	per	con	low	mod	low	tg	ht	wh/0390.bmp
612.00	0.72	841	6	3	116	mem	lib	mod	mod	mod	tg	ht	wh/0628.bmp
612.72	0.72	842	6	3	105	per	lib	low	mod	low	nt	fa	nh/0368_nh.bmp
613.44	0.72	843	5	2	45	per	lib	low	mod	low	tg	ht	wh/0512.bmp
614.16	0.72	844	6	1	103	mem	con	mod	mod	low	nt	ms	nh/0509_nh.bmp
614.88	0.72	845	5	4	10	per	con	mod	mod	mod	tg	ht	wh/0071.bmp
615.60	0.72	846	6	2	26	mem	con	mod	mod	mod	nt	ms	nh/0592_nh.bmp
616.32	0.72	847	1	3	29	mem	lib	low	low	mod	tg	ht	wh/0069.bmp
617.04	0.72	848	6	4	10	per	con	mod	mod	mod	tg	ht	wh/0071.bmp
617.76	0.72	849	6	2	24	mem	con	mod	mod	mod	tg	ht	wh/0229.bmp
618.48	0.72	850	1	3	82	mem	con	low	low	mod	tg	ht	wh/0630.bmp
619.20	0.72	851	6	1	115	mem	lib	mod	mod	low	nt	ht	nh/0400_nh.bmp
619.92	0.72	852	5	2	125	mem	lib	mod	mod	mod	nt	ht	nh/0943_nh.bmp
620.64	0.72	853	6	2	9	per	con	low	mod	low	tg	ht	wh/0390.bmp
621.36	0.72	854	5	2	12	per	con	low	mod	low	tg	ht	wh/0131.bmp
622.08	0.72	855	6	4	13	per	con	mod	mod	mod	nt	cr	nh/0576_nh.bmp
622.80	0.72	856	6	2	12	per	con	low	mod	low	tg	ht	wh/0131.bmp
623.52	0.72	857	6	4	71	mem	con	mod	mod	mod	nt	ht	nh/0665_nh.bmp
624.24	0.72	858	6	2	125	mem	lib	mod	mod	mod	nt	ht	nh/0943_nh.bmp
624.96	0.72	859	5	4	20	per	con	low	mod	low	nt	cr	nh/0791_nh.bmp
625.68	0.72	860	6	4	20	per	con	low	mod	low	nt	cr	nh/0791_nh.bmp
626.40	0.72	861	6	3	113	mem	lib	mod	mod	mod	tg	ht	wh/0799.bmp
627.12	0.72	862	6	2	21	mem	con	mod	mod	mod	tg	ht	wh/0895.bmp
627.84	0.72	863	6	3	99	per	lib	low	mod	low	tg	ms	wh/0988.bmp
628.56	0.72	864	6	3	103	per	lib	low	mod	low	tg	ht	wh/0661.bmp
629.28	0.72	865	5	3	120	mem	lib	mod	mod	mod	nt	ht	nh/0331_nh.bmp
630.00	0.72	866	4	1	66	per	con	mod	mod	mod	nt	cr	nh/0753_nh.bmp
630.72	0.72	867	6	4	44	per	lib	mod	mod	mod	nt	cr	nh/0970_nh.bmp
631.44	0.72	868	6	1	128	mem	lib	mod	mod	low	tg	ht	wh/0132.bmp
632.16	0.72	869	6	1	77	per	con	mod	mod	mod	nt	cr	nh/0445_nh.bmp
632.88	0.72	870	6	4	78	mem	con	mod	mod	mod	tg	ms	wh/0961.bmp
633.60	0.72	871	6	3	120	mem	lib	mod	mod	mod	nt	ht	nh/0331_nh.bmp
634.32	0.72	872	6	4	38	per	lib	mod	mod	mod	tg	ht	wh/0983.bmp
635.04	0.72	873	5	1	66	per	con	mod	mod	mod	nt	cr	nh/0753_nh.bmp
635.76	0.72	874	1	2	97	mem	con	low	low	mod	tg	ms	wh/0985.bmp
636.48	0.72	875	6	3	102	per	lib	low	mod	low	tg	ht	wh/0124.bmp
637.20	0.72	876	6	4	35	per	lib	mod	mod	mod	tg	ht	wh/0761.bmp
637.92	0.72	877	6	2	31	mem	con	mod	mod	mod	nt	ms	nh/0479_nh.bmp
638.64	0.72	878	6	1	66	per	con	mod	mod	mod	nt	cr	nh/0753_nh.bmp
639.36	0.72	879	6	3	124	mem	lib	mod	mod	mod	tg	ht	wh/0562.bmp
640.08	0.72	880	6	2	6	per	con	low	mod	low	nt	cr	nh/0236_nh.bmp
640.80	0.72	881	1	3	43	per	con	mod	low	mod	tg	ht	wh/0991.bmp
641.52	0.72	882	6	4	59	mem	lib	mod	mod	low	nt	ht	nh/0422_nh.bmp
642.24	0.72	883	6	1	97	mem	con	mod	mod	low	nt	ms	nh/0081_nh.bmp
642.96	0.72	884	6	3	119	mem	lib	mod	mod	mod	nt	ht	nh/0097_nh.bmp
643.68	0.72	885	6	4	19	per	con	low	mod	low	tg	ms	wh/0415.bmp
644.40	0.72	886	1	1	17	per	lib	mod	low	mod	nt	cr	nh/0872_nh.bmp
645.12	0.72	887	6	4	2	per	con	mod	mod	mod	nt	cr	nh/1006_nh.bmp
645.84	0.72	888	6	2	127	mem	lib	mod	mod	mod	nt	ms	nh/0427_nh.bmp
646.56	0.72	889	6	2	123	mem	lib	mod	mod	mod	tg	ht	wh/0931.bmp
647.28	0.72	890	1	2	102	mem	con	low	low	mod	tg	ht	wh/0937.bmp
648.00	0.72	891	1	4	86	mem	con	low	low	low	nt	ms	nh/0160_nh.bmp
648.72	0.72	892	5	2	126	mem	lib	mod	mod	mod	tg	ht	wh/0049.bmp
649.44	0.72	893	6	2	45	per	lib	low	mod	low	tg	ht	wh/0512.bmp
650.16	0.72	894	6	3	63	mem	con	mod	mod	low	nt	ht	nh/0765_nh.bmp
650.88	0.72	895	6	2	126	mem	lib	mod	mod	mod	tg	ht	wh/0049.bmp
651.60	0.72	896	6	4	1	per	con	mod	mod	mod	tg	ms	wh/0901.bmp
