onset	duration	trial	pres	ts_blk	ts_trl	task	crit	disc	mem_disc	per_disc	per_type	accuracy	stim_file
7.20	0.72	1	1	7	101	mem	lib	low	low	mod	nt	ht	nh/0581_nh.bmp
7.92	0.72	2	1	6	68	per	con	mod	mod	mod	nt	cr	nh/0398_nh.bmp
8.64	0.72	3	1	6	126	per	con	low	mod	low	nt	cr	nh/0082_nh.bmp
9.36	0.72	4	1	6	125	per	con	low	mod	low	tg	ht	wh/0123.bmp
10.08	0.72	5	1	6	122	per	con	low	mod	low	nt	cr	nh/0964_nh.bmp
10.80	0.72	6	1	8	8	per	con	low	mod	low	tg	ms	wh/0802.bmp
11.52	0.72	7	1	6	13	mem	lib	mod	mod	mod	nt	ht	nh/0855_nh.bmp
12.24	0.72	8	1	6	95	per	lib	mod	mod	mod	tg	ht	wh/0497.bmp
12.96	0.72	9	1	7	26	mem	con	mod	mod	mod	nt	ht	nh/0716_nh.bmp
13.68	0.72	10	1	6	26	per	lib	low	low	low	tg	ht	wh/0483.bmp
14.40	0.72	11	1	8	108	mem	con	mod	mod	low	nt	ms	nh/0036_nh.bmp
15.12	0.72	12	1	7	89	mem	lib	mod	mod	low	tg	ht	wh/0345.bmp
15.84	0.72	13	1	5	44	mem	con	mod	mod	low	tg	ht	wh/0194.bmp
16.56	0.72	14	1	7	40	per	con	mod	mod	mod	nt	cr	nh/0593_nh.bmp
17.28	0.72	15	1	7	32	mem	con	mod	mod	mod	tg	ht	wh/0928.bmp
18.00	0.72	16	1	8	43	mem	lib	mod	mod	mod	tg	ht	wh/0805.bmp
18.72	0.72	17	1	7	19	mem	con	mod	mod	mod	tg	ht	wh/0803.bmp
19.44	0.72	18	1	8	78	mem	con	low	low	low	tg	ht	wh/0292.bmp
20.16	0.72	19	1	8	113	per	lib	low	low	low	tg	ms	wh/0701.bmp
20.88	0.72	20	1	5	103	mem	lib	mod	mod	low	nt	ht	nh/0364_nh.bmp
21.60	0.72	21	1	5	41	mem	con	mod	mod	low	nt	ht	nh/0032_nh.bmp
22.32	0.72	22	1	8	86	per	lib	mod	mod	mod	nt	cr	nh/0947_nh.bmp
23.04	0.72	23	1	5	32	per	lib	mod	low	mod	nt	fa	nh/0774_nh.bmp
23.76	0.72	24	1	5	65	mem	con	low	low	low	nt	ms	nh/0434_nh.bmp
24.48	0.72	25	1	5	97	mem	lib	mod	mod	low	tg	ht	wh/0404.bmp
25.20	0.72	26	1	6	35	mem	con	mod	mod	mod	nt	ms	nh/0543_nh.bmp
25.92	0.72	27	1	8	10	per	con	low	mod	low	nt	cr	nh/0336_nh.bmp
26.64	0.72	28	1	7	4	per	lib	low	mod	low	nt	cr	nh/0029_nh.bmp
27.36	0.72	29	1	5	54	per	lib	low	mod	low	tg	ht	wh/0383.bmp
28.08	0.72	30	1	8	7	per	con	low	mod	low	nt	fa	nh/0079_nh.bmp
28.80	0.72	31	1	5	101	mem	lib	mod	mod	low	tg	ht	wh/0355.bmp
29.52	0.72	32	1	5	102	mem	lib	mod	mod	low	nt	ht	nh/0758_nh.bmp
30.24	0.72	33	1	7	24	mem	con	mod	mod	mod	nt	ht	nh/0807_nh.bmp
30.96	0.72	34	1	6	14	mem	lib	mod	mod	mod	nt	ms	nh/0094_nh.bmp
31.68	0.72	35	2	7	26	mem	con	mod	mod	mod	nt	ht	nh/0716_nh.bmp
32.40	0.72	36	2	8	43	mem	lib	mod	mod	mod	tg	ht	wh/0805.bmp
33.12	0.72	37	2	6	35	mem	con	mod	mod	mod	nt	ms	nh/0543_nh.bmp
33.84	0.72	38	1	6	7	mem	lib	mod	mod	mod	nt	ht	nh/0187_nh.bmp
34.56	0.72	39	1	5	99	mem	lib	mod	mod	low	nt	ht	nh/0351_nh.bmp
35.28	0.72	40	2	7	24	mem	con	mod	mod	mod	nt	ht	nh/0807_nh.bmp
36.00	0.72	41	1	8	94	per	lib	mod	mod	mod	tg	ht	wh/0563.bmp
36.72	0.72	42	3	7	26	mem	con	mod	mod	mod	nt	ht	nh/0716_nh.bmp
37.44	0.72	43	1	8	98	mem	con	mod	mod	low	tg	ms	wh/0361.bmp
38.16	0.72	44	1	5	114	per	con	low	low	low	tg	ms	wh/0223.bmp
38.88	0.72	45	2	8	10	per	con	low	mod	low	nt	cr	nh/0336_nh.bmp
39.60	0.72	46	3	8	43	mem	lib	mod	mod	mod	tg	ht	wh/0805.bmp
40.32	0.72	47	1	5	21	per	lib	mod	low	mod	nt	cr	nh/0281_nh.bmp
41.04	0.72	48	1	6	70	per	con	mod	mod	mod	tg	ms	wh/0795.bmp
41.76	0.72	49	1	5	104	mem	lib	mod	mod	low	tg	ht	wh/0744.bmp
42.48	0.72	50	1	7	11	per	lib	low	mod	low	tg	ht	wh/0568.bmp
43.20	0.72	51	1	8	97	mem	con	mod	mod	low	tg	ms	wh/0690.bmp
43.92	0.72	52	1	8	46	mem	lib	mod	mod	mod	nt	ht	nh/0182_nh.bmp
44.64	0.72	53	1	5	55	per	lib	low	mod	low	tg	ht	wh/0465.bmp
45.36	0.72	54	1	5	48	mem	con	mod	mod	low	tg	ht	wh/0963.bmp
46.08	0.72	55	1	7	127	per	lib	mod	low	mod	tg	ht	wh/0782.bmp
46.80	0.72	56	1	8	47	mem	lib	mod	mod	mod	nt	ht	nh/0904_nh.bmp
47.52	0.72	57	1	8	89	per	lib	mod	mod	mod	nt	cr	nh/0973_nh.bmp
48.24	0.72	58	1	5	107	mem	lib	mod	mod	low	nt	ht	nh/0256_nh.bmp
48.96	0.72	59	1	6	46	mem	con	mod	mod	mod	tg	ms	wh/0196.bmp
49.68	0.72	60	1	8	48	mem	lib	mod	mod	mod	nt	ht	nh/0810_nh.bmp
50.40	0.72	61	1	6	120	per	con	low	mod	low	tg	ht	wh/1023.bmp
51.12	0.72	62	1	5	61	per	lib	low	mod	low	nt	cr	nh/0075_nh.bmp
51.84	0.72	63	2	7	89	mem	lib	mod	mod	low	tg	ht	wh/0345.bmp
52.56	0.72	64	2	5	104	mem	lib	mod	mod	low	tg	ht	wh/0744.bmp
53.28	0.72	65	1	7	46	per	con	mod	mod	mod	nt	cr	nh/0558_nh.bmp
54.00	0.72	66	1	7	8	per	lib	low	mod	low	tg	ht	wh/0503.bmp
54.72	0.72	67	2	5	48	mem	con	mod	mod	low	tg	ht	wh/0963.bmp
55.44	0.72	68	1	7	21	mem	con	mod	mod	mod	nt	ht	nh/0772_nh.bmp
56.16	0.72	69	1	8	33	mem	lib	mod	mod	mod	tg	ht	wh/0209.bmp
56.88	0.72	70	1	5	125	per	con	low	low	low	tg	ht	wh/0691.bmp
57.60	0.72	71	1	6	79	per	con	mod	mod	mod	nt	cr	nh/0902_nh.bmp
58.32	0.72	72	1	7	80	mem	con	low	low	mod	tg	ms	wh/0849.bmp
59.04	0.72	73	2	8	89	per	lib	mod	mod	mod	nt	cr	nh/0973_nh.bmp
59.76	0.72	74	1	5	56	per	lib	low	mod	low	nt	cr	nh/0967_nh.bmp
60.48	0.72	75	1	5	84	mem	lib	low	low	mod	nt	ht	nh/0525_nh.bmp
61.20	0.72	76	1	8	5	per	con	low	mod	low	tg	ht	wh/0613.bmp
61.92	0.72	77	1	8	6	per	con	low	mod	low	tg	ms	wh/0153.bmp
62.64	0.72	78	1	6	64	mem	lib	low	low	low	nt	ms	nh/0507_nh.bmp
63.36	0.72	79	1	7	83	mem	lib	mod	mod	low	tg	ht	wh/0134.bmp
64.08	0.72	80	1	5	45	mem	con	mod	mod	low	tg	ht	wh/0660.bmp
64.80	0.72	81	2	8	97	mem	con	mod	mod	low	tg	ms	wh/0690.bmp
65.52	0.72	82	1	8	120	per	lib	low	low	low	nt	fa	nh/0815_nh.bmp
66.24	0.72	83	1	6	116	per	con	low	mod	low	nt	cr	nh/0635_nh.bmp
66.96	0.72	84	1	7	34	per	con	mod	mod	mod	tg	ms	wh/0748.bmp
67.68	0.72	85	2	5	107	mem	lib	mod	mod	low	nt	ht	nh/0256_nh.bmp
68.40	0.72	86	1	6	41	mem	con	mod	mod	mod	tg	ht	wh/0446.bmp
69.12	0.72	87	2	8	8	per	con	low	mod	low	tg	ms	wh/0802.bmp
69.84	0.72	88	3	8	10	per	con	low	mod	low	nt	cr	nh/0336_nh.bmp
70.56	0.72	89	1	5	36	mem	con	mod	mod	low	tg	ms	wh/0035.bmp
71.28	0.72	90	1	7	15	per	lib	low	mod	low	nt	cr	nh/0489_nh.bmp
72.00	0.72	91	1	7	96	mem	lib	mod	mod	low	tg	ht	wh/0510.bmp
72.72	0.72	92	1	7	10	per	lib	low	mod	low	tg	ht	wh/0508.bmp
73.44	0.72	93	1	8	99	mem	con	mod	mod	low	tg	ht	wh/0760.bmp
74.16	0.72	94	2	6	79	per	con	mod	mod	mod	nt	cr	nh/0902_nh.bmp
74.88	0.72	95	1	8	1	per	con	low	mod	low	nt	cr	nh/0451_nh.bmp
75.60	0.72	96	1	8	16	per	con	low	mod	low	nt	fa	nh/0150_nh.bmp
76.32	0.72	97	1	5	109	mem	lib	mod	mod	low	tg	ht	wh/0730.bmp
77.04	0.72	98	1	6	127	per	con	low	mod	low	nt	cr	nh/0608_nh.bmp
77.76	0.72	99	2	5	55	per	lib	low	mod	low	tg	ht	wh/0465.bmp
78.48	0.72	100	1	7	20	mem	con	mod	mod	mod	tg	ht	wh/0909.bmp
79.20	0.72	101	2	8	99	mem	con	mod	mod	low	tg	ht	wh/0760.bmp
79.92	0.72	102	1	7	90	mem	lib	mod	mod	low	nt	ht	nh/0329_nh.bmp
80.64	0.72	103	4	7	26	mem	con	mod	mod	mod	nt	ht	nh/0716_nh.bmp
81.36	0.72	104	2	6	116	per	con	low	mod	low	nt	cr	nh/0635_nh.bmp
82.08	0.72	105	2	6	95	per	lib	mod	mod	mod	tg	ht	wh/0497.bmp
82.80	0.72	106	1	7	84	mem	lib	mod	mod	low	nt	ht	nh/0284_nh.bmp
83.52	0.72	107	1	6	98	mem	con	low	low	mod	nt	ht	nh/0699_nh.bmp
84.24	0.72	108	2	6	122	per	con	low	mod	low	nt	cr	nh/0964_nh.bmp
84.96	0.72	109	2	7	46	per	con	mod	mod	mod	nt	cr	nh/0558_nh.bmp
85.68	0.72	110	1	8	31	per	con	mod	low	mod	tg	ht	wh/0216.bmp
86.40	0.72	111	1	7	91	mem	lib	mod	mod	low	nt	ht	nh/0299_nh.bmp
87.12	0.72	112	1	7	25	mem	con	mod	mod	mod	tg	ht	wh/0371.bmp
87.84	0.72	113	1	5	5	per	con	mod	low	mod	nt	cr	nh/0626_nh.bmp
88.56	0.72	114	3	5	48	mem	con	mod	mod	low	tg	ht	wh/0963.bmp
89.28	0.72	115	2	7	21	mem	con	mod	mod	mod	nt	ht	nh/0772_nh.bmp
90.00	0.72	116	1	6	85	per	lib	mod	mod	mod	tg	ht	wh/0396.bmp
90.72	0.72	117	2	6	14	mem	lib	mod	mod	mod	nt	ms	nh/0094_nh.bmp
91.44	0.72	118	1	5	46	mem	con	mod	mod	low	nt	ht	nh/0646_nh.bmp
92.16	0.72	119	1	7	3	per	lib	low	mod	low	nt	cr	nh/0893_nh.bmp
92.88	0.72	120	2	8	5	per	con	low	mod	low	tg	ht	wh/0613.bmp
93.60	0.72	121	1	6	65	per	con	mod	mod	mod	tg	ms	wh/0380.bmp
94.32	0.72	122	1	6	94	per	lib	mod	mod	mod	tg	ht	wh/0843.bmp
95.04	0.72	123	3	6	79	per	con	mod	mod	mod	nt	cr	nh/0902_nh.bmp
95.76	0.72	124	1	8	102	mem	con	mod	mod	low	nt	ms	nh/0077_nh.bmp
96.48	0.72	125	1	6	6	mem	lib	mod	mod	mod	tg	ht	wh/0222.bmp
97.20	0.72	126	2	8	33	mem	lib	mod	mod	mod	tg	ht	wh/0209.bmp
97.92	0.72	127	1	6	8	mem	lib	mod	mod	mod	nt	ht	nh/0319_nh.bmp
98.64	0.72	128	2	8	16	per	con	low	mod	low	nt	fa	nh/0150_nh.bmp
99.36	0.72	129	1	8	2	per	con	low	mod	low	tg	ht	wh/0417.bmp
100.08	0.72	130	1	7	37	per	con	mod	mod	mod	nt	cr	nh/0350_nh.bmp
100.80	0.72	131	3	6	14	mem	lib	mod	mod	mod	nt	ms	nh/0094_nh.bmp
101.52	0.72	132	4	8	43	mem	lib	mod	mod	mod	tg	ht	wh/0805.bmp
102.24	0.72	133	3	8	97	mem	con	mod	mod	low	tg	ms	wh/0690.bmp
102.96	0.72	134	2	5	41	mem	con	mod	mod	low	nt	ht	nh/0032_nh.bmp
103.68	0.72	135	1	8	38	mem	lib	mod	mod	mod	tg	ms	wh/0428.bmp
104.40	0.72	136	1	5	53	per	lib	low	mod	low	nt	cr	nh/0074_nh.bmp
105.12	0.72	137	3	8	16	per	con	low	mod	low	nt	fa	nh/0150_nh.bmp
105.84	0.72	138	3	8	99	mem	con	mod	mod	low	tg	ht	wh/0760.bmp
106.56	0.72	139	4	5	48	mem	con	mod	mod	low	tg	ht	wh/0963.bmp
107.28	0.72	140	2	6	127	per	con	low	mod	low	nt	cr	nh/0608_nh.bmp
108.00	0.72	141	1	7	38	per	con	mod	mod	mod	nt	cr	nh/0339_nh.bmp
108.72	0.72	142	3	8	8	per	con	low	mod	low	tg	ms	wh/0802.bmp
109.44	0.72	143	2	8	94	per	lib	mod	mod	mod	tg	ht	wh/0563.bmp
110.16	0.72	144	2	7	37	per	con	mod	mod	mod	nt	cr	nh/0350_nh.bmp
110.88	0.72	145	3	6	127	per	con	low	mod	low	nt	cr	nh/0608_nh.bmp
111.60	0.72	146	2	6	68	per	con	mod	mod	mod	nt	cr	nh/0398_nh.bmp
112.32	0.72	147	1	7	87	mem	lib	mod	mod	low	nt	ht	nh/0382_nh.bmp
113.04	0.72	148	1	8	100	mem	con	mod	mod	low	nt	ms	nh/0818_nh.bmp
113.76	0.72	149	1	7	110	mem	lib	low	low	mod	tg	ms	wh/0936.bmp
114.48	0.72	150	1	5	118	per	con	low	low	low	tg	ms	wh/0237.bmp
115.20	0.72	151	2	8	6	per	con	low	mod	low	tg	ms	wh/0153.bmp
115.92	0.72	152	2	7	19	mem	con	mod	mod	mod	tg	ht	wh/0803.bmp
116.64	0.72	153	2	5	61	per	lib	low	mod	low	nt	cr	nh/0075_nh.bmp
117.36	0.72	154	1	5	30	per	lib	mod	low	mod	tg	ht	wh/0038.bmp
118.08	0.72	155	1	8	81	per	lib	mod	mod	mod	tg	ms	wh/0784.bmp
118.80	0.72	156	1	5	11	per	con	mod	low	mod	nt	cr	nh/0096_nh.bmp
119.52	0.72	157	2	5	45	mem	con	mod	mod	low	tg	ht	wh/0660.bmp
120.24	0.72	158	3	6	35	mem	con	mod	mod	mod	nt	ms	nh/0543_nh.bmp
120.96	0.72	159	1	5	51	per	lib	low	mod	low	tg	ms	wh/0238.bmp
121.68	0.72	160	2	6	125	per	con	low	mod	low	tg	ht	wh/0123.bmp
122.40	0.72	161	2	5	97	mem	lib	mod	mod	low	tg	ht	wh/0404.bmp
123.12	0.72	162	2	6	41	mem	con	mod	mod	mod	tg	ht	wh/0446.bmp
123.84	0.72	163	1	8	37	mem	lib	mod	mod	mod	tg	ht	wh/0273.bmp
124.56	0.72	164	2	6	120	per	con	low	mod	low	tg	ht	wh/1023.bmp
125.28	0.72	165	3	8	94	per	lib	mod	mod	mod	tg	ht	wh/0563.bmp
126.00	0.72	166	1	8	56	mem	lib	low	low	low	tg	ht	wh/0261.bmp
126.72	0.72	167	2	7	38	per	con	mod	mod	mod	nt	cr	nh/0339_nh.bmp
127.44	0.72	168	2	7	8	per	lib	low	mod	low	tg	ht	wh/0503.bmp
128.16	0.72	169	1	6	87	per	lib	mod	mod	mod	nt	cr	nh/0876_nh.bmp
128.88	0.72	170	1	6	2	mem	lib	mod	mod	mod	tg	ht	wh/0874.bmp
129.60	0.72	171	1	6	71	per	con	mod	mod	mod	tg	ht	wh/0442.bmp
130.32	0.72	172	2	7	90	mem	lib	mod	mod	low	nt	ht	nh/0329_nh.bmp
131.04	0.72	173	3	7	21	mem	con	mod	mod	mod	nt	ht	nh/0772_nh.bmp
131.76	0.72	174	1	7	82	mem	lib	mod	mod	low	tg	ht	wh/0338.bmp
132.48	0.72	175	2	8	1	per	con	low	mod	low	nt	cr	nh/0451_nh.bmp
133.20	0.72	176	1	7	63	per	con	low	low	low	nt	cr	nh/0431_nh.bmp
133.92	0.72	177	1	6	48	mem	con	mod	mod	mod	nt	ht	nh/0542_nh.bmp
134.64	0.72	178	3	7	90	mem	lib	mod	mod	low	nt	ht	nh/0329_nh.bmp
135.36	0.72	179	1	6	1	mem	lib	mod	mod	mod	tg	ht	wh/0199.bmp
136.08	0.72	180	4	8	94	per	lib	mod	mod	mod	tg	ht	wh/0563.bmp
136.80	0.72	181	3	6	68	per	con	mod	mod	mod	nt	cr	nh/0398_nh.bmp
137.52	0.72	182	2	8	47	mem	lib	mod	mod	mod	nt	ht	nh/0904_nh.bmp
138.24	0.72	183	1	6	54	mem	lib	low	low	low	nt	ms	nh/0998_nh.bmp
138.96	0.72	184	3	8	5	per	con	low	mod	low	tg	ht	wh/0613.bmp
139.68	0.72	185	2	7	91	mem	lib	mod	mod	low	nt	ht	nh/0299_nh.bmp
140.40	0.72	186	2	8	81	per	lib	mod	mod	mod	tg	ms	wh/0784.bmp
141.12	0.72	187	3	8	81	per	lib	mod	mod	mod	tg	ms	wh/0784.bmp
141.84	0.72	188	2	8	102	mem	con	mod	mod	low	nt	ms	nh/0077_nh.bmp
142.56	0.72	189	2	8	100	mem	con	mod	mod	low	nt	ms	nh/0818_nh.bmp
143.28	0.72	190	2	7	3	per	lib	low	mod	low	nt	cr	nh/0893_nh.bmp
144.00	0.72	191	3	7	37	per	con	mod	mod	mod	nt	cr	nh/0350_nh.bmp
144.72	0.72	192	2	6	94	per	lib	mod	mod	mod	tg	ht	wh/0843.bmp
145.44	0.72	193	1	7	76	mem	con	low	low	mod	nt	ht	nh/0838_nh.bmp
146.16	0.72	194	2	5	54	per	lib	low	mod	low	tg	ht	wh/0383.bmp
146.88	0.72	195	3	5	104	mem	lib	mod	mod	low	tg	ht	wh/0744.bmp
147.60	0.72	196	2	5	56	per	lib	low	mod	low	nt	cr	nh/0967_nh.bmp
148.32	0.72	197	1	6	66	per	con	mod	mod	mod	nt	cr	nh/0328_nh.bmp
149.04	0.72	198	1	6	39	mem	con	mod	mod	mod	nt	ht	nh/0594_nh.bmp
149.76	0.72	199	2	5	44	mem	con	mod	mod	low	tg	ht	wh/0194.bmp
150.48	0.72	200	2	6	66	per	con	mod	mod	mod	nt	cr	nh/0328_nh.bmp
151.20	0.72	201	1	5	77	mem	con	low	low	low	tg	ms	wh/0225.bmp
151.92	0.72	202	2	7	20	mem	con	mod	mod	mod	tg	ht	wh/0909.bmp
152.64	0.72	203	3	5	45	mem	con	mod	mod	low	tg	ht	wh/0660.bmp
153.36	0.72	204	3	7	46	per	con	mod	mod	mod	nt	cr	nh/0558_nh.bmp
154.08	0.72	205	4	7	46	per	con	mod	mod	mod	nt	cr	nh/0558_nh.bmp
154.80	0.72	206	2	6	87	per	lib	mod	mod	mod	nt	cr	nh/0876_nh.bmp
155.52	0.72	207	1	6	119	per	con	low	mod	low	tg	ms	wh/0493.bmp
156.24	0.72	208	1	7	57	per	con	low	low	low	nt	cr	nh/0112_nh.bmp
156.96	0.72	209	1	8	128	per	lib	low	low	low	nt	cr	nh/0185_nh.bmp
157.68	0.72	210	2	6	1	mem	lib	mod	mod	mod	tg	ht	wh/0199.bmp
158.40	0.72	211	2	5	53	per	lib	low	mod	low	nt	cr	nh/0074_nh.bmp
159.12	0.72	212	3	6	87	per	lib	mod	mod	mod	nt	cr	nh/0876_nh.bmp
159.84	0.72	213	3	7	3	per	lib	low	mod	low	nt	cr	nh/0893_nh.bmp
160.56	0.72	214	1	8	83	per	lib	mod	mod	mod	tg	ht	wh/0548.bmp
161.28	0.72	215	2	6	6	mem	lib	mod	mod	mod	tg	ht	wh/0222.bmp
162.00	0.72	216	1	8	103	mem	con	mod	mod	low	nt	ht	nh/0232_nh.bmp
162.72	0.72	217	2	6	39	mem	con	mod	mod	mod	nt	ht	nh/0594_nh.bmp
163.44	0.72	218	2	6	2	mem	lib	mod	mod	mod	tg	ht	wh/0874.bmp
164.16	0.72	219	1	8	101	mem	con	mod	mod	low	tg	ht	wh/0443.bmp
164.88	0.72	220	1	7	108	mem	lib	low	low	mod	tg	ht	wh/0531.bmp
165.60	0.72	221	3	5	44	mem	con	mod	mod	low	tg	ht	wh/0194.bmp
166.32	0.72	222	1	8	122	per	lib	low	low	low	nt	cr	nh/0579_nh.bmp
167.04	0.72	223	3	5	97	mem	lib	mod	mod	low	tg	ht	wh/0404.bmp
167.76	0.72	224	4	8	5	per	con	low	mod	low	tg	ht	wh/0613.bmp
168.48	0.72	225	1	5	58	per	lib	low	mod	low	tg	ht	wh/0125.bmp
169.20	0.72	226	2	8	86	per	lib	mod	mod	mod	nt	cr	nh/0947_nh.bmp
169.92	0.72	227	2	6	7	mem	lib	mod	mod	mod	nt	ht	nh/0187_nh.bmp
170.64	0.72	228	2	5	109	mem	lib	mod	mod	low	tg	ht	wh/0730.bmp
171.36	0.72	229	1	8	87	per	lib	mod	mod	mod	tg	ht	wh/0447.bmp
172.08	0.72	230	2	7	11	per	lib	low	mod	low	tg	ht	wh/0568.bmp
172.80	0.72	231	2	7	15	per	lib	low	mod	low	nt	cr	nh/0489_nh.bmp
173.52	0.72	232	3	6	125	per	con	low	mod	low	tg	ht	wh/0123.bmp
174.24	0.72	233	1	7	42	per	con	mod	mod	mod	tg	ms	wh/0962.bmp
174.96	0.72	234	2	7	4	per	lib	low	mod	low	nt	cr	nh/0029_nh.bmp
175.68	0.72	235	3	6	95	per	lib	mod	mod	mod	tg	ht	wh/0497.bmp
176.40	0.72	236	1	5	34	mem	con	mod	mod	low	nt	ms	nh/0080_nh.bmp
177.12	0.72	237	2	7	32	mem	con	mod	mod	mod	tg	ht	wh/0928.bmp
177.84	0.72	238	2	8	37	mem	lib	mod	mod	mod	tg	ht	wh/0273.bmp
178.56	0.72	239	1	7	35	per	con	mod	mod	mod	tg	ht	wh/0957.bmp
179.28	0.72	240	4	6	95	per	lib	mod	mod	mod	tg	ht	wh/0497.bmp
180.00	0.72	241	4	5	104	mem	lib	mod	mod	low	tg	ht	wh/0744.bmp
180.72	0.72	242	1	8	34	mem	lib	mod	mod	mod	nt	ht	nh/0650_nh.bmp
181.44	0.72	243	2	8	87	per	lib	mod	mod	mod	tg	ht	wh/0447.bmp
182.16	0.72	244	5	5	104	mem	lib	mod	mod	low	tg	ht	wh/0744.bmp
182.88	0.72	245	3	8	33	mem	lib	mod	mod	mod	tg	ht	wh/0209.bmp
183.60	0.72	246	2	7	34	per	con	mod	mod	mod	tg	ms	wh/0748.bmp
184.32	0.72	247	3	6	94	per	lib	mod	mod	mod	tg	ht	wh/0843.bmp
185.04	0.72	248	1	5	96	mem	lib	low	low	mod	nt	ms	nh/0890_nh.bmp
185.76	0.72	249	1	7	18	mem	con	mod	mod	mod	nt	ht	nh/0540_nh.bmp
186.48	0.72	250	2	6	70	per	con	mod	mod	mod	tg	ms	wh/0795.bmp
187.20	0.72	251	2	8	83	per	lib	mod	mod	mod	tg	ht	wh/0548.bmp
187.92	0.72	252	2	7	96	mem	lib	mod	mod	low	tg	ht	wh/0510.bmp
188.64	0.72	253	3	6	1	mem	lib	mod	mod	mod	tg	ht	wh/0199.bmp
189.36	0.72	254	3	6	66	per	con	mod	mod	mod	nt	cr	nh/0328_nh.bmp
190.08	0.72	255	2	7	10	per	lib	low	mod	low	tg	ht	wh/0508.bmp
190.80	0.72	256	2	8	7	per	con	low	mod	low	nt	fa	nh/0079_nh.bmp
191.52	0.72	257	2	6	126	per	con	low	mod	low	nt	cr	nh/0082_nh.bmp
192.24	0.72	258	2	8	46	mem	lib	mod	mod	mod	nt	ht	nh/0182_nh.bmp
192.96	0.72	259	4	8	81	per	lib	mod	mod	mod	tg	ms	wh/0784.bmp
193.68	0.72	260	1	7	12	per	lib	low	mod	low	nt	cr	nh/0619_nh.bmp
194.40	0.72	261	2	8	98	mem	con	mod	mod	low	tg	ms	wh/0361.bmp
195.12	0.72	262	3	7	38	per	con	mod	mod	mod	nt	cr	nh/0339_nh.bmp
195.84	0.72	263	1	5	60	per	lib	low	mod	low	nt	cr	nh/0190_nh.bmp
196.56	0.72	264	2	5	46	mem	con	mod	mod	low	nt	ht	nh/0646_nh.bmp
197.28	0.72	265	1	6	62	mem	lib	low	low	low	tg	ht	wh/0812.bmp
198.00	0.72	266	3	5	61	per	lib	low	mod	low	nt	cr	nh/0075_nh.bmp
198.72	0.72	267	1	8	64	mem	lib	low	low	low	tg	ht	wh/0055.bmp
199.44	0.72	268	1	5	37	mem	con	mod	mod	low	nt	ms	nh/0940_nh.bmp
200.16	0.72	269	1	6	36	mem	con	mod	mod	mod	tg	ms	wh/0099.bmp
200.88	0.72	270	2	5	102	mem	lib	mod	mod	low	nt	ht	nh/0758_nh.bmp
201.60	0.72	271	1	7	98	mem	lib	low	low	mod	nt	ms	nh/0860_nh.bmp
202.32	0.72	272	2	6	36	mem	con	mod	mod	mod	tg	ms	wh/0099.bmp
203.04	0.72	273	1	8	73	mem	con	low	low	low	tg	ht	wh/1009.bmp
203.76	0.72	274	1	7	33	per	con	mod	mod	mod	tg	ht	wh/0946.bmp
204.48	0.72	275	3	6	39	mem	con	mod	mod	mod	nt	ht	nh/0594_nh.bmp
205.20	0.72	276	3	5	53	per	lib	low	mod	low	nt	cr	nh/0074_nh.bmp
205.92	0.72	277	2	5	101	mem	lib	mod	mod	low	tg	ht	wh/0355.bmp
206.64	0.72	278	4	6	66	per	con	mod	mod	mod	nt	cr	nh/0328_nh.bmp
207.36	0.72	279	1	5	85	mem	lib	low	low	mod	tg	ht	wh/0520.bmp
208.08	0.72	280	4	7	90	mem	lib	mod	mod	low	nt	ht	nh/0329_nh.bmp
208.80	0.72	281	1	6	78	per	con	mod	mod	mod	nt	cr	nh/0591_nh.bmp
209.52	0.72	282	1	8	117	per	lib	low	low	low	tg	ms	wh/0864.bmp
210.24	0.72	283	1	7	56	per	con	low	low	low	tg	ms	wh/0488.bmp
210.96	0.72	284	3	8	102	mem	con	mod	mod	low	nt	ms	nh/0077_nh.bmp
211.68	0.72	285	2	6	48	mem	con	mod	mod	mod	nt	ht	nh/0542_nh.bmp
212.40	0.72	286	2	7	84	mem	lib	mod	mod	low	nt	ht	nh/0284_nh.bmp
213.12	0.72	287	3	5	107	mem	lib	mod	mod	low	nt	ht	nh/0256_nh.bmp
213.84	0.72	288	1	6	84	per	lib	mod	mod	mod	nt	cr	nh/0095_nh.bmp
214.56	0.72	289	2	6	65	per	con	mod	mod	mod	tg	ms	wh/0380.bmp
215.28	0.72	290	3	8	98	mem	con	mod	mod	low	tg	ms	wh/0361.bmp
216.00	0.72	291	2	7	87	mem	lib	mod	mod	low	nt	ht	nh/0382_nh.bmp
216.72	0.72	292	3	7	32	mem	con	mod	mod	mod	tg	ht	wh/0928.bmp
217.44	0.72	293	2	8	2	per	con	low	mod	low	tg	ht	wh/0417.bmp
218.16	0.72	294	1	6	15	mem	lib	mod	mod	mod	tg	ht	wh/0941.bmp
218.88	0.72	295	1	5	67	mem	con	low	low	low	tg	ms	wh/0437.bmp
219.60	0.72	296	3	7	87	mem	lib	mod	mod	low	nt	ht	nh/0382_nh.bmp
220.32	0.72	297	3	6	7	mem	lib	mod	mod	mod	nt	ht	nh/0187_nh.bmp
221.04	0.72	298	3	6	36	mem	con	mod	mod	mod	tg	ms	wh/0099.bmp
221.76	0.72	299	4	6	14	mem	lib	mod	mod	mod	nt	ms	nh/0094_nh.bmp
222.48	0.72	300	1	7	53	per	con	low	low	low	tg	ms	wh/0528.bmp
223.20	0.72	301	3	5	55	per	lib	low	mod	low	tg	ht	wh/0465.bmp
223.92	0.72	302	4	8	10	per	con	low	mod	low	nt	cr	nh/0336_nh.bmp
224.64	0.72	303	3	7	96	mem	lib	mod	mod	low	tg	ht	wh/0510.bmp
225.36	0.72	304	1	5	74	mem	con	low	low	low	nt	ms	nh/0460_nh.bmp
226.08	0.72	305	2	5	99	mem	lib	mod	mod	low	nt	ht	nh/0351_nh.bmp
226.80	0.72	306	2	7	82	mem	lib	mod	mod	low	tg	ht	wh/0338.bmp
227.52	0.72	307	1	6	91	per	lib	mod	mod	mod	nt	fa	nh/0954_nh.bmp
228.24	0.72	308	2	6	46	mem	con	mod	mod	mod	tg	ms	wh/0196.bmp
228.96	0.72	309	1	6	31	per	lib	low	low	low	nt	fa	nh/0571_nh.bmp
229.68	0.72	310	2	5	58	per	lib	low	mod	low	tg	ht	wh/0125.bmp
230.40	0.72	311	1	5	23	per	lib	mod	low	mod	nt	cr	nh/0900_nh.bmp
231.12	0.72	312	1	6	128	per	con	low	mod	low	tg	ms	wh/0934.bmp
231.84	0.72	313	1	6	20	per	lib	low	low	low	nt	fa	nh/0710_nh.bmp
232.56	0.72	314	5	8	43	mem	lib	mod	mod	mod	tg	ht	wh/0805.bmp
233.28	0.72	315	2	8	34	mem	lib	mod	mod	mod	nt	ht	nh/0650_nh.bmp
234.00	0.72	316	2	7	35	per	con	mod	mod	mod	tg	ht	wh/0957.bmp
234.72	0.72	317	1	5	90	mem	lib	low	low	mod	nt	ht	nh/0718_nh.bmp
235.44	0.72	318	3	7	15	per	lib	low	mod	low	nt	cr	nh/0489_nh.bmp
236.16	0.72	319	3	6	70	per	con	mod	mod	mod	tg	ms	wh/0795.bmp
236.88	0.72	320	2	8	108	mem	con	mod	mod	low	nt	ms	nh/0036_nh.bmp
237.60	0.72	321	3	5	109	mem	lib	mod	mod	low	tg	ht	wh/0730.bmp
238.32	0.72	322	4	6	35	mem	con	mod	mod	mod	nt	ms	nh/0543_nh.bmp
239.04	0.72	323	4	6	127	per	con	low	mod	low	nt	cr	nh/0608_nh.bmp
239.76	0.72	324	3	5	56	per	lib	low	mod	low	nt	cr	nh/0967_nh.bmp
240.48	0.72	325	4	7	3	per	lib	low	mod	low	nt	cr	nh/0893_nh.bmp
241.20	0.72	326	1	8	55	mem	lib	low	low	low	nt	ht	nh/0458_nh.bmp
241.92	0.72	327	3	8	86	per	lib	mod	mod	mod	nt	cr	nh/0947_nh.bmp
242.64	0.72	328	1	6	32	per	lib	low	low	low	nt	cr	nh/0113_nh.bmp
243.36	0.72	329	1	6	89	per	lib	mod	mod	mod	nt	cr	nh/0697_nh.bmp
244.08	0.72	330	3	8	2	per	con	low	mod	low	tg	ht	wh/0417.bmp
244.80	0.72	331	2	6	91	per	lib	mod	mod	mod	nt	fa	nh/0954_nh.bmp
245.52	0.72	332	3	8	1	per	con	low	mod	low	nt	cr	nh/0451_nh.bmp
246.24	0.72	333	1	6	110	mem	con	low	low	mod	nt	ms	nh/0870_nh.bmp
246.96	0.72	334	3	8	108	mem	con	mod	mod	low	nt	ms	nh/0036_nh.bmp
247.68	0.72	335	2	8	48	mem	lib	mod	mod	mod	nt	ht	nh/0810_nh.bmp
248.40	0.72	336	2	7	42	per	con	mod	mod	mod	tg	ms	wh/0962.bmp
249.12	0.72	337	1	8	90	per	lib	mod	mod	mod	nt	fa	nh/0462_nh.bmp
249.84	0.72	338	1	5	27	per	lib	mod	low	mod	tg	ht	wh/0721.bmp
250.56	0.72	339	2	7	40	per	con	mod	mod	mod	nt	cr	nh/0593_nh.bmp
251.28	0.72	340	2	5	36	mem	con	mod	mod	low	tg	ms	wh/0035.bmp
252.00	0.72	341	3	5	41	mem	con	mod	mod	low	nt	ht	nh/0032_nh.bmp
252.72	0.72	342	3	8	100	mem	con	mod	mod	low	nt	ms	nh/0818_nh.bmp
253.44	0.72	343	3	5	54	per	lib	low	mod	low	tg	ht	wh/0383.bmp
254.16	0.72	344	4	5	56	per	lib	low	mod	low	nt	cr	nh/0967_nh.bmp
254.88	0.72	345	4	8	1	per	con	low	mod	low	nt	cr	nh/0451_nh.bmp
255.60	0.72	346	4	8	16	per	con	low	mod	low	nt	fa	nh/0150_nh.bmp
256.32	0.72	347	3	7	34	per	con	mod	mod	mod	tg	ms	wh/0748.bmp
257.04	0.72	348	1	6	81	per	lib	mod	mod	mod	tg	ht	wh/0588.bmp
257.76	0.72	349	2	5	60	per	lib	low	mod	low	nt	cr	nh/0190_nh.bmp
258.48	0.72	350	2	6	89	per	lib	mod	mod	mod	nt	cr	nh/0697_nh.bmp
259.20	0.72	351	4	6	79	per	con	mod	mod	mod	nt	cr	nh/0902_nh.bmp
259.92	0.72	352	4	5	45	mem	con	mod	mod	low	tg	ht	wh/0660.bmp
260.64	0.72	353	3	7	35	per	con	mod	mod	mod	tg	ht	wh/0957.bmp
261.36	0.72	354	4	8	99	mem	con	mod	mod	low	tg	ht	wh/0760.bmp
262.08	0.72	355	3	7	84	mem	lib	mod	mod	low	nt	ht	nh/0284_nh.bmp
262.80	0.72	356	2	7	25	mem	con	mod	mod	mod	tg	ht	wh/0371.bmp
263.52	0.72	357	4	6	68	per	con	mod	mod	mod	nt	cr	nh/0398_nh.bmp
264.24	0.72	358	1	7	6	per	lib	low	mod	low	tg	ms	wh/0577.bmp
264.96	0.72	359	4	8	102	mem	con	mod	mod	low	nt	ms	nh/0077_nh.bmp
265.68	0.72	360	3	5	60	per	lib	low	mod	low	nt	cr	nh/0190_nh.bmp
266.40	0.72	361	1	7	62	per	con	low	low	low	nt	cr	nh/0999_nh.bmp
267.12	0.72	362	3	7	4	per	lib	low	mod	low	nt	cr	nh/0029_nh.bmp
267.84	0.72	363	5	6	79	per	con	mod	mod	mod	nt	cr	nh/0902_nh.bmp
268.56	0.72	364	2	7	33	per	con	mod	mod	mod	tg	ht	wh/0946.bmp
269.28	0.72	365	3	6	46	mem	con	mod	mod	mod	tg	ms	wh/0196.bmp
270.00	0.72	366	2	6	78	per	con	mod	mod	mod	nt	cr	nh/0591_nh.bmp
270.72	0.72	367	3	5	58	per	lib	low	mod	low	tg	ht	wh/0125.bmp
271.44	0.72	368	4	5	53	per	lib	low	mod	low	nt	cr	nh/0074_nh.bmp
272.16	0.72	369	5	8	99	mem	con	mod	mod	low	tg	ht	wh/0760.bmp
272.88	0.72	370	3	7	91	mem	lib	mod	mod	low	nt	ht	nh/0299_nh.bmp
273.60	0.72	371	4	6	39	mem	con	mod	mod	mod	nt	ht	nh/0594_nh.bmp
274.32	0.72	372	4	8	98	mem	con	mod	mod	low	tg	ms	wh/0361.bmp
275.04	0.72	373	4	5	44	mem	con	mod	mod	low	tg	ht	wh/0194.bmp
275.76	0.72	374	4	6	36	mem	con	mod	mod	mod	tg	ms	wh/0099.bmp
276.48	0.72	375	2	8	90	per	lib	mod	mod	mod	nt	fa	nh/0462_nh.bmp
277.20	0.72	376	3	7	24	mem	con	mod	mod	mod	nt	ht	nh/0807_nh.bmp
277.92	0.72	377	5	6	35	mem	con	mod	mod	mod	nt	ms	nh/0543_nh.bmp
278.64	0.72	378	3	8	7	per	con	low	mod	low	nt	fa	nh/0079_nh.bmp
279.36	0.72	379	1	7	71	mem	con	low	low	mod	tg	ms	wh/1024.bmp
280.08	0.72	380	2	5	37	mem	con	mod	mod	low	nt	ms	nh/0940_nh.bmp
280.80	0.72	381	1	7	60	per	con	low	low	low	tg	ms	wh/0148.bmp
281.52	0.72	382	4	8	86	per	lib	mod	mod	mod	nt	cr	nh/0947_nh.bmp
282.24	0.72	383	2	8	103	mem	con	mod	mod	low	nt	ht	nh/0232_nh.bmp
282.96	0.72	384	5	7	3	per	lib	low	mod	low	nt	cr	nh/0893_nh.bmp
283.68	0.72	385	3	7	11	per	lib	low	mod	low	tg	ht	wh/0568.bmp
284.40	0.72	386	1	6	59	mem	lib	low	low	low	tg	ht	wh/0384.bmp
285.12	0.72	387	5	5	48	mem	con	mod	mod	low	tg	ht	wh/0963.bmp
285.84	0.72	388	2	6	15	mem	lib	mod	mod	mod	tg	ht	wh/0941.bmp
286.56	0.72	389	3	7	42	per	con	mod	mod	mod	tg	ms	wh/0962.bmp
287.28	0.72	390	3	8	6	per	con	low	mod	low	tg	ms	wh/0153.bmp
288.00	0.72	391	3	8	48	mem	lib	mod	mod	mod	nt	ht	nh/0810_nh.bmp
288.72	0.72	392	2	6	8	mem	lib	mod	mod	mod	nt	ht	nh/0319_nh.bmp
289.44	0.72	393	3	7	33	per	con	mod	mod	mod	tg	ht	wh/0946.bmp
290.16	0.72	394	3	5	102	mem	lib	mod	mod	low	nt	ht	nh/0758_nh.bmp
290.88	0.72	395	3	7	10	per	lib	low	mod	low	tg	ht	wh/0508.bmp
291.60	0.72	396	3	7	40	per	con	mod	mod	mod	nt	cr	nh/0593_nh.bmp
292.32	0.72	397	2	7	18	mem	con	mod	mod	mod	nt	ht	nh/0540_nh.bmp
293.04	0.72	398	3	6	2	mem	lib	mod	mod	mod	tg	ht	wh/0874.bmp
293.76	0.72	399	4	6	125	per	con	low	mod	low	tg	ht	wh/0123.bmp
294.48	0.72	400	1	6	69	per	con	mod	mod	mod	tg	ht	wh/0684.bmp
295.20	0.72	401	3	7	19	mem	con	mod	mod	mod	tg	ht	wh/0803.bmp
295.92	0.72	402	2	6	81	per	lib	mod	mod	mod	tg	ht	wh/0588.bmp
296.64	0.72	403	2	7	12	per	lib	low	mod	low	nt	cr	nh/0619_nh.bmp
297.36	0.72	404	4	6	1	mem	lib	mod	mod	mod	tg	ht	wh/0199.bmp
298.08	0.72	405	4	5	107	mem	lib	mod	mod	low	nt	ht	nh/0256_nh.bmp
298.80	0.72	406	2	6	13	mem	lib	mod	mod	mod	nt	ht	nh/0855_nh.bmp
299.52	0.72	407	4	8	108	mem	con	mod	mod	low	nt	ms	nh/0036_nh.bmp
300.24	0.72	408	2	8	101	mem	con	mod	mod	low	tg	ht	wh/0443.bmp
300.96	0.72	409	5	6	68	per	con	mod	mod	mod	nt	cr	nh/0398_nh.bmp
301.68	0.72	410	2	5	34	mem	con	mod	mod	low	nt	ms	nh/0080_nh.bmp
302.40	0.72	411	1	5	14	per	con	mod	low	mod	tg	ms	wh/0306.bmp
303.12	0.72	412	4	8	7	per	con	low	mod	low	nt	fa	nh/0079_nh.bmp
303.84	0.72	413	3	6	91	per	lib	mod	mod	mod	nt	fa	nh/0954_nh.bmp
304.56	0.72	414	3	6	48	mem	con	mod	mod	mod	nt	ht	nh/0542_nh.bmp
305.28	0.72	415	2	6	85	per	lib	mod	mod	mod	tg	ht	wh/0396.bmp
306.00	0.72	416	4	7	35	per	con	mod	mod	mod	tg	ht	wh/0957.bmp
306.72	0.72	417	3	6	122	per	con	low	mod	low	nt	cr	nh/0964_nh.bmp
307.44	0.72	418	1	5	86	mem	lib	low	low	mod	tg	ht	wh/0927.bmp
308.16	0.72	419	3	8	87	per	lib	mod	mod	mod	tg	ht	wh/0447.bmp
308.88	0.72	420	3	5	99	mem	lib	mod	mod	low	nt	ht	nh/0351_nh.bmp
309.60	0.72	421	4	7	34	per	con	mod	mod	mod	tg	ms	wh/0748.bmp
310.32	0.72	422	3	7	18	mem	con	mod	mod	mod	nt	ht	nh/0540_nh.bmp
311.04	0.72	423	4	7	15	per	lib	low	mod	low	nt	cr	nh/0489_nh.bmp
311.76	0.72	424	2	5	51	per	lib	low	mod	low	tg	ms	wh/0238.bmp
312.48	0.72	425	4	7	10	per	lib	low	mod	low	tg	ht	wh/0508.bmp
313.20	0.72	426	3	6	13	mem	lib	mod	mod	mod	nt	ht	nh/0855_nh.bmp
313.92	0.72	427	5	7	26	mem	con	mod	mod	mod	nt	ht	nh/0716_nh.bmp
314.64	0.72	428	5	6	127	per	con	low	mod	low	nt	cr	nh/0608_nh.bmp
315.36	0.72	429	5	6	66	per	con	mod	mod	mod	nt	cr	nh/0328_nh.bmp
316.08	0.72	430	1	8	20	per	con	mod	low	mod	nt	cr	nh/0762_nh.bmp
316.80	0.72	431	3	6	120	per	con	low	mod	low	tg	ht	wh/1023.bmp
317.52	0.72	432	3	5	36	mem	con	mod	mod	low	tg	ms	wh/0035.bmp
318.24	0.72	433	3	7	25	mem	con	mod	mod	mod	tg	ht	wh/0371.bmp
318.96	0.72	434	1	7	115	per	lib	mod	low	mod	nt	cr	nh/0669_nh.bmp
319.68	0.72	435	1	8	17	per	con	mod	low	mod	tg	ms	wh/0068.bmp
320.40	0.72	436	4	8	48	mem	lib	mod	mod	mod	nt	ht	nh/0810_nh.bmp
321.12	0.72	437	2	6	84	per	lib	mod	mod	mod	nt	cr	nh/0095_nh.bmp
321.84	0.72	438	3	6	15	mem	lib	mod	mod	mod	tg	ht	wh/0941.bmp
322.56	0.72	439	2	7	83	mem	lib	mod	mod	low	tg	ht	wh/0134.bmp
323.28	0.72	440	3	7	8	per	lib	low	mod	low	tg	ht	wh/0503.bmp
324.00	0.72	441	3	8	103	mem	con	mod	mod	low	nt	ht	nh/0232_nh.bmp
324.72	0.72	442	3	8	37	mem	lib	mod	mod	mod	tg	ht	wh/0273.bmp
325.44	0.72	443	4	7	42	per	con	mod	mod	mod	tg	ms	wh/0962.bmp
326.16	0.72	444	4	7	87	mem	lib	mod	mod	low	nt	ht	nh/0382_nh.bmp
326.88	0.72	445	4	7	96	mem	lib	mod	mod	low	tg	ht	wh/0510.bmp
327.60	0.72	446	4	7	4	per	lib	low	mod	low	nt	cr	nh/0029_nh.bmp
328.32	0.72	447	3	6	85	per	lib	mod	mod	mod	tg	ht	wh/0396.bmp
329.04	0.72	448	4	5	54	per	lib	low	mod	low	tg	ht	wh/0383.bmp
329.76	0.72	449	4	5	102	mem	lib	mod	mod	low	nt	ht	nh/0758_nh.bmp
330.48	0.72	450	2	7	6	per	lib	low	mod	low	tg	ms	wh/0577.bmp
331.20	0.72	451	5	8	108	mem	con	mod	mod	low	nt	ms	nh/0036_nh.bmp
331.92	0.72	452	1	6	103	mem	con	low	low	mod	nt	ms	nh/0025_nh.bmp
332.64	0.72	453	3	7	20	mem	con	mod	mod	mod	tg	ht	wh/0909.bmp
333.36	0.72	454	3	7	12	per	lib	low	mod	low	nt	cr	nh/0619_nh.bmp
334.08	0.72	455	4	8	2	per	con	low	mod	low	tg	ht	wh/0417.bmp
334.80	0.72	456	2	6	71	per	con	mod	mod	mod	tg	ht	wh/0442.bmp
335.52	0.72	457	4	6	15	mem	lib	mod	mod	mod	tg	ht	wh/0941.bmp
336.24	0.72	458	1	7	68	mem	con	low	low	mod	nt	ms	nh/1018_nh.bmp
336.96	0.72	459	1	8	70	mem	con	low	low	low	nt	ms	nh/0090_nh.bmp
337.68	0.72	460	1	6	109	mem	con	low	low	mod	tg	ht	wh/0092.bmp
338.40	0.72	461	6	8	43	mem	lib	mod	mod	mod	tg	ht	wh/0805.bmp
339.12	0.72	462	2	6	69	per	con	mod	mod	mod	tg	ht	wh/0684.bmp
339.84	0.72	463	4	7	8	per	lib	low	mod	low	tg	ht	wh/0503.bmp
340.56	0.72	464	4	5	41	mem	con	mod	mod	low	nt	ht	nh/0032_nh.bmp
341.28	0.72	465	1	7	73	mem	con	low	low	mod	tg	ht	wh/0461.bmp
342.00	0.72	466	1	7	75	mem	con	low	low	mod	nt	ms	nh/0781_nh.bmp
342.72	0.72	467	4	8	97	mem	con	mod	mod	low	tg	ms	wh/0690.bmp
343.44	0.72	468	2	8	38	mem	lib	mod	mod	mod	tg	ms	wh/0428.bmp
344.16	0.72	469	1	8	66	mem	con	low	low	low	nt	ms	nh/0711_nh.bmp
344.88	0.72	470	1	8	79	mem	con	low	low	low	nt	ht	nh/0053_nh.bmp
345.60	0.72	471	5	6	15	mem	lib	mod	mod	mod	tg	ht	wh/0941.bmp
346.32	0.72	472	3	6	6	mem	lib	mod	mod	mod	tg	ht	wh/0222.bmp
347.04	0.72	473	4	8	8	per	con	low	mod	low	tg	ms	wh/0802.bmp
347.76	0.72	474	4	7	25	mem	con	mod	mod	mod	tg	ht	wh/0371.bmp
348.48	0.72	475	5	7	35	per	con	mod	mod	mod	tg	ht	wh/0957.bmp
349.20	0.72	476	3	5	101	mem	lib	mod	mod	low	tg	ht	wh/0355.bmp
349.92	0.72	477	4	7	40	per	con	mod	mod	mod	nt	cr	nh/0593_nh.bmp
350.64	0.72	478	3	8	101	mem	con	mod	mod	low	tg	ht	wh/0443.bmp
351.36	0.72	479	1	6	38	mem	con	mod	mod	mod	nt	ms	nh/0680_nh.bmp
352.08	0.72	480	1	8	119	per	lib	low	low	low	nt	cr	nh/0789_nh.bmp
352.80	0.72	481	4	6	120	per	con	low	mod	low	tg	ht	wh/1023.bmp
353.52	0.72	482	2	6	38	mem	con	mod	mod	mod	nt	ms	nh/0680_nh.bmp
354.24	0.72	483	3	8	46	mem	lib	mod	mod	mod	nt	ht	nh/0182_nh.bmp
354.96	0.72	484	4	7	84	mem	lib	mod	mod	low	nt	ht	nh/0284_nh.bmp
355.68	0.72	485	1	6	97	mem	con	low	low	mod	tg	ms	wh/0277.bmp
356.40	0.72	486	1	7	118	per	lib	mod	low	mod	nt	cr	nh/0059_nh.bmp
357.12	0.72	487	3	6	89	per	lib	mod	mod	mod	nt	cr	nh/0697_nh.bmp
357.84	0.72	488	4	6	7	mem	lib	mod	mod	mod	nt	ht	nh/0187_nh.bmp
358.56	0.72	489	5	5	102	mem	lib	mod	mod	low	nt	ht	nh/0758_nh.bmp
359.28	0.72	490	5	6	1	mem	lib	mod	mod	mod	tg	ht	wh/0199.bmp
360.00	0.72	491	3	5	51	per	lib	low	mod	low	tg	ms	wh/0238.bmp
360.72	0.72	492	3	8	83	per	lib	mod	mod	mod	tg	ht	wh/0548.bmp
361.44	0.72	493	5	7	34	per	con	mod	mod	mod	tg	ms	wh/0748.bmp
362.16	0.72	494	4	8	33	mem	lib	mod	mod	mod	tg	ht	wh/0209.bmp
362.88	0.72	495	4	6	94	per	lib	mod	mod	mod	tg	ht	wh/0843.bmp
363.60	0.72	496	4	6	87	per	lib	mod	mod	mod	nt	cr	nh/0876_nh.bmp
364.32	0.72	497	3	8	89	per	lib	mod	mod	mod	nt	cr	nh/0973_nh.bmp
365.04	0.72	498	4	7	33	per	con	mod	mod	mod	tg	ht	wh/0946.bmp
365.76	0.72	499	4	6	48	mem	con	mod	mod	mod	nt	ht	nh/0542_nh.bmp
366.48	0.72	500	5	7	96	mem	lib	mod	mod	low	tg	ht	wh/0510.bmp
367.20	0.72	501	1	8	19	per	con	mod	low	mod	nt	cr	nh/0419_nh.bmp
367.92	0.72	502	3	7	83	mem	lib	mod	mod	low	tg	ht	wh/0134.bmp
368.64	0.72	503	4	5	99	mem	lib	mod	mod	low	nt	ht	nh/0351_nh.bmp
369.36	0.72	504	4	7	19	mem	con	mod	mod	mod	tg	ht	wh/0803.bmp
370.08	0.72	505	5	8	81	per	lib	mod	mod	mod	tg	ms	wh/0784.bmp
370.80	0.72	506	4	6	91	per	lib	mod	mod	mod	nt	fa	nh/0954_nh.bmp
371.52	0.72	507	1	5	115	per	con	low	low	low	tg	ms	wh/0536.bmp
372.24	0.72	508	5	6	95	per	lib	mod	mod	mod	tg	ht	wh/0497.bmp
372.96	0.72	509	3	8	90	per	lib	mod	mod	mod	nt	fa	nh/0462_nh.bmp
373.68	0.72	510	4	5	55	per	lib	low	mod	low	tg	ht	wh/0465.bmp
374.40	0.72	511	3	6	71	per	con	mod	mod	mod	tg	ht	wh/0442.bmp
375.12	0.72	512	4	7	24	mem	con	mod	mod	mod	nt	ht	nh/0807_nh.bmp
375.84	0.72	513	4	5	58	per	lib	low	mod	low	tg	ht	wh/0125.bmp
376.56	0.72	514	3	5	37	mem	con	mod	mod	low	nt	ms	nh/0940_nh.bmp
377.28	0.72	515	2	6	128	per	con	low	mod	low	tg	ms	wh/0934.bmp
378.00	0.72	516	5	7	4	per	lib	low	mod	low	nt	cr	nh/0029_nh.bmp
378.72	0.72	517	4	6	89	per	lib	mod	mod	mod	nt	cr	nh/0697_nh.bmp
379.44	0.72	518	4	7	11	per	lib	low	mod	low	tg	ht	wh/0568.bmp
380.16	0.72	519	4	5	60	per	lib	low	mod	low	nt	cr	nh/0190_nh.bmp
380.88	0.72	520	4	6	71	per	con	mod	mod	mod	tg	ht	wh/0442.bmp
381.60	0.72	521	3	6	65	per	con	mod	mod	mod	tg	ms	wh/0380.bmp
382.32	0.72	522	6	6	79	per	con	mod	mod	mod	nt	cr	nh/0902_nh.bmp
383.04	0.72	523	3	7	82	mem	lib	mod	mod	low	tg	ht	wh/0338.bmp
383.76	0.72	524	4	7	37	per	con	mod	mod	mod	nt	cr	nh/0350_nh.bmp
384.48	0.72	525	5	5	44	mem	con	mod	mod	low	tg	ht	wh/0194.bmp
385.20	0.72	526	3	6	128	per	con	low	mod	low	tg	ms	wh/0934.bmp
385.92	0.72	527	4	7	21	mem	con	mod	mod	mod	nt	ht	nh/0772_nh.bmp
386.64	0.72	528	6	8	81	per	lib	mod	mod	mod	tg	ms	wh/0784.bmp
387.36	0.72	529	5	5	54	per	lib	low	mod	low	tg	ht	wh/0383.bmp
388.08	0.72	530	5	8	86	per	lib	mod	mod	mod	nt	cr	nh/0947_nh.bmp
388.80	0.72	531	5	8	8	per	con	low	mod	low	tg	ms	wh/0802.bmp
389.52	0.72	532	3	8	38	mem	lib	mod	mod	mod	tg	ms	wh/0428.bmp
390.24	0.72	533	4	8	87	per	lib	mod	mod	mod	tg	ht	wh/0447.bmp
390.96	0.72	534	1	8	85	per	lib	mod	mod	mod	nt	cr	nh/0397_nh.bmp
391.68	0.72	535	4	5	37	mem	con	mod	mod	low	nt	ms	nh/0940_nh.bmp
392.40	0.72	536	5	6	14	mem	lib	mod	mod	mod	nt	ms	nh/0094_nh.bmp
393.12	0.72	537	3	6	38	mem	con	mod	mod	mod	nt	ms	nh/0680_nh.bmp
393.84	0.72	538	5	7	84	mem	lib	mod	mod	low	nt	ht	nh/0284_nh.bmp
394.56	0.72	539	3	8	34	mem	lib	mod	mod	mod	nt	ht	nh/0650_nh.bmp
395.28	0.72	540	4	6	13	mem	lib	mod	mod	mod	nt	ht	nh/0855_nh.bmp
396.00	0.72	541	1	6	104	mem	con	low	low	mod	tg	ms	wh/0572.bmp
396.72	0.72	542	5	5	60	per	lib	low	mod	low	nt	cr	nh/0190_nh.bmp
397.44	0.72	543	1	6	42	mem	con	mod	mod	mod	tg	ht	wh/0714.bmp
398.16	0.72	544	1	5	70	mem	con	low	low	low	nt	ht	nh/0881_nh.bmp
398.88	0.72	545	4	7	38	per	con	mod	mod	mod	nt	cr	nh/0339_nh.bmp
399.60	0.72	546	6	8	108	mem	con	mod	mod	low	nt	ms	nh/0036_nh.bmp
400.32	0.72	547	2	6	119	per	con	low	mod	low	tg	ms	wh/0493.bmp
401.04	0.72	548	5	7	24	mem	con	mod	mod	mod	nt	ht	nh/0807_nh.bmp
401.76	0.72	549	1	7	104	mem	lib	low	low	mod	tg	ht	wh/0787.bmp
402.48	0.72	550	5	5	56	per	lib	low	mod	low	nt	cr	nh/0967_nh.bmp
403.20	0.72	551	3	6	84	per	lib	mod	mod	mod	nt	cr	nh/0095_nh.bmp
403.92	0.72	552	3	6	69	per	con	mod	mod	mod	tg	ht	wh/0684.bmp
404.64	0.72	553	5	8	5	per	con	low	mod	low	tg	ht	wh/0613.bmp
405.36	0.72	554	4	5	97	mem	lib	mod	mod	low	tg	ht	wh/0404.bmp
406.08	0.72	555	4	6	38	mem	con	mod	mod	mod	nt	ms	nh/0680_nh.bmp
406.80	0.72	556	1	7	77	mem	con	low	low	mod	nt	ms	nh/0736_nh.bmp
407.52	0.72	557	6	5	44	mem	con	mod	mod	low	tg	ht	wh/0194.bmp
408.24	0.72	558	4	8	103	mem	con	mod	mod	low	nt	ht	nh/0232_nh.bmp
408.96	0.72	559	4	8	34	mem	lib	mod	mod	mod	nt	ht	nh/0650_nh.bmp
409.68	0.72	560	4	8	89	per	lib	mod	mod	mod	nt	cr	nh/0973_nh.bmp
410.40	0.72	561	3	6	126	per	con	low	mod	low	nt	cr	nh/0082_nh.bmp
411.12	0.72	562	5	7	40	per	con	mod	mod	mod	nt	cr	nh/0593_nh.bmp
411.84	0.72	563	4	8	100	mem	con	mod	mod	low	nt	ms	nh/0818_nh.bmp
412.56	0.72	564	3	6	81	per	lib	mod	mod	mod	tg	ht	wh/0588.bmp
413.28	0.72	565	1	5	26	per	lib	mod	low	mod	tg	ht	wh/0846.bmp
414.00	0.72	566	4	6	2	mem	lib	mod	mod	mod	tg	ht	wh/0874.bmp
414.72	0.72	567	6	7	26	mem	con	mod	mod	mod	nt	ht	nh/0716_nh.bmp
415.44	0.72	568	5	7	11	per	lib	low	mod	low	tg	ht	wh/0568.bmp
416.16	0.72	569	3	6	41	mem	con	mod	mod	mod	tg	ht	wh/0446.bmp
416.88	0.72	570	4	7	20	mem	con	mod	mod	mod	tg	ht	wh/0909.bmp
417.60	0.72	571	4	7	12	per	lib	low	mod	low	nt	cr	nh/0619_nh.bmp
418.32	0.72	572	5	8	34	mem	lib	mod	mod	mod	nt	ht	nh/0650_nh.bmp
419.04	0.72	573	5	6	91	per	lib	mod	mod	mod	nt	fa	nh/0954_nh.bmp
419.76	0.72	574	4	6	81	per	lib	mod	mod	mod	tg	ht	wh/0588.bmp
420.48	0.72	575	4	5	101	mem	lib	mod	mod	low	tg	ht	wh/0355.bmp
421.20	0.72	576	5	7	19	mem	con	mod	mod	mod	tg	ht	wh/0803.bmp
421.92	0.72	577	3	7	6	per	lib	low	mod	low	tg	ms	wh/0577.bmp
422.64	0.72	578	5	8	94	per	lib	mod	mod	mod	tg	ht	wh/0563.bmp
423.36	0.72	579	2	6	42	mem	con	mod	mod	mod	tg	ht	wh/0714.bmp
424.08	0.72	580	3	6	119	per	con	low	mod	low	tg	ms	wh/0493.bmp
424.80	0.72	581	4	6	6	mem	lib	mod	mod	mod	tg	ht	wh/0222.bmp
425.52	0.72	582	4	6	122	per	con	low	mod	low	nt	cr	nh/0964_nh.bmp
426.24	0.72	583	5	5	55	per	lib	low	mod	low	tg	ht	wh/0465.bmp
426.96	0.72	584	4	6	119	per	con	low	mod	low	tg	ms	wh/0493.bmp
427.68	0.72	585	6	7	40	per	con	mod	mod	mod	nt	cr	nh/0593_nh.bmp
428.40	0.72	586	3	5	46	mem	con	mod	mod	low	nt	ht	nh/0646_nh.bmp
429.12	0.72	587	1	7	112	mem	lib	low	low	mod	tg	ht	wh/0966.bmp
429.84	0.72	588	5	7	10	per	lib	low	mod	low	tg	ht	wh/0508.bmp
430.56	0.72	589	2	5	103	mem	lib	mod	mod	low	nt	ht	nh/0364_nh.bmp
431.28	0.72	590	1	5	91	mem	lib	low	low	mod	nt	ht	nh/0129_nh.bmp
432.00	0.72	591	5	5	37	mem	con	mod	mod	low	nt	ms	nh/0940_nh.bmp
432.72	0.72	592	4	8	6	per	con	low	mod	low	tg	ms	wh/0153.bmp
433.44	0.72	593	2	8	85	per	lib	mod	mod	mod	nt	cr	nh/0397_nh.bmp
434.16	0.72	594	5	6	36	mem	con	mod	mod	mod	tg	ms	wh/0099.bmp
434.88	0.72	595	4	6	69	per	con	mod	mod	mod	tg	ht	wh/0684.bmp
435.60	0.72	596	5	6	38	mem	con	mod	mod	mod	nt	ms	nh/0680_nh.bmp
436.32	0.72	597	4	6	70	per	con	mod	mod	mod	tg	ms	wh/0795.bmp
437.04	0.72	598	5	6	6	mem	lib	mod	mod	mod	tg	ht	wh/0222.bmp
437.76	0.72	599	5	8	48	mem	lib	mod	mod	mod	nt	ht	nh/0810_nh.bmp
438.48	0.72	600	5	5	41	mem	con	mod	mod	low	nt	ht	nh/0032_nh.bmp
439.20	0.72	601	5	6	81	per	lib	mod	mod	mod	tg	ht	wh/0588.bmp
439.92	0.72	602	5	6	120	per	con	low	mod	low	tg	ht	wh/1023.bmp
440.64	0.72	603	3	5	103	mem	lib	mod	mod	low	nt	ht	nh/0364_nh.bmp
441.36	0.72	604	5	6	7	mem	lib	mod	mod	mod	nt	ht	nh/0187_nh.bmp
442.08	0.72	605	1	5	8	per	con	mod	low	mod	tg	ht	wh/0044.bmp
442.80	0.72	606	1	7	52	per	con	low	low	low	tg	ms	wh/0215.bmp
443.52	0.72	607	1	6	19	per	lib	low	low	low	tg	ht	wh/0146.bmp
444.24	0.72	608	4	7	18	mem	con	mod	mod	mod	nt	ht	nh/0540_nh.bmp
444.96	0.72	609	4	6	84	per	lib	mod	mod	mod	nt	cr	nh/0095_nh.bmp
445.68	0.72	610	4	7	32	mem	con	mod	mod	mod	tg	ht	wh/0928.bmp
446.40	0.72	611	3	6	78	per	con	mod	mod	mod	nt	cr	nh/0591_nh.bmp
447.12	0.72	612	5	8	16	per	con	low	mod	low	nt	fa	nh/0150_nh.bmp
447.84	0.72	613	4	8	37	mem	lib	mod	mod	mod	tg	ht	wh/0273.bmp
448.56	0.72	614	6	6	38	mem	con	mod	mod	mod	nt	ms	nh/0680_nh.bmp
449.28	0.72	615	5	6	13	mem	lib	mod	mod	mod	nt	ht	nh/0855_nh.bmp
450.00	0.72	616	3	5	34	mem	con	mod	mod	low	nt	ms	nh/0080_nh.bmp
450.72	0.72	617	5	7	33	per	con	mod	mod	mod	tg	ht	wh/0946.bmp
451.44	0.72	618	5	8	7	per	con	low	mod	low	nt	fa	nh/0079_nh.bmp
452.16	0.72	619	6	8	86	per	lib	mod	mod	mod	nt	cr	nh/0947_nh.bmp
452.88	0.72	620	5	6	2	mem	lib	mod	mod	mod	tg	ht	wh/0874.bmp
453.60	0.72	621	4	6	78	per	con	mod	mod	mod	nt	cr	nh/0591_nh.bmp
454.32	0.72	622	4	7	91	mem	lib	mod	mod	low	nt	ht	nh/0299_nh.bmp
455.04	0.72	623	6	6	36	mem	con	mod	mod	mod	tg	ms	wh/0099.bmp
455.76	0.72	624	3	8	47	mem	lib	mod	mod	mod	nt	ht	nh/0904_nh.bmp
456.48	0.72	625	6	8	94	per	lib	mod	mod	mod	tg	ht	wh/0563.bmp
457.20	0.72	626	5	8	103	mem	con	mod	mod	low	nt	ht	nh/0232_nh.bmp
457.92	0.72	627	1	6	28	per	lib	low	low	low	nt	fa	nh/0695_nh.bmp
458.64	0.72	628	6	7	11	per	lib	low	mod	low	tg	ht	wh/0568.bmp
459.36	0.72	629	3	6	42	mem	con	mod	mod	mod	tg	ht	wh/0714.bmp
460.08	0.72	630	6	7	35	per	con	mod	mod	mod	tg	ht	wh/0957.bmp
460.80	0.72	631	6	6	7	mem	lib	mod	mod	mod	nt	ht	nh/0187_nh.bmp
461.52	0.72	632	5	8	2	per	con	low	mod	low	tg	ht	wh/0417.bmp
462.24	0.72	633	1	8	49	mem	lib	low	low	low	nt	ms	nh/0706_nh.bmp
462.96	0.72	634	1	7	126	per	lib	mod	low	mod	tg	ht	wh/0340.bmp
463.68	0.72	635	5	7	25	mem	con	mod	mod	mod	tg	ht	wh/0371.bmp
464.40	0.72	636	4	5	61	per	lib	low	mod	low	nt	cr	nh/0075_nh.bmp
465.12	0.72	637	3	8	85	per	lib	mod	mod	mod	nt	cr	nh/0397_nh.bmp
465.84	0.72	638	4	5	51	per	lib	low	mod	low	tg	ms	wh/0238.bmp
466.56	0.72	639	4	6	41	mem	con	mod	mod	mod	tg	ht	wh/0446.bmp
467.28	0.72	640	4	7	82	mem	lib	mod	mod	low	tg	ht	wh/0338.bmp
468.00	0.72	641	1	5	78	mem	con	low	low	low	tg	ht	wh/0731.bmp
468.72	0.72	642	5	7	20	mem	con	mod	mod	mod	tg	ht	wh/0909.bmp
469.44	0.72	643	5	7	38	per	con	mod	mod	mod	nt	cr	nh/0339_nh.bmp
470.16	0.72	644	1	6	24	per	lib	low	low	low	tg	ht	wh/0206.bmp
470.88	0.72	645	5	8	87	per	lib	mod	mod	mod	tg	ht	wh/0447.bmp
471.60	0.72	646	5	7	82	mem	lib	mod	mod	low	tg	ht	wh/0338.bmp
472.32	0.72	647	5	7	15	per	lib	low	mod	low	nt	cr	nh/0489_nh.bmp
473.04	0.72	648	4	7	6	per	lib	low	mod	low	tg	ms	wh/0577.bmp
473.76	0.72	649	6	7	34	per	con	mod	mod	mod	tg	ms	wh/0748.bmp
474.48	0.72	650	5	5	58	per	lib	low	mod	low	tg	ht	wh/0125.bmp
475.20	0.72	651	4	7	83	mem	lib	mod	mod	low	tg	ht	wh/0134.bmp
475.92	0.72	652	3	7	89	mem	lib	mod	mod	low	tg	ht	wh/0345.bmp
476.64	0.72	653	5	6	41	mem	con	mod	mod	mod	tg	ht	wh/0446.bmp
477.36	0.72	654	5	7	87	mem	lib	mod	mod	low	nt	ht	nh/0382_nh.bmp
478.08	0.72	655	5	7	18	mem	con	mod	mod	mod	nt	ht	nh/0540_nh.bmp
478.80	0.72	656	5	7	21	mem	con	mod	mod	mod	nt	ht	nh/0772_nh.bmp
479.52	0.72	657	5	7	8	per	lib	low	mod	low	tg	ht	wh/0503.bmp
480.24	0.72	658	5	6	70	per	con	mod	mod	mod	tg	ms	wh/0795.bmp
480.96	0.72	659	4	6	126	per	con	low	mod	low	nt	cr	nh/0082_nh.bmp
481.68	0.72	660	6	5	56	per	lib	low	mod	low	nt	cr	nh/0967_nh.bmp
482.40	0.72	661	1	6	27	per	lib	low	low	low	tg	ht	wh/0452.bmp
483.12	0.72	662	1	5	12	per	con	mod	low	mod	tg	ht	wh/0693.bmp
483.84	0.72	663	4	5	103	mem	lib	mod	mod	low	nt	ht	nh/0364_nh.bmp
484.56	0.72	664	4	8	101	mem	con	mod	mod	low	tg	ht	wh/0443.bmp
485.28	0.72	665	5	7	83	mem	lib	mod	mod	low	tg	ht	wh/0134.bmp
486.00	0.72	666	5	8	89	per	lib	mod	mod	mod	nt	cr	nh/0973_nh.bmp
486.72	0.72	667	5	5	99	mem	lib	mod	mod	low	nt	ht	nh/0351_nh.bmp
487.44	0.72	668	6	7	8	per	lib	low	mod	low	tg	ht	wh/0503.bmp
488.16	0.72	669	6	5	37	mem	con	mod	mod	low	nt	ms	nh/0940_nh.bmp
488.88	0.72	670	5	5	103	mem	lib	mod	mod	low	nt	ht	nh/0364_nh.bmp
489.60	0.72	671	5	8	1	per	con	low	mod	low	nt	cr	nh/0451_nh.bmp
490.32	0.72	672	3	6	116	per	con	low	mod	low	nt	cr	nh/0635_nh.bmp
491.04	0.72	673	5	7	32	mem	con	mod	mod	mod	tg	ht	wh/0928.bmp
491.76	0.72	674	6	8	87	per	lib	mod	mod	mod	tg	ht	wh/0447.bmp
492.48	0.72	675	5	8	33	mem	lib	mod	mod	mod	tg	ht	wh/0209.bmp
493.20	0.72	676	6	8	1	per	con	low	mod	low	nt	cr	nh/0451_nh.bmp
493.92	0.72	677	1	5	92	mem	lib	low	low	mod	tg	ms	wh/0301.bmp
494.64	0.72	678	5	6	125	per	con	low	mod	low	tg	ht	wh/0123.bmp
495.36	0.72	679	1	7	58	per	con	low	low	low	nt	cr	nh/1007_nh.bmp
496.08	0.72	680	6	5	48	mem	con	mod	mod	low	tg	ht	wh/0963.bmp
496.80	0.72	681	5	7	12	per	lib	low	mod	low	nt	cr	nh/0619_nh.bmp
497.52	0.72	682	1	5	81	mem	lib	low	low	mod	tg	ht	wh/0278.bmp
498.24	0.72	683	1	7	111	mem	lib	low	low	mod	nt	ht	nh/0530_nh.bmp
498.96	0.72	684	6	7	33	per	con	mod	mod	mod	tg	ht	wh/0946.bmp
499.68	0.72	685	5	5	107	mem	lib	mod	mod	low	nt	ht	nh/0256_nh.bmp
500.40	0.72	686	4	5	36	mem	con	mod	mod	low	tg	ms	wh/0035.bmp
501.12	0.72	687	5	8	97	mem	con	mod	mod	low	tg	ms	wh/0690.bmp
501.84	0.72	688	4	8	46	mem	lib	mod	mod	mod	nt	ht	nh/0182_nh.bmp
502.56	0.72	689	5	5	36	mem	con	mod	mod	low	tg	ms	wh/0035.bmp
503.28	0.72	690	1	6	101	mem	con	low	low	mod	nt	ms	nh/0220_nh.bmp
504.00	0.72	691	6	5	103	mem	lib	mod	mod	low	nt	ht	nh/0364_nh.bmp
504.72	0.72	692	1	8	59	mem	lib	low	low	low	nt	ht	nh/0845_nh.bmp
505.44	0.72	693	1	6	56	mem	lib	low	low	low	tg	ht	wh/0956.bmp
506.16	0.72	694	5	6	87	per	lib	mod	mod	mod	nt	cr	nh/0876_nh.bmp
506.88	0.72	695	1	8	67	mem	con	low	low	low	tg	ms	wh/0831.bmp
507.60	0.72	696	6	6	35	mem	con	mod	mod	mod	nt	ms	nh/0543_nh.bmp
508.32	0.72	697	4	5	34	mem	con	mod	mod	low	nt	ms	nh/0080_nh.bmp
509.04	0.72	698	5	7	6	per	lib	low	mod	low	tg	ms	wh/0577.bmp
509.76	0.72	699	5	6	39	mem	con	mod	mod	mod	nt	ht	nh/0594_nh.bmp
510.48	0.72	700	5	6	78	per	con	mod	mod	mod	nt	cr	nh/0591_nh.bmp
511.20	0.72	701	1	7	119	per	lib	mod	low	mod	nt	cr	nh/0290_nh.bmp
511.92	0.72	702	5	8	101	mem	con	mod	mod	low	tg	ht	wh/0443.bmp
512.64	0.72	703	1	8	124	per	lib	low	low	low	tg	ms	wh/0930.bmp
513.36	0.72	704	1	8	74	mem	con	low	low	low	nt	ms	nh/0197_nh.bmp
514.08	0.72	705	5	6	126	per	con	low	mod	low	nt	cr	nh/0082_nh.bmp
514.80	0.72	706	4	8	85	per	lib	mod	mod	mod	nt	cr	nh/0397_nh.bmp
515.52	0.72	707	4	5	109	mem	lib	mod	mod	low	tg	ht	wh/0730.bmp
516.24	0.72	708	6	8	34	mem	lib	mod	mod	mod	nt	ht	nh/0650_nh.bmp
516.96	0.72	709	5	8	46	mem	lib	mod	mod	mod	nt	ht	nh/0182_nh.bmp
517.68	0.72	710	6	8	89	per	lib	mod	mod	mod	nt	cr	nh/0973_nh.bmp
518.40	0.72	711	5	6	94	per	lib	mod	mod	mod	tg	ht	wh/0843.bmp
519.12	0.72	712	1	5	19	per	lib	mod	low	mod	tg	ht	wh/0652.bmp
519.84	0.72	713	6	7	3	per	lib	low	mod	low	nt	cr	nh/0893_nh.bmp
520.56	0.72	714	6	6	87	per	lib	mod	mod	mod	nt	cr	nh/0876_nh.bmp
521.28	0.72	715	5	6	69	per	con	mod	mod	mod	tg	ht	wh/0684.bmp
522.00	0.72	716	6	7	21	mem	con	mod	mod	mod	nt	ht	nh/0772_nh.bmp
522.72	0.72	717	6	6	6	mem	lib	mod	mod	mod	tg	ht	wh/0222.bmp
523.44	0.72	718	1	5	71	mem	con	low	low	low	tg	ht	wh/0173.bmp
524.16	0.72	719	1	7	122	per	lib	mod	low	mod	tg	ht	wh/0316.bmp
524.88	0.72	720	1	5	18	per	lib	mod	low	mod	nt	fa	nh/0933_nh.bmp
525.60	0.72	721	5	6	89	per	lib	mod	mod	mod	nt	cr	nh/0697_nh.bmp
526.32	0.72	722	1	7	74	mem	con	low	low	mod	tg	ht	wh/0949.bmp
527.04	0.72	723	6	7	4	per	lib	low	mod	low	nt	cr	nh/0029_nh.bmp
527.76	0.72	724	5	6	84	per	lib	mod	mod	mod	nt	cr	nh/0095_nh.bmp
528.48	0.72	725	5	8	6	per	con	low	mod	low	tg	ms	wh/0153.bmp
529.20	0.72	726	4	8	83	per	lib	mod	mod	mod	tg	ht	wh/0548.bmp
529.92	0.72	727	4	8	90	per	lib	mod	mod	mod	nt	fa	nh/0462_nh.bmp
530.64	0.72	728	4	6	65	per	con	mod	mod	mod	tg	ms	wh/0380.bmp
531.36	0.72	729	6	7	19	mem	con	mod	mod	mod	tg	ht	wh/0803.bmp
532.08	0.72	730	6	6	127	per	con	low	mod	low	nt	cr	nh/0608_nh.bmp
532.80	0.72	731	6	8	101	mem	con	mod	mod	low	tg	ht	wh/0443.bmp
533.52	0.72	732	5	8	83	per	lib	mod	mod	mod	tg	ht	wh/0548.bmp
534.24	0.72	733	5	8	100	mem	con	mod	mod	low	nt	ms	nh/0818_nh.bmp
534.96	0.72	734	6	5	54	per	lib	low	mod	low	tg	ht	wh/0383.bmp
535.68	0.72	735	1	8	21	per	con	mod	low	mod	nt	cr	nh/0923_nh.bmp
536.40	0.72	736	5	5	109	mem	lib	mod	mod	low	tg	ht	wh/0730.bmp
537.12	0.72	737	6	8	8	per	con	low	mod	low	tg	ms	wh/0802.bmp
537.84	0.72	738	5	8	98	mem	con	mod	mod	low	tg	ms	wh/0361.bmp
538.56	0.72	739	5	8	85	per	lib	mod	mod	mod	nt	cr	nh/0397_nh.bmp
539.28	0.72	740	4	8	38	mem	lib	mod	mod	mod	tg	ms	wh/0428.bmp
540.00	0.72	741	5	5	53	per	lib	low	mod	low	nt	cr	nh/0074_nh.bmp
540.72	0.72	742	5	6	122	per	con	low	mod	low	nt	cr	nh/0964_nh.bmp
541.44	0.72	743	4	5	46	mem	con	mod	mod	low	nt	ht	nh/0646_nh.bmp
542.16	0.72	744	6	8	2	per	con	low	mod	low	tg	ht	wh/0417.bmp
542.88	0.72	745	6	5	102	mem	lib	mod	mod	low	nt	ht	nh/0758_nh.bmp
543.60	0.72	746	1	5	9	per	con	mod	low	mod	nt	cr	nh/0569_nh.bmp
544.32	0.72	747	5	5	45	mem	con	mod	mod	low	tg	ht	wh/0660.bmp
545.04	0.72	748	3	6	8	mem	lib	mod	mod	mod	nt	ht	nh/0319_nh.bmp
545.76	0.72	749	4	6	85	per	lib	mod	mod	mod	tg	ht	wh/0396.bmp
546.48	0.72	750	4	6	42	mem	con	mod	mod	mod	tg	ht	wh/0714.bmp
547.20	0.72	751	5	6	119	per	con	low	mod	low	tg	ms	wh/0493.bmp
547.92	0.72	752	5	6	42	mem	con	mod	mod	mod	tg	ht	wh/0714.bmp
548.64	0.72	753	6	7	18	mem	con	mod	mod	mod	nt	ht	nh/0540_nh.bmp
549.36	0.72	754	1	8	60	mem	lib	low	low	low	tg	ht	wh/0433.bmp
550.08	0.72	755	5	8	10	per	con	low	mod	low	nt	cr	nh/0336_nh.bmp
550.80	0.72	756	6	8	46	mem	lib	mod	mod	mod	nt	ht	nh/0182_nh.bmp
551.52	0.72	757	5	7	90	mem	lib	mod	mod	low	nt	ht	nh/0329_nh.bmp
552.24	0.72	758	6	8	5	per	con	low	mod	low	tg	ht	wh/0613.bmp
552.96	0.72	759	6	7	6	per	lib	low	mod	low	tg	ms	wh/0577.bmp
553.68	0.72	760	4	6	46	mem	con	mod	mod	mod	tg	ms	wh/0196.bmp
554.40	0.72	761	6	8	97	mem	con	mod	mod	low	tg	ms	wh/0690.bmp
555.12	0.72	762	6	6	91	per	lib	mod	mod	mod	nt	fa	nh/0954_nh.bmp
555.84	0.72	763	5	6	65	per	con	mod	mod	mod	tg	ms	wh/0380.bmp
556.56	0.72	764	4	7	89	mem	lib	mod	mod	low	tg	ht	wh/0345.bmp
557.28	0.72	765	5	5	46	mem	con	mod	mod	low	nt	ht	nh/0646_nh.bmp
558.00	0.72	766	6	5	45	mem	con	mod	mod	low	tg	ht	wh/0660.bmp
558.72	0.72	767	6	7	12	per	lib	low	mod	low	nt	cr	nh/0619_nh.bmp
559.44	0.72	768	5	7	37	per	con	mod	mod	mod	nt	cr	nh/0350_nh.bmp
560.16	0.72	769	6	5	55	per	lib	low	mod	low	tg	ht	wh/0465.bmp
560.88	0.72	770	6	8	33	mem	lib	mod	mod	mod	tg	ht	wh/0209.bmp
561.60	0.72	771	5	5	101	mem	lib	mod	mod	low	tg	ht	wh/0355.bmp
562.32	0.72	772	6	6	15	mem	lib	mod	mod	mod	tg	ht	wh/0941.bmp
563.04	0.72	773	6	8	98	mem	con	mod	mod	low	tg	ms	wh/0361.bmp
563.76	0.72	774	5	7	46	per	con	mod	mod	mod	nt	cr	nh/0558_nh.bmp
564.48	0.72	775	6	6	14	mem	lib	mod	mod	mod	nt	ms	nh/0094_nh.bmp
565.20	0.72	776	6	6	81	per	lib	mod	mod	mod	tg	ht	wh/0588.bmp
565.92	0.72	777	6	7	37	per	con	mod	mod	mod	nt	cr	nh/0350_nh.bmp
566.64	0.72	778	6	8	48	mem	lib	mod	mod	mod	nt	ht	nh/0810_nh.bmp
567.36	0.72	779	6	8	100	mem	con	mod	mod	low	nt	ms	nh/0818_nh.bmp
568.08	0.72	780	6	6	94	per	lib	mod	mod	mod	tg	ht	wh/0843.bmp
568.80	0.72	781	4	6	128	per	con	low	mod	low	tg	ms	wh/0934.bmp
569.52	0.72	782	1	8	29	per	con	mod	low	mod	tg	ms	wh/0048.bmp
570.24	0.72	783	6	5	101	mem	lib	mod	mod	low	tg	ht	wh/0355.bmp
570.96	0.72	784	6	8	103	mem	con	mod	mod	low	nt	ht	nh/0232_nh.bmp
571.68	0.72	785	6	6	41	mem	con	mod	mod	mod	tg	ht	wh/0446.bmp
572.40	0.72	786	6	5	58	per	lib	low	mod	low	tg	ht	wh/0125.bmp
573.12	0.72	787	6	7	96	mem	lib	mod	mod	low	tg	ht	wh/0510.bmp
573.84	0.72	788	5	7	89	mem	lib	mod	mod	low	tg	ht	wh/0345.bmp
574.56	0.72	789	5	6	48	mem	con	mod	mod	mod	nt	ht	nh/0542_nh.bmp
575.28	0.72	790	6	7	15	per	lib	low	mod	low	nt	cr	nh/0489_nh.bmp
576.00	0.72	791	4	6	116	per	con	low	mod	low	nt	cr	nh/0635_nh.bmp
576.72	0.72	792	1	5	124	per	con	low	low	low	nt	fa	nh/0266_nh.bmp
577.44	0.72	793	4	6	8	mem	lib	mod	mod	mod	nt	ht	nh/0319_nh.bmp
578.16	0.72	794	1	5	127	per	con	low	low	low	nt	cr	nh/0439_nh.bmp
578.88	0.72	795	6	8	6	per	con	low	mod	low	tg	ms	wh/0153.bmp
579.60	0.72	796	5	8	90	per	lib	mod	mod	mod	nt	fa	nh/0462_nh.bmp
580.32	0.72	797	6	7	25	mem	con	mod	mod	mod	tg	ht	wh/0371.bmp
581.04	0.72	798	5	8	102	mem	con	mod	mod	low	nt	ms	nh/0077_nh.bmp
581.76	0.72	799	5	8	37	mem	lib	mod	mod	mod	tg	ht	wh/0273.bmp
582.48	0.72	800	4	8	47	mem	lib	mod	mod	mod	nt	ht	nh/0904_nh.bmp
583.20	0.72	801	6	7	10	per	lib	low	mod	low	tg	ht	wh/0508.bmp
583.92	0.72	802	1	5	122	per	con	low	low	low	nt	cr	nh/0655_nh.bmp
584.64	0.72	803	5	8	47	mem	lib	mod	mod	mod	nt	ht	nh/0904_nh.bmp
585.36	0.72	804	5	5	61	per	lib	low	mod	low	nt	cr	nh/0075_nh.bmp
586.08	0.72	805	5	7	42	per	con	mod	mod	mod	tg	ms	wh/0962.bmp
586.80	0.72	806	5	6	8	mem	lib	mod	mod	mod	nt	ht	nh/0319_nh.bmp
587.52	0.72	807	6	8	47	mem	lib	mod	mod	mod	nt	ht	nh/0904_nh.bmp
588.24	0.72	808	6	6	13	mem	lib	mod	mod	mod	nt	ht	nh/0855_nh.bmp
588.96	0.72	809	5	5	97	mem	lib	mod	mod	low	tg	ht	wh/0404.bmp
589.68	0.72	810	6	5	36	mem	con	mod	mod	low	tg	ms	wh/0035.bmp
590.40	0.72	811	6	7	82	mem	lib	mod	mod	low	tg	ht	wh/0338.bmp
591.12	0.72	812	6	7	90	mem	lib	mod	mod	low	nt	ht	nh/0329_nh.bmp
591.84	0.72	813	6	8	102	mem	con	mod	mod	low	nt	ms	nh/0077_nh.bmp
592.56	0.72	814	6	8	16	per	con	low	mod	low	nt	fa	nh/0150_nh.bmp
593.28	0.72	815	6	6	125	per	con	low	mod	low	tg	ht	wh/0123.bmp
594.00	0.72	816	6	6	70	per	con	mod	mod	mod	tg	ms	wh/0795.bmp
594.72	0.72	817	5	6	46	mem	con	mod	mod	mod	tg	ms	wh/0196.bmp
595.44	0.72	818	1	7	117	per	lib	mod	low	mod	tg	ht	wh/0708.bmp
596.16	0.72	819	6	6	78	per	con	mod	mod	mod	nt	cr	nh/0591_nh.bmp
596.88	0.72	820	6	6	120	per	con	low	mod	low	tg	ht	wh/1023.bmp
597.60	0.72	821	6	7	87	mem	lib	mod	mod	low	nt	ht	nh/0382_nh.bmp
598.32	0.72	822	6	6	42	mem	con	mod	mod	mod	tg	ht	wh/0714.bmp
599.04	0.72	823	6	5	99	mem	lib	mod	mod	low	nt	ht	nh/0351_nh.bmp
599.76	0.72	824	5	6	128	per	con	low	mod	low	tg	ms	wh/0934.bmp
600.48	0.72	825	6	8	37	mem	lib	mod	mod	mod	tg	ht	wh/0273.bmp
601.20	0.72	826	6	5	46	mem	con	mod	mod	low	nt	ht	nh/0646_nh.bmp
601.92	0.72	827	1	6	51	mem	lib	low	low	low	tg	ht	wh/0804.bmp
602.64	0.72	828	5	6	116	per	con	low	mod	low	nt	cr	nh/0635_nh.bmp
603.36	0.72	829	6	6	8	mem	lib	mod	mod	mod	nt	ht	nh/0319_nh.bmp
604.08	0.72	830	6	7	42	per	con	mod	mod	mod	tg	ms	wh/0962.bmp
604.80	0.72	831	6	6	84	per	lib	mod	mod	mod	nt	cr	nh/0095_nh.bmp
605.52	0.72	832	6	6	68	per	con	mod	mod	mod	nt	cr	nh/0398_nh.bmp
606.24	0.72	833	1	5	126	per	con	low	low	low	nt	fa	nh/0158_nh.bmp
606.96	0.72	834	5	7	91	mem	lib	mod	mod	low	nt	ht	nh/0299_nh.bmp
607.68	0.72	835	6	6	69	per	con	mod	mod	mod	tg	ht	wh/0684.bmp
608.40	0.72	836	1	7	102	mem	lib	low	low	mod	nt	ht	nh/0584_nh.bmp
609.12	0.72	837	6	8	7	per	con	low	mod	low	nt	fa	nh/0079_nh.bmp
609.84	0.72	838	6	6	2	mem	lib	mod	mod	mod	tg	ht	wh/0874.bmp
610.56	0.72	839	6	8	99	mem	con	mod	mod	low	tg	ht	wh/0760.bmp
611.28	0.72	840	1	5	79	mem	con	low	low	low	nt	ht	nh/0013_nh.bmp
612.00	0.72	841	6	5	53	per	lib	low	mod	low	nt	cr	nh/0074_nh.bmp
612.72	0.72	842	5	6	71	per	con	mod	mod	mod	tg	ht	wh/0442.bmp
613.44	0.72	843	6	6	122	per	con	low	mod	low	nt	cr	nh/0964_nh.bmp
614.16	0.72	844	6	7	32	mem	con	mod	mod	mod	tg	ht	wh/0928.bmp
614.88	0.72	845	5	6	85	per	lib	mod	mod	mod	tg	ht	wh/0396.bmp
615.60	0.72	846	6	8	85	per	lib	mod	mod	mod	nt	cr	nh/0397_nh.bmp
616.32	0.72	847	6	7	91	mem	lib	mod	mod	low	nt	ht	nh/0299_nh.bmp
617.04	0.72	848	6	6	116	per	con	low	mod	low	nt	cr	nh/0635_nh.bmp
617.76	0.72	849	6	6	119	per	con	low	mod	low	tg	ms	wh/0493.bmp
618.48	0.72	850	6	6	126	per	con	low	mod	low	nt	cr	nh/0082_nh.bmp
619.20	0.72	851	5	5	34	mem	con	mod	mod	low	nt	ms	nh/0080_nh.bmp
619.92	0.72	852	1	7	120	per	lib	mod	low	mod	nt	cr	nh/0598_nh.bmp
620.64	0.72	853	5	8	38	mem	lib	mod	mod	mod	tg	ms	wh/0428.bmp
621.36	0.72	854	1	6	60	mem	lib	low	low	low	nt	ht	nh/0823_nh.bmp
622.08	0.72	855	6	5	34	mem	con	mod	mod	low	nt	ms	nh/0080_nh.bmp
622.80	0.72	856	1	5	3	per	con	mod	low	mod	nt	cr	nh/0426_nh.bmp
623.52	0.72	857	6	6	48	mem	con	mod	mod	mod	nt	ht	nh/0542_nh.bmp
624.24	0.72	858	6	6	65	per	con	mod	mod	mod	tg	ms	wh/0380.bmp
624.96	0.72	859	6	5	41	mem	con	mod	mod	low	nt	ht	nh/0032_nh.bmp
625.68	0.72	860	1	5	15	per	con	mod	low	mod	tg	ht	wh/0729.bmp
626.40	0.72	861	6	6	128	per	con	low	mod	low	tg	ms	wh/0934.bmp
627.12	0.72	862	5	5	51	per	lib	low	mod	low	tg	ms	wh/0238.bmp
627.84	0.72	863	1	8	25	per	con	mod	low	mod	nt	cr	nh/0469_nh.bmp
628.56	0.72	864	6	7	83	mem	lib	mod	mod	low	tg	ht	wh/0134.bmp
629.28	0.72	865	6	7	84	mem	lib	mod	mod	low	nt	ht	nh/0284_nh.bmp
630.00	0.72	866	6	7	46	per	con	mod	mod	mod	nt	cr	nh/0558_nh.bmp
630.72	0.72	867	6	6	85	per	lib	mod	mod	mod	tg	ht	wh/0396.bmp
631.44	0.72	868	6	5	104	mem	lib	mod	mod	low	tg	ht	wh/0744.bmp
632.16	0.72	869	6	6	89	per	lib	mod	mod	mod	nt	cr	nh/0697_nh.bmp
632.88	0.72	870	1	8	23	per	con	mod	low	mod	tg	ht	wh/0992.bmp
633.60	0.72	871	6	8	83	per	lib	mod	mod	mod	tg	ht	wh/0548.bmp
634.32	0.72	872	6	7	20	mem	con	mod	mod	mod	tg	ht	wh/0909.bmp
635.04	0.72	873	6	5	107	mem	lib	mod	mod	low	nt	ht	nh/0256_nh.bmp
635.76	0.72	874	6	5	60	per	lib	low	mod	low	nt	cr	nh/0190_nh.bmp
636.48	0.72	875	6	7	24	mem	con	mod	mod	mod	nt	ht	nh/0807_nh.bmp
637.20	0.72	876	1	6	49	mem	lib	low	low	low	nt	ht	nh/0633_nh.bmp
637.92	0.72	877	6	8	10	per	con	low	mod	low	nt	cr	nh/0336_nh.bmp
638.64	0.72	878	1	8	52	mem	lib	low	low	low	nt	ht	nh/0513_nh.bmp
639.36	0.72	879	6	6	71	per	con	mod	mod	mod	tg	ht	wh/0442.bmp
640.08	0.72	880	6	6	39	mem	con	mod	mod	mod	nt	ht	nh/0594_nh.bmp
640.80	0.72	881	6	8	38	mem	lib	mod	mod	mod	tg	ms	wh/0428.bmp
641.52	0.72	882	6	6	66	per	con	mod	mod	mod	nt	cr	nh/0328_nh.bmp
642.24	0.72	883	6	5	109	mem	lib	mod	mod	low	tg	ht	wh/0730.bmp
642.96	0.72	884	6	8	90	per	lib	mod	mod	mod	nt	fa	nh/0462_nh.bmp
643.68	0.72	885	1	8	54	mem	lib	low	low	low	tg	ht	wh/0768.bmp
644.40	0.72	886	6	7	89	mem	lib	mod	mod	low	tg	ht	wh/0345.bmp
645.12	0.72	887	6	6	1	mem	lib	mod	mod	mod	tg	ht	wh/0199.bmp
645.84	0.72	888	6	5	51	per	lib	low	mod	low	tg	ms	wh/0238.bmp
646.56	0.72	889	6	6	95	per	lib	mod	mod	mod	tg	ht	wh/0497.bmp
647.28	0.72	890	1	6	112	mem	con	low	low	mod	tg	ht	wh/0267.bmp
648.00	0.72	891	6	6	46	mem	con	mod	mod	mod	tg	ms	wh/0196.bmp
648.72	0.72	892	1	8	80	mem	con	low	low	low	tg	ms	wh/0088.bmp
649.44	0.72	893	6	7	38	per	con	mod	mod	mod	nt	cr	nh/0339_nh.bmp
650.16	0.72	894	6	5	61	per	lib	low	mod	low	nt	cr	nh/0075_nh.bmp
650.88	0.72	895	1	8	118	per	lib	low	low	low	tg	ht	wh/0370.bmp
651.60	0.72	896	6	5	97	mem	lib	mod	mod	low	tg	ht	wh/0404.bmp
