onset	duration	block	trial	task	crit	disc	mem_disc	per_disc	trial_type	mem_type	per_type	left_option	resp_hand	response	accuracy	response_time	stim_file	pay	pay_tot
7.2	7.2	1	n/a	mem	con	low	n/a	n/a	instructions	n/a	n/a	n/a	n/a	n/a	n/a	n/a	n/a	n/a	n/a
14.72	0.93461	1	1	mem	con	low	low	low	nt	nt	tg	nt	left	nt	cr	0.53461	wh/0219.bmp	0.05	15.05
17.6	0.77012	1	2	mem	con	low	low	low	tg	tg	nt	tg	right	nt	ms	0.37012	nh/0864_nh.bmp	0	15.05
21.92	0.85187	1	3	mem	con	low	low	low	nt	nt	tg	tg	right	nt	cr	0.45187	wh/0144.bmp	0.05	15.1
24.8	0.86496	1	4	mem	con	low	low	low	tg	tg	tg	nt	left	nt	ms	0.46496	wh/0815.bmp	0	15.1
28.4	0.95172	1	5	mem	con	low	low	low	nt	nt	nt	tg	right	nt	cr	0.55172	nh/0240_nh.bmp	0.05	15.15
32	0.92906	1	6	mem	con	low	low	low	nt	nt	nt	tg	right	nt	cr	0.52906	nh/0770_nh.bmp	0.05	15.2
34.88	0.91586	1	7	mem	con	low	low	low	tg	tg	nt	nt	left	nt	ms	0.51586	nh/0370_nh.bmp	0	15.2
37.76	0.96155	1	8	mem	con	low	low	low	nt	nt	tg	nt	left	nt	cr	0.56155	wh/0639.bmp	0.05	15.25
41.36	1.0014	1	9	mem	con	low	low	low	nt	nt	tg	nt	right	tg	fa	0.6014	wh/0005.bmp	-0.1	15.15
45.68	0.80251	1	10	mem	con	low	low	low	tg	tg	tg	nt	left	nt	ms	0.40251	wh/0579.bmp	0	15.15
50	1.03017	1	11	mem	con	low	low	low	nt	nt	nt	nt	left	nt	cr	0.63017	nh/0181_nh.bmp	0.05	15.2
53.6	0.81744	1	12	mem	con	low	low	low	nt	nt	nt	tg	right	nt	cr	0.41744	nh/0224_nh.bmp	0.05	15.25
56.48	1.5569	1	13	mem	con	low	low	low	tg	tg	nt	nt	left	nt	ms	1.1569	nh/0930_nh.bmp	0	15.25
59.36	0.90475	1	14	mem	con	low	low	low	tg	tg	tg	tg	right	nt	ms	0.50475	wh/0185.bmp	0	15.25
63.68	0.98245	1	15	mem	con	low	low	low	tg	tg	nt	tg	right	nt	ms	0.58245	nh/0701_nh.bmp	0	15.25
67.28	0.73561	1	16	mem	con	low	low	low	tg	tg	tg	tg	right	nt	ms	0.33561	wh/0789.bmp	0	15.25
70.56	3.6	1	n/a	mem	con	low	n/a	n/a	feedback	n/a	n/a	n/a	n/a	n/a	n/a	n/a	n/a	n/a	n/a
74.16	7.2	2	n/a	mem	lib	low	n/a	n/a	instructions	n/a	n/a	n/a	n/a	n/a	n/a	n/a	n/a	n/a	n/a
81.68	0.80786	2	17	mem	lib	low	low	low	tg	tg	nt	nt	right	tg	ht	0.40786	nh/0215_nh.bmp	0.05	15.3
86	0.84143	2	18	mem	lib	low	low	low	tg	tg	tg	nt	right	tg	ht	0.44143	wh/0112.bmp	0.05	15.35
88.88	0.97119	2	19	mem	lib	low	low	low	nt	nt	tg	tg	left	tg	fa	0.57119	wh/0677.bmp	0	15.35
91.76	0.91784	2	20	mem	lib	low	low	low	nt	nt	nt	nt	right	tg	fa	0.51784	nh/0360_nh.bmp	0	15.35
94.64	0.96937	2	21	mem	lib	low	low	low	nt	nt	nt	tg	left	tg	fa	0.56937	nh/0859_nh.bmp	0	15.35
98.96	0.87871	2	22	mem	lib	low	low	low	nt	nt	nt	nt	right	tg	fa	0.47871	nh/0842_nh.bmp	0	15.35
101.84	0.92136	2	23	mem	lib	low	low	low	nt	nt	nt	nt	right	tg	fa	0.52136	nh/0676_nh.bmp	0	15.35
104.72	1.01295	2	24	mem	lib	low	low	low	tg	tg	tg	tg	left	tg	ht	0.61295	wh/1007.bmp	0.05	15.4
109.04	0.82882	2	25	mem	lib	low	low	low	tg	tg	tg	nt	right	tg	ht	0.42882	wh/0431.bmp	0.05	15.45
111.92	2.3389	2	26	mem	lib	low	low	low	nt	nt	tg	tg	left	tg	fa	1.9389	wh/0175.bmp	0	15.45
115.52	0.96896	2	27	mem	lib	low	low	low	tg	tg	nt	tg	right	nt	ms	0.56896	nh/0488_nh.bmp	-0.1	15.35
119.84	1.4549	2	28	mem	lib	low	low	low	tg	tg	tg	tg	right	nt	ms	1.0549	wh/0999.bmp	-0.1	15.25
122.72	1.04637	2	29	mem	lib	low	low	low	nt	nt	tg	tg	left	tg	fa	0.64637	wh/0138.bmp	0	15.25
125.6	0.94659	2	30	mem	lib	low	low	low	tg	tg	nt	tg	left	tg	ht	0.54659	nh/0148_nh.bmp	0.05	15.3
129.92	1.04869	2	31	mem	lib	low	low	low	tg	tg	nt	tg	left	tg	ht	0.64869	nh/0528_nh.bmp	0.05	15.35
132.8	0.85741	2	32	mem	lib	low	low	low	nt	nt	tg	tg	left	tg	fa	0.45741	wh/0825.bmp	0	15.35
136.8	3.6	2	n/a	mem	lib	low	n/a	n/a	feedback	n/a	n/a	n/a	n/a	n/a	n/a	n/a	n/a	n/a	n/a
140.4	7.2	3	n/a	per	con	low	n/a	n/a	instructions	n/a	n/a	n/a	n/a	n/a	n/a	n/a	n/a	n/a	n/a
148.64	0.84425	3	33	per	con	low	low	low	tg	tg	tg	tg	right	nt	ms	0.44425	wh/0706.bmp	0	15.35
151.52	0.87524	3	34	per	con	low	low	low	tg	tg	tg	tg	right	nt	ms	0.47524	wh/0513.bmp	0	15.35
154.4	1.0156	3	35	per	con	low	low	low	nt	nt	nt	nt	left	nt	cr	0.6156	nh/0767_nh.bmp	0.05	15.4
157.28	0.84916	3	36	per	con	low	low	low	nt	nt	nt	tg	right	nt	cr	0.44916	nh/0352_nh.bmp	0.05	15.45
160.16	0.8568	3	37	per	con	low	low	low	tg	nt	tg	tg	right	nt	ms	0.4568	wh/0268.bmp	0	15.45
163.04	0.8504	3	38	per	con	low	low	low	tg	tg	tg	nt	left	nt	ms	0.4504	wh/0458.bmp	0	15.45
166.64	0.83854	3	39	per	con	low	low	low	tg	tg	tg	tg	right	nt	ms	0.43854	wh/0845.bmp	0	15.45
170.96	0.79334	3	40	per	con	low	low	low	nt	tg	nt	tg	right	nt	cr	0.39334	nh/0768_nh.bmp	0.05	15.5
173.84	0.80781	3	41	per	con	low	low	low	nt	tg	nt	tg	right	nt	cr	0.40781	nh/0261_nh.bmp	0.05	15.55
178.16	1.0211	3	42	per	con	low	low	low	tg	nt	tg	tg	left	tg	ht	0.6211	wh/0566.bmp	0.05	15.6
181.04	0.82464	3	43	per	con	low	low	low	nt	nt	nt	tg	right	nt	cr	0.42464	nh/0480_nh.bmp	0.05	15.65
184.64	0.83496	3	44	per	con	low	low	low	tg	nt	tg	tg	right	nt	ms	0.43496	wh/0135.bmp	0	15.65
187.52	0.73511	3	45	per	con	low	low	low	tg	nt	tg	tg	right	nt	ms	0.33511	wh/0260.bmp	0	15.65
191.84	0.90134	3	46	per	con	low	low	low	nt	tg	nt	nt	left	nt	cr	0.50134	nh/0055_nh.bmp	0.05	15.7
195.44	0.86714	3	47	per	con	low	low	low	nt	nt	nt	nt	left	nt	cr	0.46714	nh/0376_nh.bmp	0.05	15.75
198.32	0.80165	3	48	per	con	low	low	low	nt	tg	nt	tg	right	nt	cr	0.40165	nh/0433_nh.bmp	0.05	15.8
200.88	3.6	3	n/a	per	con	low	n/a	n/a	feedback	n/a	n/a	n/a	n/a	n/a	n/a	n/a	n/a	n/a	n/a
205.2	7.2	4	n/a	per	lib	mod	n/a	n/a	instructions	n/a	n/a	n/a	n/a	n/a	n/a	n/a	n/a	n/a	n/a
213.44	0.8364	4	49	per	lib	mod	low	mod	nt	tg	nt	tg	left	tg	fa	0.4364	nh/0461_nh.bmp	0	15.8
217.04	0.87305	4	50	per	lib	mod	low	mod	tg	nt	tg	nt	right	tg	ht	0.47305	wh/1008.bmp	0.05	15.85
219.92	1.06222	4	51	per	lib	mod	low	mod	tg	nt	tg	tg	right	nt	ms	0.66222	wh/0668.bmp	-0.1	15.75
223.52	0.86139	4	52	per	lib	mod	low	mod	nt	nt	nt	nt	left	nt	cr	0.46139	nh/0101_nh.bmp	0.05	15.8
226.4	0.88004	4	53	per	lib	mod	low	mod	nt	nt	nt	tg	right	nt	cr	0.48004	nh/0559_nh.bmp	0.05	15.85
229.28	2.56	4	54	per	lib	mod	low	mod	tg	tg	tg	nt	n/a	mr	n/a	n/a	wh/1018.bmp	0	15.85
232.16	1.16887	4	55	per	lib	mod	low	mod	tg	tg	tg	nt	right	tg	ht	0.76887	wh/0838.bmp	0.05	15.9
236.48	1.5339	4	56	per	lib	mod	low	mod	tg	nt	tg	nt	right	tg	ht	1.1339	wh/0389.bmp	0.05	15.95
239.36	0.98873	4	57	per	lib	mod	low	mod	nt	tg	nt	nt	left	nt	cr	0.58873	nh/0949_nh.bmp	0.05	16
242.96	1.28588	4	58	per	lib	mod	low	mod	nt	tg	nt	nt	left	nt	cr	0.88588	nh/1024_nh.bmp	0.05	16.05
246.56	1.01697	4	59	per	lib	mod	low	mod	tg	nt	tg	tg	left	tg	ht	0.61697	wh/0840.bmp	0.05	16.1
249.44	0.89464	4	60	per	lib	mod	low	mod	nt	nt	nt	tg	right	nt	cr	0.49464	nh/0532_nh.bmp	0.05	16.15
252.32	0.84293	4	61	per	lib	mod	low	mod	tg	tg	tg	tg	left	tg	ht	0.44293	wh/0736.bmp	0.05	16.2
255.2	1.13086	4	62	per	lib	mod	low	mod	tg	tg	tg	tg	left	tg	ht	0.73086	wh/0781.bmp	0.05	16.25
258.8	0.82409	4	63	per	lib	mod	low	mod	nt	tg	nt	tg	left	tg	fa	0.42409	nh/0849_nh.bmp	0	16.25
263.12	1.11382	4	64	per	lib	mod	low	mod	nt	nt	nt	nt	left	nt	cr	0.71382	nh/0631_nh.bmp	0.05	16.3
265.68	3.6	4	n/a	per	lib	mod	n/a	n/a	feedback	n/a	n/a	n/a	n/a	n/a	n/a	n/a	n/a	n/a	n/a
270.72	7.2	5	n/a	mem	con	mod	n/a	n/a	instructions	n/a	n/a	n/a	n/a	n/a	n/a	n/a	n/a	n/a	n/a
278.24	1.12492	5	65	mem	con	mod	mod	low	tg	tg	tg	nt	left	nt	ms	0.72492	wh/0893.bmp	0	16.3
281.84	1.07904	5	66	mem	con	mod	mod	low	nt	nt	tg	nt	right	tg	fa	0.67904	wh/0018.bmp	-0.1	16.2
284.72	1.3609	5	67	mem	con	mod	mod	low	nt	nt	tg	tg	left	tg	fa	0.9609	wh/0023.bmp	-0.1	16.1
288.32	0.97122	5	68	mem	con	mod	mod	low	tg	tg	nt	nt	right	tg	ht	0.57122	nh/0503_nh.bmp	0.05	16.15
291.2	0.98582	5	69	mem	con	mod	mod	low	tg	tg	nt	tg	right	nt	ms	0.58582	nh/0568_nh.bmp	0	16.15
294.8	1.01105	5	70	mem	con	mod	mod	low	nt	nt	nt	nt	left	nt	cr	0.61105	nh/1019_nh.bmp	0.05	16.2
298.4	0.87885	5	71	mem	con	mod	mod	low	tg	tg	tg	nt	right	tg	ht	0.47885	wh/0619.bmp	0.05	16.25
302	0.90045	5	72	mem	con	mod	mod	low	tg	tg	nt	nt	right	tg	ht	0.50045	nh/0577_nh.bmp	0.05	16.3
304.88	1.015	5	73	mem	con	mod	mod	low	tg	tg	nt	nt	right	tg	ht	0.615	nh/0508_nh.bmp	0.05	16.35
307.76	0.89563	5	74	mem	con	mod	mod	low	nt	nt	nt	nt	left	nt	cr	0.49563	nh/0986_nh.bmp	0.05	16.4
310.64	1.17291	5	75	mem	con	mod	mod	low	nt	nt	nt	nt	left	nt	cr	0.77291	nh/0892_nh.bmp	0.05	16.45
314.96	0.99412	5	76	mem	con	mod	mod	low	nt	nt	nt	tg	right	nt	cr	0.59412	nh/0170_nh.bmp	0.05	16.5
317.84	0.92196	5	77	mem	con	mod	mod	low	tg	tg	tg	nt	right	tg	ht	0.52196	wh/0489.bmp	0.05	16.55
322.16	1.20185	5	78	mem	con	mod	mod	low	nt	nt	tg	tg	right	nt	cr	0.80185	wh/0618.bmp	0.05	16.6
325.04	1.03307	5	79	mem	con	mod	mod	low	tg	tg	tg	nt	left	nt	ms	0.63307	wh/0029.bmp	0	16.6
328.64	1.24697	5	80	mem	con	mod	mod	low	nt	nt	tg	tg	right	nt	cr	0.84697	wh/0678.bmp	0.05	16.65
331.92	3.6	5	n/a	mem	con	mod	n/a	n/a	feedback	n/a	n/a	n/a	n/a	n/a	n/a	n/a	n/a	n/a	n/a
335.52	7.2	6	n/a	per	lib	low	n/a	n/a	instructions	n/a	n/a	n/a	n/a	n/a	n/a	n/a	n/a	n/a	n/a
343.04	1.23292	6	81	per	lib	low	low	low	tg	tg	tg	tg	right	nt	ms	0.83292	wh/0090.bmp	-0.1	16.55
347.36	0.9491	6	82	per	lib	low	low	low	nt	nt	nt	nt	right	tg	fa	0.5491	nh/0244_nh.bmp	0	16.55
350.24	0.90471	6	83	per	lib	low	low	low	nt	nt	nt	tg	right	nt	cr	0.50471	nh/0063_nh.bmp	0.05	16.6
353.12	1.3239	6	84	per	lib	low	low	low	tg	tg	tg	nt	left	nt	ms	0.9239	wh/0197.bmp	-0.1	16.5
356	1.09954	6	85	per	lib	low	low	low	nt	tg	nt	nt	left	nt	cr	0.69954	nh/0088_nh.bmp	0.05	16.55
360.32	1.1669	6	86	per	lib	low	low	low	tg	nt	tg	tg	left	tg	ht	0.7669	wh/0570.bmp	0.05	16.6
363.2	0.92142	6	87	per	lib	low	low	low	nt	tg	nt	tg	left	tg	fa	0.52142	nh/0831_nh.bmp	0	16.6
366.08	1.07469	6	88	per	lib	low	low	low	tg	nt	tg	nt	left	nt	ms	0.67469	wh/0280.bmp	-0.1	16.5
368.96	0.86161	6	89	per	lib	low	low	low	nt	tg	nt	tg	right	nt	cr	0.46161	nh/0292_nh.bmp	0.05	16.55
373.28	1.12589	6	90	per	lib	low	low	low	tg	nt	tg	nt	right	tg	ht	0.72589	wh/0929.bmp	0.05	16.6
377.6	0.79548	6	91	per	lib	low	low	low	tg	nt	tg	nt	right	tg	ht	0.39548	wh/0880.bmp	0.05	16.65
381.2	0.90932	6	92	per	lib	low	low	low	tg	tg	tg	tg	left	tg	ht	0.50932	wh/0053.bmp	0.05	16.7
384.08	0.94791	6	93	per	lib	low	low	low	nt	tg	nt	nt	right	tg	fa	0.54791	nh/1009_nh.bmp	0	16.7
386.96	0.86166	6	94	per	lib	low	low	low	nt	nt	nt	tg	left	tg	fa	0.46166	nh/0045_nh.bmp	0	16.7
390.56	0.89883	6	95	per	lib	low	low	low	nt	nt	nt	tg	left	tg	fa	0.49883	nh/0617_nh.bmp	0	16.7
394.16	0.98001	6	96	per	lib	low	low	low	tg	tg	tg	tg	left	tg	ht	0.58001	wh/0711.bmp	0.05	16.75
396.72	3.6	6	n/a	per	lib	low	n/a	n/a	feedback	n/a	n/a	n/a	n/a	n/a	n/a	n/a	n/a	n/a	n/a
401.76	7.2	7	n/a	mem	lib	mod	n/a	n/a	instructions	n/a	n/a	n/a	n/a	n/a	n/a	n/a	n/a	n/a	n/a
409.28	0.93529	7	97	mem	lib	mod	mod	low	tg	tg	nt	nt	right	tg	ht	0.53529	nh/0802_nh.bmp	0.05	16.8
412.88	0.83714	7	98	mem	lib	mod	mod	low	tg	tg	nt	nt	right	tg	ht	0.43714	nh/0417_nh.bmp	0.05	16.85
417.2	2.386	7	99	mem	lib	mod	mod	low	nt	nt	nt	nt	right	tg	fa	1.986	nh/0012_nh.bmp	0	16.85
420.08	0.96862	7	100	mem	lib	mod	mod	low	nt	nt	tg	tg	left	tg	fa	0.56862	wh/0111.bmp	0	16.85
424.4	0.90297	7	101	mem	lib	mod	mod	low	nt	nt	tg	tg	left	tg	fa	0.50297	wh/1014.bmp	0	16.85
428	1.02221	7	102	mem	lib	mod	mod	low	tg	tg	tg	nt	right	tg	ht	0.62221	wh/0336.bmp	0.05	16.9
432.32	0.98525	7	103	mem	lib	mod	mod	low	nt	nt	tg	tg	right	nt	cr	0.58525	wh/0640.bmp	0.05	16.95
435.2	0.80504	7	104	mem	lib	mod	mod	low	tg	tg	nt	tg	left	tg	ht	0.40504	nh/0153_nh.bmp	0.05	17
438.08	0.95322	7	105	mem	lib	mod	mod	low	tg	tg	tg	nt	right	tg	ht	0.55322	wh/0451.bmp	0.05	17.05
440.96	1.04878	7	106	mem	lib	mod	mod	low	nt	nt	nt	nt	left	nt	cr	0.64878	nh/0254_nh.bmp	0.05	17.1
443.84	0.98777	7	107	mem	lib	mod	mod	low	tg	tg	nt	tg	left	tg	ht	0.58777	nh/0613_nh.bmp	0.05	17.15
447.44	1.04597	7	108	mem	lib	mod	mod	low	nt	nt	tg	nt	right	tg	fa	0.64597	wh/0064.bmp	0	17.15
451.76	0.84034	7	109	mem	lib	mod	mod	low	tg	tg	tg	tg	left	tg	ht	0.44034	wh/0079.bmp	0.05	17.2
456.08	1.00049	7	110	mem	lib	mod	mod	low	nt	nt	nt	nt	left	nt	cr	0.60049	nh/0780_nh.bmp	0.05	17.25
459.68	0.98946	7	111	mem	lib	mod	mod	low	tg	tg	tg	tg	left	tg	ht	0.58946	wh/0150.bmp	0.05	17.3
462.56	1.1879	7	112	mem	lib	mod	mod	low	nt	nt	nt	tg	left	tg	fa	0.7879	nh/0139_nh.bmp	0	17.3
465.12	3.6	7	n/a	mem	lib	mod	n/a	n/a	feedback	n/a	n/a	n/a	n/a	n/a	n/a	n/a	n/a	n/a	n/a
468.72	7.2	8	n/a	per	con	mod	n/a	n/a	instructions	n/a	n/a	n/a	n/a	n/a	n/a	n/a	n/a	n/a	n/a
476.96	0.90771	8	113	per	con	mod	low	mod	tg	nt	tg	nt	right	tg	ht	0.50771	wh/0749.bmp	0.05	17.35
480.56	0.97828	8	114	per	con	mod	low	mod	nt	tg	nt	tg	right	nt	cr	0.57828	nh/0531_nh.bmp	0.05	17.4
483.44	1.5099	8	115	per	con	mod	low	mod	tg	tg	tg	nt	left	nt	ms	1.1099	wh/0581.bmp	0	17.4
487.76	0.94273	8	116	per	con	mod	low	mod	tg	nt	tg	nt	right	tg	ht	0.54273	wh/0907.bmp	0.05	17.45
490.64	0.97526	8	117	per	con	mod	low	mod	nt	tg	nt	tg	right	nt	cr	0.57526	nh/0966_nh.bmp	0.05	17.5
494.24	0.91514	8	118	per	con	mod	low	mod	nt	nt	nt	nt	left	nt	cr	0.51514	nh/0837_nh.bmp	0.05	17.55
497.12	0.99469	8	119	per	con	mod	low	mod	tg	nt	tg	nt	right	tg	ht	0.59469	wh/0545.bmp	0.05	17.6
500	1.03233	8	120	per	con	mod	low	mod	nt	tg	nt	nt	left	nt	cr	0.63233	nh/0787_nh.bmp	0.05	17.65
503.6	1.07145	8	121	per	con	mod	low	mod	tg	tg	tg	tg	right	nt	ms	0.67145	wh/0584.bmp	0	17.65
506.48	0.89347	8	122	per	con	mod	low	mod	tg	tg	tg	nt	left	nt	ms	0.49347	wh/0530.bmp	0	17.65
509.36	0.90821	8	123	per	con	mod	low	mod	tg	tg	tg	nt	right	tg	ht	0.50821	wh/0860.bmp	0.05	17.7
512.24	1.14489	8	124	per	con	mod	low	mod	nt	tg	nt	tg	right	nt	cr	0.74489	nh/0936_nh.bmp	0.05	17.75
515.12	1.33094	8	125	per	con	mod	low	mod	tg	nt	tg	tg	right	nt	ms	0.93094	wh/0180.bmp	0	17.75
518.72	0.94167	8	126	per	con	mod	low	mod	nt	nt	nt	tg	right	nt	cr	0.54167	nh/0207_nh.bmp	0.05	17.8
523.04	0.88793	8	127	per	con	mod	low	mod	nt	nt	nt	nt	left	nt	cr	0.48793	nh/0948_nh.bmp	0.05	17.85
527.36	2.4139	8	128	per	con	mod	low	mod	nt	nt	nt	tg	right	nt	cr	2.0139	nh/0016_nh.bmp	0.05	17.9
531.36	3.6	8	n/a	per	con	mod	n/a	n/a	feedback	n/a	n/a	n/a	n/a	n/a	n/a	n/a	n/a	n/a	n/a
