onset	duration	trial	pres	ts_blk	ts_trl	task	crit	disc	mem_disc	per_disc	per_type	accuracy	stim_file
7.20	0.72	1	1	1	125	mem	con	mod	mod	low	nt	ht	nh/0976_nh.bmp
7.92	0.72	2	1	2	16	per	con	mod	low	mod	tg	ht	wh/0539.bmp
8.64	0.72	3	1	1	2	per	con	low	mod	low	tg	n/a	wh/0195.bmp
9.36	0.72	4	1	2	36	per	con	low	low	low	nt	cr	nh/0607_nh.bmp
10.08	0.72	5	1	1	87	per	con	mod	mod	mod	tg	ht	wh/0427.bmp
10.80	0.72	6	1	4	104	per	lib	low	low	low	tg	ht	wh/0160.bmp
11.52	0.72	7	1	1	58	mem	lib	mod	mod	mod	tg	ht	wh/0445.bmp
12.24	0.72	8	1	4	48	per	con	mod	mod	mod	tg	ht	wh/0331.bmp
12.96	0.72	9	1	3	16	mem	lib	mod	mod	low	tg	ht	wh/0494.bmp
13.68	0.72	10	1	2	73	mem	lib	mod	mod	low	nt	ht	nh/0390_nh.bmp
14.40	0.72	11	1	4	92	per	con	low	mod	low	nt	cr	nh/0302_nh.bmp
15.12	0.72	12	1	2	75	mem	lib	mod	mod	low	tg	ht	wh/0615.bmp
15.84	0.72	13	1	2	127	mem	con	mod	mod	mod	tg	ms	wh/0759.bmp
16.56	0.72	14	1	4	16	mem	con	mod	mod	low	tg	ht	wh/0323.bmp
17.28	0.72	15	1	3	1	mem	lib	mod	mod	low	nt	ht	nh/0415_nh.bmp
18.00	0.72	16	1	1	74	per	lib	low	mod	low	tg	ms	wh/0575.bmp
18.72	0.72	17	1	4	6	mem	con	mod	mod	low	tg	ht	wh/0368.bmp
19.44	0.72	18	1	3	77	mem	con	mod	mod	mod	nt	ht	nh/0983_nh.bmp
20.16	0.72	19	1	4	38	per	con	mod	mod	mod	nt	cr	nh/0799_nh.bmp
20.88	0.72	20	1	1	80	per	lib	low	mod	low	nt	cr	nh/0030_nh.bmp
21.60	0.72	21	1	3	54	per	lib	mod	mod	mod	nt	cr	nh/0961_nh.bmp
22.32	0.72	22	1	1	46	mem	lib	low	low	low	tg	ht	wh/0653.bmp
23.04	0.72	23	2	3	54	per	lib	mod	mod	mod	nt	cr	nh/0961_nh.bmp
23.76	0.72	24	1	2	68	mem	lib	mod	mod	low	nt	ht	nh/0523_nh.bmp
24.48	0.72	25	1	1	91	per	con	mod	mod	mod	tg	ht	wh/0943.bmp
25.20	0.72	26	1	4	66	mem	con	low	low	low	tg	ms	wh/0167.bmp
25.92	0.72	27	1	1	122	mem	con	mod	mod	low	tg	ht	wh/0643.bmp
26.64	0.72	28	1	4	52	per	lib	mod	low	mod	tg	ht	wh/0616.bmp
27.36	0.72	29	1	4	28	mem	lib	mod	mod	mod	nt	ht	nh/0901_nh.bmp
28.08	0.72	30	1	2	77	mem	lib	mod	mod	low	tg	ht	wh/0236.bmp
28.80	0.72	31	1	3	60	per	lib	mod	mod	mod	tg	ht	wh/0925.bmp
29.52	0.72	32	1	3	49	per	lib	mod	mod	mod	tg	ht	wh/0645.bmp
30.24	0.72	33	1	3	73	mem	con	mod	mod	mod	tg	ht	wh/0348.bmp
30.96	0.72	34	1	1	34	mem	lib	low	low	low	nt	ht	nh/0117_nh.bmp
31.68	0.72	35	1	1	10	per	con	low	mod	low	tg	ms	wh/0400.bmp
32.40	0.72	36	1	4	114	mem	lib	low	low	mod	nt	ht	nh/0950_nh.bmp
33.12	0.72	37	1	2	57	per	lib	mod	mod	mod	nt	cr	nh/0895_nh.bmp
33.84	0.72	38	1	4	72	mem	con	low	low	low	tg	ms	wh/0161.bmp
34.56	0.72	39	1	1	37	mem	lib	low	low	low	tg	ht	wh/0171.bmp
35.28	0.72	40	1	4	87	per	con	low	mod	low	tg	ms	wh/0259.bmp
36.00	0.72	41	1	3	5	mem	lib	mod	mod	low	tg	ht	wh/0007.bmp
36.72	0.72	42	1	2	115	mem	con	mod	mod	mod	nt	ht	nh/0477_nh.bmp
37.44	0.72	43	1	1	49	mem	lib	mod	mod	mod	tg	ht	wh/0282.bmp
38.16	0.72	44	2	1	122	mem	con	mod	mod	low	tg	ht	wh/0643.bmp
38.88	0.72	45	1	1	111	per	lib	mod	low	mod	tg	ht	wh/0826.bmp
39.60	0.72	46	1	2	80	mem	lib	mod	mod	low	tg	ht	wh/0424.bmp
40.32	0.72	47	1	3	57	per	lib	mod	mod	mod	nt	cr	nh/0796_nh.bmp
41.04	0.72	48	1	2	55	per	lib	mod	mod	mod	nt	cr	nh/0664_nh.bmp
41.76	0.72	49	1	1	1	per	con	low	mod	low	nt	cr	nh/0454_nh.bmp
42.48	0.72	50	1	1	96	per	con	mod	mod	mod	nt	cr	nh/0604_nh.bmp
43.20	0.72	51	1	1	81	per	con	mod	mod	mod	nt	cr	nh/0365_nh.bmp
43.92	0.72	52	1	1	76	per	lib	low	mod	low	nt	cr	nh/0410_nh.bmp
44.64	0.72	53	1	1	4	per	con	low	mod	low	nt	cr	nh/0641_nh.bmp
45.36	0.72	54	1	2	40	per	con	low	low	low	tg	ms	wh/0430.bmp
46.08	0.72	55	1	1	15	per	con	low	mod	low	nt	cr	nh/0703_nh.bmp
46.80	0.72	56	1	4	4	mem	con	mod	mod	low	nt	ht	nh/0511_nh.bmp
47.52	0.72	57	1	3	91	per	con	low	low	low	nt	cr	nh/0471_nh.bmp
48.24	0.72	58	1	3	46	per	lib	low	mod	low	nt	cr	nh/0293_nh.bmp
48.96	0.72	59	2	3	73	mem	con	mod	mod	mod	tg	ht	wh/0348.bmp
49.68	0.72	60	2	1	2	per	con	low	mod	low	tg	n/a	wh/0195.bmp
50.40	0.72	61	1	1	86	per	con	mod	mod	mod	nt	cr	nh/0931_nh.bmp
51.12	0.72	62	1	4	31	mem	lib	mod	mod	mod	nt	ht	nh/0320_nh.bmp
51.84	0.72	63	2	2	68	mem	lib	mod	mod	low	nt	ht	nh/0523_nh.bmp
52.56	0.72	64	2	2	55	per	lib	mod	mod	mod	nt	cr	nh/0664_nh.bmp
53.28	0.72	65	1	2	21	mem	con	low	low	mod	nt	ht	nh/0707_nh.bmp
54.00	0.72	66	1	2	51	per	lib	mod	mod	mod	tg	ht	wh/0479.bmp
54.72	0.72	67	1	1	112	per	lib	mod	low	mod	tg	ms	wh/0595.bmp
55.44	0.72	68	2	1	96	per	con	mod	mod	mod	nt	cr	nh/0604_nh.bmp
56.16	0.72	69	1	2	59	per	lib	mod	mod	mod	tg	ht	wh/0806.bmp
56.88	0.72	70	2	2	57	per	lib	mod	mod	mod	nt	cr	nh/0895_nh.bmp
57.60	0.72	71	2	4	4	mem	con	mod	mod	low	nt	ht	nh/0511_nh.bmp
58.32	0.72	72	1	4	30	mem	lib	mod	mod	mod	tg	ht	wh/1010.bmp
59.04	0.72	73	1	3	58	per	lib	mod	mod	mod	nt	fa	nh/0137_nh.bmp
59.76	0.72	74	1	4	43	per	con	mod	mod	mod	nt	cr	nh/0562_nh.bmp
60.48	0.72	75	2	2	73	mem	lib	mod	mod	low	nt	ht	nh/0390_nh.bmp
61.20	0.72	76	2	1	1	per	con	low	mod	low	nt	cr	nh/0454_nh.bmp
61.92	0.72	77	2	1	4	per	con	low	mod	low	nt	cr	nh/0641_nh.bmp
62.64	0.72	78	1	2	35	per	con	low	low	low	nt	cr	nh/0127_nh.bmp
63.36	0.72	79	1	2	66	mem	lib	mod	mod	low	nt	ht	nh/0131_nh.bmp
64.08	0.72	80	2	1	80	per	lib	low	mod	low	nt	cr	nh/0030_nh.bmp
64.80	0.72	81	1	1	128	mem	con	mod	mod	low	nt	ht	nh/0792_nh.bmp
65.52	0.72	82	2	4	16	mem	con	mod	mod	low	tg	ht	wh/0323.bmp
66.24	0.72	83	2	4	6	mem	con	mod	mod	low	tg	ht	wh/0368.bmp
66.96	0.72	84	1	4	107	per	lib	low	low	low	tg	ht	wh/0535.bmp
67.68	0.72	85	1	1	63	mem	lib	mod	mod	mod	nt	ht	nh/0343_nh.bmp
68.40	0.72	86	1	1	118	mem	con	mod	mod	low	nt	ht	nh/0683_nh.bmp
69.12	0.72	87	3	1	80	per	lib	low	mod	low	nt	cr	nh/0030_nh.bmp
69.84	0.72	88	2	3	1	mem	lib	mod	mod	low	nt	ht	nh/0415_nh.bmp
70.56	0.72	89	1	1	38	mem	lib	low	low	low	nt	ms	nh/0877_nh.bmp
71.28	0.72	90	1	3	15	mem	lib	mod	mod	low	nt	ht	nh/0444_nh.bmp
72.00	0.72	91	3	1	1	per	con	low	mod	low	nt	cr	nh/0454_nh.bmp
72.72	0.72	92	2	4	87	per	con	low	mod	low	tg	ms	wh/0259.bmp
73.44	0.72	93	1	1	61	mem	lib	mod	mod	mod	tg	ht	wh/0490.bmp
74.16	0.72	94	2	1	15	per	con	low	mod	low	nt	cr	nh/0703_nh.bmp
74.88	0.72	95	2	2	51	per	lib	mod	mod	mod	tg	ht	wh/0479.bmp
75.60	0.72	96	1	4	112	per	lib	low	low	low	nt	fa	nh/0916_nh.bmp
76.32	0.72	97	1	3	44	per	lib	low	mod	low	nt	fa	nh/0263_nh.bmp
77.04	0.72	98	3	2	73	mem	lib	mod	mod	low	nt	ht	nh/0390_nh.bmp
77.76	0.72	99	1	1	69	per	lib	low	mod	low	tg	ms	wh/0509.bmp
78.48	0.72	100	3	3	1	mem	lib	mod	mod	low	nt	ht	nh/0415_nh.bmp
79.20	0.72	101	1	2	113	mem	con	mod	mod	mod	nt	ms	nh/0039_nh.bmp
79.92	0.72	102	2	2	75	mem	lib	mod	mod	low	tg	ht	wh/0615.bmp
80.64	0.72	103	1	1	3	per	con	low	mod	low	tg	ms	wh/1000.bmp
81.36	0.72	104	2	3	49	per	lib	mod	mod	mod	tg	ht	wh/0645.bmp
82.08	0.72	105	1	1	51	mem	lib	mod	mod	mod	nt	ms	nh/0705_nh.bmp
82.80	0.72	106	1	2	79	mem	lib	mod	mod	low	tg	ht	wh/0798.bmp
83.52	0.72	107	1	1	54	mem	lib	mod	mod	mod	nt	ht	nh/0538_nh.bmp
84.24	0.72	108	1	4	81	per	con	low	mod	low	nt	cr	nh/0882_nh.bmp
84.96	0.72	109	3	1	15	per	con	low	mod	low	nt	cr	nh/0703_nh.bmp
85.68	0.72	110	1	3	81	per	con	low	low	low	nt	cr	nh/0184_nh.bmp
86.40	0.72	111	2	3	15	mem	lib	mod	mod	low	nt	ht	nh/0444_nh.bmp
87.12	0.72	112	3	4	16	mem	con	mod	mod	low	tg	ht	wh/0323.bmp
87.84	0.72	113	1	3	11	mem	lib	mod	mod	low	tg	ht	wh/1013.bmp
88.56	0.72	114	1	1	52	mem	lib	mod	mod	mod	nt	ht	nh/0151_nh.bmp
89.28	0.72	115	3	3	15	mem	lib	mod	mod	low	nt	ht	nh/0444_nh.bmp
90.00	0.72	116	2	1	81	per	con	mod	mod	mod	nt	cr	nh/0365_nh.bmp
90.72	0.72	117	1	1	67	per	lib	low	mod	low	nt	cr	nh/0246_nh.bmp
91.44	0.72	118	1	1	124	mem	con	mod	mod	low	tg	ht	wh/0174.bmp
92.16	0.72	119	2	1	91	per	con	mod	mod	mod	tg	ht	wh/0943.bmp
92.88	0.72	120	2	1	58	mem	lib	mod	mod	mod	tg	ht	wh/0445.bmp
93.60	0.72	121	1	1	13	per	con	low	mod	low	tg	ms	wh/0283.bmp
94.32	0.72	122	1	2	126	mem	con	mod	mod	mod	nt	ht	nh/0861_nh.bmp
95.04	0.72	123	2	4	38	per	con	mod	mod	mod	nt	cr	nh/0799_nh.bmp
95.76	0.72	124	1	4	42	per	con	mod	mod	mod	tg	ht	wh/0313.bmp
96.48	0.72	125	3	3	73	mem	con	mod	mod	mod	tg	ht	wh/0348.bmp
97.20	0.72	126	1	1	119	mem	con	mod	mod	low	tg	ms	wh/0067.bmp
97.92	0.72	127	1	4	126	mem	lib	low	low	mod	tg	ht	wh/0858.bmp
98.64	0.72	128	1	2	96	mem	lib	low	low	mod	tg	ht	wh/0409.bmp
99.36	0.72	129	1	4	10	mem	con	mod	mod	low	nt	ht	nh/0124_nh.bmp
100.08	0.72	130	3	1	58	mem	lib	mod	mod	mod	tg	ht	wh/0445.bmp
100.80	0.72	131	1	4	84	per	con	low	mod	low	tg	ms	wh/0422.bmp
101.52	0.72	132	1	3	12	mem	lib	mod	mod	low	tg	ht	wh/0791.bmp
102.24	0.72	133	1	3	99	mem	lib	low	low	low	nt	ht	nh/0363_nh.bmp
102.96	0.72	134	4	3	15	mem	lib	mod	mod	low	nt	ht	nh/0444_nh.bmp
103.68	0.72	135	2	1	52	mem	lib	mod	mod	mod	nt	ht	nh/0151_nh.bmp
104.40	0.72	136	1	3	10	mem	lib	mod	mod	low	nt	ht	nh/0295_nh.bmp
105.12	0.72	137	1	2	17	mem	con	low	low	mod	tg	ms	wh/0214.bmp
105.84	0.72	138	1	4	21	mem	lib	mod	mod	mod	tg	ht	wh/0487.bmp
106.56	0.72	139	1	2	61	per	lib	mod	mod	mod	nt	fa	nh/0448_nh.bmp
107.28	0.72	140	3	2	68	mem	lib	mod	mod	low	nt	ht	nh/0523_nh.bmp
108.00	0.72	141	2	1	61	mem	lib	mod	mod	mod	tg	ht	wh/0490.bmp
108.72	0.72	142	2	1	118	mem	con	mod	mod	low	nt	ht	nh/0683_nh.bmp
109.44	0.72	143	1	3	72	mem	con	mod	mod	mod	nt	ht	nh/0761_nh.bmp
110.16	0.72	144	1	1	100	per	lib	mod	low	mod	nt	cr	nh/0317_nh.bmp
110.88	0.72	145	1	1	94	per	con	mod	mod	mod	nt	cr	nh/0049_nh.bmp
111.60	0.72	146	1	4	96	per	con	low	mod	low	tg	ms	wh/0672.bmp
112.32	0.72	147	2	1	125	mem	con	mod	mod	low	nt	ht	nh/0976_nh.bmp
113.04	0.72	148	1	4	91	per	con	low	mod	low	tg	ms	wh/0671.bmp
113.76	0.72	149	1	3	23	per	con	mod	low	mod	nt	cr	nh/0069_nh.bmp
114.48	0.72	150	3	1	4	per	con	low	mod	low	nt	cr	nh/0641_nh.bmp
115.20	0.72	151	2	1	63	mem	lib	mod	mod	mod	nt	ht	nh/0343_nh.bmp
115.92	0.72	152	1	1	105	per	lib	mod	low	mod	nt	cr	nh/0985_nh.bmp
116.64	0.72	153	1	4	41	per	con	mod	mod	mod	nt	cr	nh/0628_nh.bmp
117.36	0.72	154	1	4	35	per	con	mod	mod	mod	tg	ht	wh/0359.bmp
118.08	0.72	155	2	4	92	per	con	low	mod	low	nt	cr	nh/0302_nh.bmp
118.80	0.72	156	1	3	39	per	lib	low	mod	low	tg	ht	wh/0554.bmp
119.52	0.72	157	2	1	94	per	con	mod	mod	mod	nt	cr	nh/0049_nh.bmp
120.24	0.72	158	1	1	71	per	lib	low	mod	low	tg	ms	wh/0315.bmp
120.96	0.72	159	2	2	66	mem	lib	mod	mod	low	nt	ht	nh/0131_nh.bmp
121.68	0.72	160	1	2	114	mem	con	mod	mod	mod	tg	ht	wh/0344.bmp
122.40	0.72	161	2	3	16	mem	lib	mod	mod	low	tg	ht	wh/0494.bmp
123.12	0.72	162	1	1	65	per	lib	low	mod	low	tg	ms	wh/0081.bmp
123.84	0.72	163	1	1	121	mem	con	mod	mod	low	nt	ht	nh/0512_nh.bmp
124.56	0.72	164	1	2	90	mem	lib	low	low	mod	nt	ht	nh/0457_nh.bmp
125.28	0.72	165	1	3	79	mem	con	mod	mod	mod	nt	ms	nh/0413_nh.bmp
126.00	0.72	166	3	1	118	mem	con	mod	mod	low	nt	ht	nh/0683_nh.bmp
126.72	0.72	167	1	3	56	per	lib	mod	mod	mod	tg	ms	wh/0665.bmp
127.44	0.72	168	2	3	12	mem	lib	mod	mod	low	tg	ht	wh/0791.bmp
128.16	0.72	169	3	2	75	mem	lib	mod	mod	low	tg	ht	wh/0615.bmp
128.88	0.72	170	2	2	80	mem	lib	mod	mod	low	tg	ht	wh/0424.bmp
129.60	0.72	171	2	3	56	per	lib	mod	mod	mod	tg	ms	wh/0665.bmp
130.32	0.72	172	2	2	113	mem	con	mod	mod	mod	nt	ms	nh/0039_nh.bmp
131.04	0.72	173	2	1	71	per	lib	low	mod	low	tg	ms	wh/0315.bmp
131.76	0.72	174	3	1	91	per	con	mod	mod	mod	tg	ht	wh/0943.bmp
132.48	0.72	175	1	1	5	per	con	low	mod	low	nt	cr	nh/0132_nh.bmp
133.20	0.72	176	2	4	35	per	con	mod	mod	mod	tg	ht	wh/0359.bmp
133.92	0.72	177	1	2	60	per	lib	mod	mod	mod	nt	fa	nh/0229_nh.bmp
134.64	0.72	178	1	4	18	mem	lib	mod	mod	mod	nt	ht	nh/0071_nh.bmp
135.36	0.72	179	1	3	122	mem	con	low	low	mod	nt	ht	nh/0470_nh.bmp
136.08	0.72	180	4	2	75	mem	lib	mod	mod	low	tg	ht	wh/0615.bmp
136.80	0.72	181	3	1	94	per	con	mod	mod	mod	nt	cr	nh/0049_nh.bmp
137.52	0.72	182	2	1	121	mem	con	mod	mod	low	nt	ht	nh/0512_nh.bmp
138.24	0.72	183	2	1	3	per	con	low	mod	low	tg	ms	wh/1000.bmp
138.96	0.72	184	2	1	13	per	con	low	mod	low	tg	ms	wh/0283.bmp
139.68	0.72	185	2	3	60	per	lib	mod	mod	mod	tg	ht	wh/0925.bmp
140.40	0.72	186	2	1	5	per	con	low	mod	low	nt	cr	nh/0132_nh.bmp
141.12	0.72	187	2	4	31	mem	lib	mod	mod	mod	nt	ht	nh/0320_nh.bmp
141.84	0.72	188	3	4	31	mem	lib	mod	mod	mod	nt	ht	nh/0320_nh.bmp
142.56	0.72	189	1	4	45	per	con	mod	mod	mod	tg	ms	wh/0097.bmp
143.28	0.72	190	1	3	37	per	lib	low	mod	low	tg	ms	wh/0765.bmp
144.00	0.72	191	2	1	74	per	lib	low	mod	low	tg	ms	wh/0575.bmp
144.72	0.72	192	2	4	48	per	con	mod	mod	mod	tg	ht	wh/0331.bmp
145.44	0.72	193	1	4	13	mem	con	mod	mod	low	nt	ht	nh/0661_nh.bmp
146.16	0.72	194	3	2	113	mem	con	mod	mod	mod	nt	ms	nh/0039_nh.bmp
146.88	0.72	195	2	1	124	mem	con	mod	mod	low	tg	ht	wh/0174.bmp
147.60	0.72	196	2	4	13	mem	con	mod	mod	low	nt	ht	nh/0661_nh.bmp
148.32	0.72	197	3	1	71	per	lib	low	mod	low	tg	ms	wh/0315.bmp
149.04	0.72	198	4	1	118	mem	con	mod	mod	low	nt	ht	nh/0683_nh.bmp
149.76	0.72	199	1	4	71	mem	con	low	low	low	nt	ms	nh/0335_nh.bmp
150.48	0.72	200	1	3	34	per	lib	low	mod	low	nt	cr	nh/0412_nh.bmp
151.20	0.72	201	1	3	69	mem	con	mod	mod	mod	tg	ht	wh/0674.bmp
151.92	0.72	202	2	3	10	mem	lib	mod	mod	low	nt	ht	nh/0295_nh.bmp
152.64	0.72	203	1	2	128	mem	con	mod	mod	mod	tg	ht	wh/0834.bmp
153.36	0.72	204	3	2	80	mem	lib	mod	mod	low	tg	ht	wh/0424.bmp
154.08	0.72	205	1	1	93	per	con	mod	mod	mod	tg	ms	wh/0072.bmp
154.80	0.72	206	2	3	5	mem	lib	mod	mod	low	tg	ht	wh/0007.bmp
155.52	0.72	207	1	1	85	per	con	mod	mod	mod	tg	ms	wh/0061.bmp
156.24	0.72	208	4	2	68	mem	lib	mod	mod	low	nt	ht	nh/0523_nh.bmp
156.96	0.72	209	2	3	69	mem	con	mod	mod	mod	tg	ht	wh/0674.bmp
157.68	0.72	210	2	3	39	per	lib	low	mod	low	tg	ht	wh/0554.bmp
158.40	0.72	211	1	3	65	mem	con	mod	mod	mod	tg	ms	wh/0970.bmp
159.12	0.72	212	1	2	109	per	lib	low	low	low	tg	ht	wh/0276.bmp
159.84	0.72	213	1	3	9	mem	lib	mod	mod	low	nt	ms	nh/0312_nh.bmp
160.56	0.72	214	1	2	64	per	lib	mod	mod	mod	tg	ms	wh/0689.bmp
161.28	0.72	215	2	1	87	per	con	mod	mod	mod	tg	ht	wh/0427.bmp
162.00	0.72	216	2	2	127	mem	con	mod	mod	mod	tg	ms	wh/0759.bmp
162.72	0.72	217	2	3	65	mem	con	mod	mod	mod	tg	ms	wh/0970.bmp
163.44	0.72	218	1	3	128	mem	con	low	low	mod	nt	ms	nh/0467_nh.bmp
164.16	0.72	219	1	4	7	mem	con	mod	mod	low	tg	ht	wh/0386.bmp
164.88	0.72	220	2	2	115	mem	con	mod	mod	mod	nt	ht	nh/0477_nh.bmp
165.60	0.72	221	1	4	34	per	con	mod	mod	mod	nt	cr	nh/0333_nh.bmp
166.32	0.72	222	4	1	15	per	con	low	mod	low	nt	cr	nh/0703_nh.bmp
167.04	0.72	223	2	3	37	per	lib	low	mod	low	tg	ms	wh/0765.bmp
167.76	0.72	224	4	1	91	per	con	mod	mod	mod	tg	ht	wh/0943.bmp
168.48	0.72	225	3	2	51	per	lib	mod	mod	mod	tg	ht	wh/0479.bmp
169.20	0.72	226	2	1	67	per	lib	low	mod	low	nt	cr	nh/0246_nh.bmp
169.92	0.72	227	2	2	64	per	lib	mod	mod	mod	tg	ms	wh/0689.bmp
170.64	0.72	228	1	4	29	mem	lib	mod	mod	mod	nt	ht	nh/0742_nh.bmp
171.36	0.72	229	1	3	40	per	lib	low	mod	low	nt	fa	nh/0459_nh.bmp
172.08	0.72	230	2	4	45	per	con	mod	mod	mod	tg	ms	wh/0097.bmp
172.80	0.72	231	5	2	68	mem	lib	mod	mod	low	nt	ht	nh/0523_nh.bmp
173.52	0.72	232	2	3	11	mem	lib	mod	mod	low	tg	ht	wh/1013.bmp
174.24	0.72	233	3	3	65	mem	con	mod	mod	mod	tg	ms	wh/0970.bmp
174.96	0.72	234	1	3	111	mem	lib	low	low	low	tg	ht	wh/0504.bmp
175.68	0.72	235	2	3	79	mem	con	mod	mod	mod	nt	ms	nh/0413_nh.bmp
176.40	0.72	236	3	4	45	per	con	mod	mod	mod	tg	ms	wh/0097.bmp
177.12	0.72	237	2	4	28	mem	lib	mod	mod	mod	nt	ht	nh/0901_nh.bmp
177.84	0.72	238	3	2	64	per	lib	mod	mod	mod	tg	ms	wh/0689.bmp
178.56	0.72	239	4	3	73	mem	con	mod	mod	mod	tg	ht	wh/0348.bmp
179.28	0.72	240	2	1	76	per	lib	low	mod	low	nt	cr	nh/0410_nh.bmp
180.00	0.72	241	1	3	47	per	lib	low	mod	low	tg	ms	wh/0438.bmp
180.72	0.72	242	3	3	16	mem	lib	mod	mod	low	tg	ht	wh/0494.bmp
181.44	0.72	243	2	2	59	per	lib	mod	mod	mod	tg	ht	wh/0806.bmp
182.16	0.72	244	2	3	72	mem	con	mod	mod	mod	nt	ht	nh/0761_nh.bmp
182.88	0.72	245	3	4	13	mem	con	mod	mod	low	nt	ht	nh/0661_nh.bmp
183.60	0.72	246	1	2	108	per	lib	low	low	low	tg	ms	wh/0243.bmp
184.32	0.72	247	1	1	28	mem	con	low	low	low	nt	ms	nh/0264_nh.bmp
185.04	0.72	248	4	1	94	per	con	mod	mod	mod	nt	cr	nh/0049_nh.bmp
185.76	0.72	249	5	1	94	per	con	mod	mod	mod	nt	cr	nh/0049_nh.bmp
186.48	0.72	250	2	4	18	mem	lib	mod	mod	mod	nt	ht	nh/0071_nh.bmp
187.20	0.72	251	2	1	69	per	lib	low	mod	low	tg	ms	wh/0509.bmp
187.92	0.72	252	2	4	7	mem	con	mod	mod	low	tg	ht	wh/0386.bmp
188.64	0.72	253	4	4	13	mem	con	mod	mod	low	nt	ht	nh/0661_nh.bmp
189.36	0.72	254	1	1	114	mem	con	mod	mod	low	tg	ht	wh/0757.bmp
190.08	0.72	255	3	4	7	mem	con	mod	mod	low	tg	ht	wh/0386.bmp
190.80	0.72	256	2	1	54	mem	lib	mod	mod	mod	nt	ht	nh/0538_nh.bmp
191.52	0.72	257	2	3	46	per	lib	low	mod	low	nt	cr	nh/0293_nh.bmp
192.24	0.72	258	5	1	91	per	con	mod	mod	mod	tg	ht	wh/0943.bmp
192.96	0.72	259	3	2	59	per	lib	mod	mod	mod	tg	ht	wh/0806.bmp
193.68	0.72	260	3	2	57	per	lib	mod	mod	mod	nt	cr	nh/0895_nh.bmp
194.40	0.72	261	2	4	10	mem	con	mod	mod	low	nt	ht	nh/0124_nh.bmp
195.12	0.72	262	2	1	65	per	lib	low	mod	low	tg	ms	wh/0081.bmp
195.84	0.72	263	3	3	39	per	lib	low	mod	low	tg	ht	wh/0554.bmp
196.56	0.72	264	2	3	77	mem	con	mod	mod	mod	nt	ht	nh/0983_nh.bmp
197.28	0.72	265	4	2	113	mem	con	mod	mod	mod	nt	ms	nh/0039_nh.bmp
198.00	0.72	266	1	3	117	mem	con	low	low	mod	tg	ht	wh/0050.bmp
198.72	0.72	267	3	4	92	per	con	low	mod	low	nt	cr	nh/0302_nh.bmp
199.44	0.72	268	3	3	5	mem	lib	mod	mod	low	tg	ht	wh/0007.bmp
200.16	0.72	269	1	3	63	per	lib	mod	mod	mod	nt	fa	nh/0738_nh.bmp
200.88	0.72	270	2	2	114	mem	con	mod	mod	mod	tg	ht	wh/0344.bmp
201.60	0.72	271	2	4	42	per	con	mod	mod	mod	tg	ht	wh/0313.bmp
202.32	0.72	272	4	2	59	per	lib	mod	mod	mod	tg	ht	wh/0806.bmp
203.04	0.72	273	4	4	7	mem	con	mod	mod	low	tg	ht	wh/0386.bmp
203.76	0.72	274	1	1	25	mem	con	low	low	low	nt	ms	nh/0484_nh.bmp
204.48	0.72	275	2	4	41	per	con	mod	mod	mod	nt	cr	nh/0628_nh.bmp
205.20	0.72	276	2	2	126	mem	con	mod	mod	mod	nt	ht	nh/0861_nh.bmp
205.92	0.72	277	2	3	57	per	lib	mod	mod	mod	nt	cr	nh/0796_nh.bmp
206.64	0.72	278	3	1	67	per	lib	low	mod	low	nt	cr	nh/0246_nh.bmp
207.36	0.72	279	3	1	124	mem	con	mod	mod	low	tg	ht	wh/0174.bmp
208.08	0.72	280	2	1	51	mem	lib	mod	mod	mod	nt	ms	nh/0705_nh.bmp
208.80	0.72	281	2	2	61	per	lib	mod	mod	mod	nt	fa	nh/0448_nh.bmp
209.52	0.72	282	3	1	2	per	con	low	mod	low	tg	n/a	wh/0195.bmp
210.24	0.72	283	1	2	18	mem	con	low	low	mod	nt	ht	nh/0230_nh.bmp
210.96	0.72	284	4	2	51	per	lib	mod	mod	mod	tg	ht	wh/0479.bmp
211.68	0.72	285	2	1	93	per	con	mod	mod	mod	tg	ms	wh/0072.bmp
212.40	0.72	286	4	2	73	mem	lib	mod	mod	low	nt	ht	nh/0390_nh.bmp
213.12	0.72	287	3	4	4	mem	con	mod	mod	low	nt	ht	nh/0511_nh.bmp
213.84	0.72	288	1	3	90	per	con	low	low	low	tg	ms	wh/0375.bmp
214.56	0.72	289	3	1	61	mem	lib	mod	mod	mod	tg	ht	wh/0490.bmp
215.28	0.72	290	2	4	29	mem	lib	mod	mod	mod	nt	ht	nh/0742_nh.bmp
216.00	0.72	291	3	3	12	mem	lib	mod	mod	low	tg	ht	wh/0791.bmp
216.72	0.72	292	2	3	63	per	lib	mod	mod	mod	nt	fa	nh/0738_nh.bmp
217.44	0.72	293	2	4	81	per	con	low	mod	low	nt	cr	nh/0882_nh.bmp
218.16	0.72	294	4	3	39	per	lib	low	mod	low	tg	ht	wh/0554.bmp
218.88	0.72	295	2	1	86	per	con	mod	mod	mod	nt	cr	nh/0931_nh.bmp
219.60	0.72	296	3	4	87	per	con	low	mod	low	tg	ms	wh/0259.bmp
220.32	0.72	297	2	2	77	mem	lib	mod	mod	low	tg	ht	wh/0236.bmp
221.04	0.72	298	4	1	2	per	con	low	mod	low	tg	n/a	wh/0195.bmp
221.76	0.72	299	1	2	69	mem	lib	mod	mod	low	nt	ht	nh/0291_nh.bmp
222.48	0.72	300	4	1	1	per	con	low	mod	low	nt	cr	nh/0454_nh.bmp
223.20	0.72	301	1	2	124	mem	con	mod	mod	mod	nt	ht	nh/0809_nh.bmp
223.92	0.72	302	1	3	78	mem	con	mod	mod	mod	tg	ht	wh/0583.bmp
224.64	0.72	303	3	1	76	per	lib	low	mod	low	nt	cr	nh/0410_nh.bmp
225.36	0.72	304	1	3	43	per	lib	low	mod	low	tg	ms	wh/0914.bmp
226.08	0.72	305	3	1	125	mem	con	mod	mod	low	nt	ht	nh/0976_nh.bmp
226.80	0.72	306	2	3	40	per	lib	low	mod	low	nt	fa	nh/0459_nh.bmp
227.52	0.72	307	2	4	96	per	con	low	mod	low	tg	ms	wh/0672.bmp
228.24	0.72	308	3	2	126	mem	con	mod	mod	mod	nt	ht	nh/0861_nh.bmp
228.96	0.72	309	3	1	86	per	con	mod	mod	mod	nt	cr	nh/0931_nh.bmp
229.68	0.72	310	3	1	121	mem	con	mod	mod	low	nt	ht	nh/0512_nh.bmp
230.40	0.72	311	2	4	84	per	con	low	mod	low	tg	ms	wh/0422.bmp
231.12	0.72	312	2	3	44	per	lib	low	mod	low	nt	fa	nh/0263_nh.bmp
231.84	0.72	313	4	4	92	per	con	low	mod	low	nt	cr	nh/0302_nh.bmp
232.56	0.72	314	5	1	15	per	con	low	mod	low	nt	cr	nh/0703_nh.bmp
233.28	0.72	315	1	4	25	mem	lib	mod	mod	mod	tg	ht	wh/1006.bmp
234.00	0.72	316	4	3	5	mem	lib	mod	mod	low	tg	ht	wh/0007.bmp
234.72	0.72	317	3	1	3	per	con	low	mod	low	tg	ms	wh/1000.bmp
235.44	0.72	318	4	1	125	mem	con	mod	mod	low	nt	ht	nh/0976_nh.bmp
236.16	0.72	319	4	1	67	per	lib	low	mod	low	nt	cr	nh/0246_nh.bmp
236.88	0.72	320	5	2	73	mem	lib	mod	mod	low	nt	ht	nh/0390_nh.bmp
237.60	0.72	321	2	2	60	per	lib	mod	mod	mod	nt	fa	nh/0229_nh.bmp
238.32	0.72	322	4	1	121	mem	con	mod	mod	low	nt	ht	nh/0512_nh.bmp
239.04	0.72	323	5	1	67	per	lib	low	mod	low	nt	cr	nh/0246_nh.bmp
239.76	0.72	324	3	4	29	mem	lib	mod	mod	mod	nt	ht	nh/0742_nh.bmp
240.48	0.72	325	3	3	60	per	lib	mod	mod	mod	tg	ht	wh/0925.bmp
241.20	0.72	326	1	1	50	mem	lib	mod	mod	mod	tg	ht	wh/0753.bmp
241.92	0.72	327	3	1	96	per	con	mod	mod	mod	nt	cr	nh/0604_nh.bmp
242.64	0.72	328	3	3	49	per	lib	mod	mod	mod	tg	ht	wh/0645.bmp
243.36	0.72	329	3	1	65	per	lib	low	mod	low	tg	ms	wh/0081.bmp
244.08	0.72	330	4	3	65	mem	con	mod	mod	mod	tg	ms	wh/0970.bmp
244.80	0.72	331	2	2	69	mem	lib	mod	mod	low	nt	ht	nh/0291_nh.bmp
245.52	0.72	332	3	1	52	mem	lib	mod	mod	mod	nt	ht	nh/0151_nh.bmp
246.24	0.72	333	3	1	69	per	lib	low	mod	low	tg	ms	wh/0509.bmp
246.96	0.72	334	1	1	40	mem	lib	low	low	low	nt	ht	nh/0026_nh.bmp
247.68	0.72	335	2	4	25	mem	lib	mod	mod	mod	tg	ht	wh/1006.bmp
248.40	0.72	336	5	1	1	per	con	low	mod	low	nt	cr	nh/0454_nh.bmp
249.12	0.72	337	1	3	115	mem	con	low	low	mod	tg	ms	wh/0502.bmp
249.84	0.72	338	3	1	93	per	con	mod	mod	mod	tg	ms	wh/0072.bmp
250.56	0.72	339	3	2	61	per	lib	mod	mod	mod	nt	fa	nh/0448_nh.bmp
251.28	0.72	340	1	1	72	per	lib	low	mod	low	nt	cr	nh/0166_nh.bmp
252.00	0.72	341	1	4	118	mem	lib	low	low	mod	nt	ht	nh/0944_nh.bmp
252.72	0.72	342	3	3	44	per	lib	low	mod	low	nt	fa	nh/0263_nh.bmp
253.44	0.72	343	2	3	9	mem	lib	mod	mod	low	nt	ms	nh/0312_nh.bmp
254.16	0.72	344	1	4	14	mem	con	mod	mod	low	nt	ms	nh/0988_nh.bmp
254.88	0.72	345	2	1	119	mem	con	mod	mod	low	tg	ms	wh/0067.bmp
255.60	0.72	346	4	1	124	mem	con	mod	mod	low	tg	ht	wh/0174.bmp
256.32	0.72	347	4	1	52	mem	lib	mod	mod	mod	nt	ht	nh/0151_nh.bmp
257.04	0.72	348	4	1	4	per	con	low	mod	low	nt	cr	nh/0641_nh.bmp
257.76	0.72	349	1	1	30	mem	con	low	low	low	nt	ms	nh/0565_nh.bmp
258.48	0.72	350	4	4	16	mem	con	mod	mod	low	tg	ht	wh/0323.bmp
259.20	0.72	351	6	1	15	per	con	low	mod	low	nt	cr	nh/0703_nh.bmp
259.92	0.72	352	2	1	85	per	con	mod	mod	mod	tg	ms	wh/0061.bmp
260.64	0.72	353	1	3	19	per	con	mod	low	mod	nt	fa	nh/0854_nh.bmp
261.36	0.72	354	3	3	69	mem	con	mod	mod	mod	tg	ht	wh/0674.bmp
262.08	0.72	355	1	4	23	mem	lib	mod	mod	mod	tg	ht	wh/0576.bmp
262.80	0.72	356	5	1	124	mem	con	mod	mod	low	tg	ht	wh/0174.bmp
263.52	0.72	357	1	4	127	mem	lib	low	low	mod	nt	ht	nh/0991_nh.bmp
264.24	0.72	358	1	3	32	per	con	mod	low	mod	nt	cr	nh/0102_nh.bmp
264.96	0.72	359	1	4	95	per	con	low	mod	low	nt	cr	nh/0496_nh.bmp
265.68	0.72	360	2	3	78	mem	con	mod	mod	mod	tg	ht	wh/0583.bmp
266.40	0.72	361	3	4	41	per	con	mod	mod	mod	nt	cr	nh/0628_nh.bmp
267.12	0.72	362	3	1	63	mem	lib	mod	mod	mod	nt	ht	nh/0343_nh.bmp
267.84	0.72	363	2	4	23	mem	lib	mod	mod	mod	tg	ht	wh/0576.bmp
268.56	0.72	364	4	4	31	mem	lib	mod	mod	mod	nt	ht	nh/0320_nh.bmp
269.28	0.72	365	3	1	119	mem	con	mod	mod	low	tg	ms	wh/0067.bmp
270.00	0.72	366	1	4	86	per	con	low	mod	low	nt	cr	nh/0212_nh.bmp
270.72	0.72	367	2	1	49	mem	lib	mod	mod	mod	tg	ht	wh/0282.bmp
271.44	0.72	368	5	1	118	mem	con	mod	mod	low	nt	ht	nh/0683_nh.bmp
272.16	0.72	369	2	1	50	mem	lib	mod	mod	mod	tg	ht	wh/0753.bmp
272.88	0.72	370	3	4	6	mem	con	mod	mod	low	tg	ht	wh/0368.bmp
273.60	0.72	371	4	1	69	per	lib	low	mod	low	tg	ms	wh/0509.bmp
274.32	0.72	372	1	3	101	mem	lib	low	low	low	nt	ht	nh/0211_nh.bmp
275.04	0.72	373	1	3	93	per	con	low	low	low	tg	ms	wh/0309.bmp
275.76	0.72	374	3	3	10	mem	lib	mod	mod	low	nt	ht	nh/0295_nh.bmp
276.48	0.72	375	3	1	49	mem	lib	mod	mod	mod	tg	ht	wh/0282.bmp
277.20	0.72	376	3	2	127	mem	con	mod	mod	mod	tg	ms	wh/0759.bmp
277.92	0.72	377	4	1	93	per	con	mod	mod	mod	tg	ms	wh/0072.bmp
278.64	0.72	378	3	1	85	per	con	mod	mod	mod	tg	ms	wh/0061.bmp
279.36	0.72	379	1	2	107	per	lib	low	low	low	nt	cr	nh/0356_nh.bmp
280.08	0.72	380	4	1	96	per	con	mod	mod	mod	nt	cr	nh/0604_nh.bmp
280.80	0.72	381	1	2	125	mem	con	mod	mod	mod	tg	ht	wh/0358.bmp
281.52	0.72	382	3	1	5	per	con	low	mod	low	nt	cr	nh/0132_nh.bmp
282.24	0.72	383	6	1	67	per	lib	low	mod	low	nt	cr	nh/0246_nh.bmp
282.96	0.72	384	5	1	96	per	con	mod	mod	mod	nt	cr	nh/0604_nh.bmp
283.68	0.72	385	2	4	21	mem	lib	mod	mod	mod	tg	ht	wh/0487.bmp
284.40	0.72	386	2	2	128	mem	con	mod	mod	mod	tg	ht	wh/0834.bmp
285.12	0.72	387	2	1	10	per	con	low	mod	low	tg	ms	wh/0400.bmp
285.84	0.72	388	3	3	63	per	lib	mod	mod	mod	nt	fa	nh/0738_nh.bmp
286.56	0.72	389	3	4	10	mem	con	mod	mod	low	nt	ht	nh/0124_nh.bmp
287.28	0.72	390	3	1	51	mem	lib	mod	mod	mod	nt	ms	nh/0705_nh.bmp
288.00	0.72	391	1	3	55	per	lib	mod	mod	mod	tg	ht	wh/0279.bmp
288.72	0.72	392	2	4	86	per	con	low	mod	low	nt	cr	nh/0212_nh.bmp
289.44	0.72	393	3	4	84	per	con	low	mod	low	tg	ms	wh/0422.bmp
290.16	0.72	394	4	2	126	mem	con	mod	mod	mod	nt	ht	nh/0861_nh.bmp
290.88	0.72	395	2	4	14	mem	con	mod	mod	low	nt	ms	nh/0988_nh.bmp
291.60	0.72	396	3	3	56	per	lib	mod	mod	mod	tg	ms	wh/0665.bmp
292.32	0.72	397	4	1	5	per	con	low	mod	low	nt	cr	nh/0132_nh.bmp
293.04	0.72	398	3	4	38	per	con	mod	mod	mod	nt	cr	nh/0799_nh.bmp
293.76	0.72	399	2	4	30	mem	lib	mod	mod	mod	tg	ht	wh/1010.bmp
294.48	0.72	400	3	4	14	mem	con	mod	mod	low	nt	ms	nh/0988_nh.bmp
295.20	0.72	401	4	1	58	mem	lib	mod	mod	mod	tg	ht	wh/0445.bmp
295.92	0.72	402	3	4	28	mem	lib	mod	mod	mod	nt	ht	nh/0901_nh.bmp
296.64	0.72	403	1	3	104	mem	lib	low	low	low	nt	ht	nh/0245_nh.bmp
297.36	0.72	404	3	3	77	mem	con	mod	mod	mod	nt	ht	nh/0983_nh.bmp
298.08	0.72	405	5	4	13	mem	con	mod	mod	low	nt	ht	nh/0661_nh.bmp
298.80	0.72	406	4	1	119	mem	con	mod	mod	low	tg	ms	wh/0067.bmp
299.52	0.72	407	2	3	43	per	lib	low	mod	low	tg	ms	wh/0914.bmp
300.24	0.72	408	1	3	121	mem	con	low	low	mod	tg	ht	wh/0555.bmp
300.96	0.72	409	4	1	49	mem	lib	mod	mod	mod	tg	ht	wh/0282.bmp
301.68	0.72	410	1	4	61	per	lib	mod	low	mod	tg	ms	wh/0891.bmp
302.40	0.72	411	2	2	125	mem	con	mod	mod	mod	tg	ht	wh/0358.bmp
303.12	0.72	412	4	4	84	per	con	low	mod	low	tg	ms	wh/0422.bmp
303.84	0.72	413	4	4	10	mem	con	mod	mod	low	nt	ht	nh/0124_nh.bmp
304.56	0.72	414	4	4	4	mem	con	mod	mod	low	nt	ht	nh/0511_nh.bmp
305.28	0.72	415	3	3	78	mem	con	mod	mod	mod	tg	ht	wh/0583.bmp
306.00	0.72	416	2	4	34	per	con	mod	mod	mod	nt	cr	nh/0333_nh.bmp
306.72	0.72	417	2	3	47	per	lib	low	mod	low	tg	ms	wh/0438.bmp
307.44	0.72	418	3	2	115	mem	con	mod	mod	mod	nt	ht	nh/0477_nh.bmp
308.16	0.72	419	5	1	49	mem	lib	mod	mod	mod	tg	ht	wh/0282.bmp
308.88	0.72	420	5	3	39	per	lib	low	mod	low	tg	ht	wh/0554.bmp
309.60	0.72	421	3	4	48	per	con	mod	mod	mod	tg	ht	wh/0331.bmp
310.32	0.72	422	3	3	47	per	lib	low	mod	low	tg	ms	wh/0438.bmp
311.04	0.72	423	2	1	72	per	lib	low	mod	low	nt	cr	nh/0166_nh.bmp
311.76	0.72	424	1	3	75	mem	con	mod	mod	mod	nt	ht	nh/0104_nh.bmp
312.48	0.72	425	1	3	88	per	con	low	low	low	nt	cr	nh/0011_nh.bmp
313.20	0.72	426	4	4	6	mem	con	mod	mod	low	tg	ht	wh/0368.bmp
313.92	0.72	427	4	4	87	per	con	low	mod	low	tg	ms	wh/0259.bmp
314.64	0.72	428	3	4	42	per	con	mod	mod	mod	tg	ht	wh/0313.bmp
315.36	0.72	429	4	2	115	mem	con	mod	mod	mod	nt	ht	nh/0477_nh.bmp
316.08	0.72	430	2	3	75	mem	con	mod	mod	mod	nt	ht	nh/0104_nh.bmp
316.80	0.72	431	1	4	51	per	lib	mod	low	mod	nt	cr	nh/0033_nh.bmp
317.52	0.72	432	2	3	58	per	lib	mod	mod	mod	nt	fa	nh/0137_nh.bmp
318.24	0.72	433	1	2	83	mem	lib	low	low	mod	tg	ht	wh/0085.bmp
318.96	0.72	434	1	3	25	per	con	mod	low	mod	tg	ms	wh/0517.bmp
319.68	0.72	435	3	4	81	per	con	low	mod	low	nt	cr	nh/0882_nh.bmp
320.40	0.72	436	1	3	103	mem	lib	low	low	low	tg	ht	wh/0828.bmp
321.12	0.72	437	3	4	23	mem	lib	mod	mod	mod	tg	ht	wh/0576.bmp
321.84	0.72	438	1	4	54	per	lib	mod	low	mod	nt	cr	nh/0062_nh.bmp
322.56	0.72	439	4	4	14	mem	con	mod	mod	low	nt	ms	nh/0988_nh.bmp
323.28	0.72	440	3	3	43	per	lib	low	mod	low	tg	ms	wh/0914.bmp
324.00	0.72	441	3	1	81	per	con	mod	mod	mod	nt	cr	nh/0365_nh.bmp
324.72	0.72	442	3	1	13	per	con	low	mod	low	tg	ms	wh/0283.bmp
325.44	0.72	443	3	3	40	per	lib	low	mod	low	nt	fa	nh/0459_nh.bmp
326.16	0.72	444	4	3	60	per	lib	mod	mod	mod	tg	ht	wh/0925.bmp
326.88	0.72	445	2	4	95	per	con	low	mod	low	nt	cr	nh/0496_nh.bmp
327.60	0.72	446	3	4	86	per	con	low	mod	low	nt	cr	nh/0212_nh.bmp
328.32	0.72	447	3	3	57	per	lib	mod	mod	mod	nt	cr	nh/0796_nh.bmp
329.04	0.72	448	3	3	46	per	lib	low	mod	low	nt	cr	nh/0293_nh.bmp
329.76	0.72	449	4	4	29	mem	lib	mod	mod	mod	nt	ht	nh/0742_nh.bmp
330.48	0.72	450	1	2	11	per	con	mod	low	mod	tg	ht	wh/1020.bmp
331.20	0.72	451	4	3	10	mem	lib	mod	mod	low	nt	ht	nh/0295_nh.bmp
331.92	0.72	452	5	3	65	mem	con	mod	mod	mod	tg	ms	wh/0970.bmp
332.64	0.72	453	4	1	61	mem	lib	mod	mod	mod	tg	ht	wh/0490.bmp
333.36	0.72	454	4	4	23	mem	lib	mod	mod	mod	tg	ht	wh/0576.bmp
334.08	0.72	455	3	4	35	per	con	mod	mod	mod	tg	ht	wh/0359.bmp
334.80	0.72	456	4	2	61	per	lib	mod	mod	mod	nt	fa	nh/0448_nh.bmp
335.52	0.72	457	4	4	81	per	con	low	mod	low	nt	cr	nh/0882_nh.bmp
336.24	0.72	458	1	4	12	mem	con	mod	mod	low	tg	ht	wh/0203.bmp
336.96	0.72	459	4	2	64	per	lib	mod	mod	mod	tg	ms	wh/0689.bmp
337.68	0.72	460	3	3	58	per	lib	mod	mod	mod	nt	fa	nh/0137_nh.bmp
338.40	0.72	461	3	2	114	mem	con	mod	mod	mod	tg	ht	wh/0344.bmp
339.12	0.72	462	4	1	51	mem	lib	mod	mod	mod	nt	ms	nh/0705_nh.bmp
339.84	0.72	463	5	4	10	mem	con	mod	mod	low	nt	ht	nh/0124_nh.bmp
340.56	0.72	464	3	4	96	per	con	low	mod	low	tg	ms	wh/0672.bmp
341.28	0.72	465	6	4	10	mem	con	mod	mod	low	nt	ht	nh/0124_nh.bmp
342.00	0.72	466	2	4	12	mem	con	mod	mod	low	tg	ht	wh/0203.bmp
342.72	0.72	467	4	2	57	per	lib	mod	mod	mod	nt	cr	nh/0895_nh.bmp
343.44	0.72	468	4	4	41	per	con	mod	mod	mod	nt	cr	nh/0628_nh.bmp
344.16	0.72	469	5	1	52	mem	lib	mod	mod	mod	nt	ht	nh/0151_nh.bmp
344.88	0.72	470	3	4	21	mem	lib	mod	mod	mod	tg	ht	wh/0487.bmp
345.60	0.72	471	1	2	112	per	lib	low	low	low	tg	ms	wh/0819.bmp
346.32	0.72	472	1	4	74	mem	con	low	low	low	nt	ms	nh/0783_nh.bmp
347.04	0.72	473	1	4	62	per	lib	mod	low	mod	tg	ms	wh/0567.bmp
347.76	0.72	474	2	1	128	mem	con	mod	mod	low	nt	ht	nh/0792_nh.bmp
348.48	0.72	475	1	2	50	per	lib	mod	mod	mod	tg	ms	wh/0592.bmp
349.20	0.72	476	1	4	103	per	lib	low	low	low	nt	fa	nh/0169_nh.bmp
349.92	0.72	477	1	2	5	per	con	mod	low	mod	nt	cr	nh/0606_nh.bmp
350.64	0.72	478	5	3	10	mem	lib	mod	mod	low	nt	ht	nh/0295_nh.bmp
351.36	0.72	479	2	4	91	per	con	low	mod	low	tg	ms	wh/0671.bmp
352.08	0.72	480	4	2	127	mem	con	mod	mod	mod	tg	ms	wh/0759.bmp
352.80	0.72	481	5	3	15	mem	lib	mod	mod	low	nt	ht	nh/0444_nh.bmp
353.52	0.72	482	3	3	75	mem	con	mod	mod	mod	nt	ht	nh/0104_nh.bmp
354.24	0.72	483	5	2	61	per	lib	mod	mod	mod	nt	fa	nh/0448_nh.bmp
354.96	0.72	484	1	4	99	per	lib	low	low	low	nt	cr	nh/0989_nh.bmp
355.68	0.72	485	1	2	10	per	con	mod	low	mod	nt	cr	nh/0346_nh.bmp
356.40	0.72	486	3	4	95	per	con	low	mod	low	nt	cr	nh/0496_nh.bmp
357.12	0.72	487	1	1	43	mem	lib	low	low	low	tg	ht	wh/0713.bmp
357.84	0.72	488	3	3	11	mem	lib	mod	mod	low	tg	ht	wh/1013.bmp
358.56	0.72	489	4	2	80	mem	lib	mod	mod	low	tg	ht	wh/0424.bmp
359.28	0.72	490	3	1	128	mem	con	mod	mod	low	nt	ht	nh/0792_nh.bmp
360.00	0.72	491	3	4	91	per	con	low	mod	low	tg	ms	wh/0671.bmp
360.72	0.72	492	3	2	60	per	lib	mod	mod	mod	nt	fa	nh/0229_nh.bmp
361.44	0.72	493	1	2	7	per	con	mod	low	mod	nt	cr	nh/0993_nh.bmp
362.16	0.72	494	4	3	75	mem	con	mod	mod	mod	nt	ht	nh/0104_nh.bmp
362.88	0.72	495	2	3	55	per	lib	mod	mod	mod	tg	ht	wh/0279.bmp
363.60	0.72	496	6	1	91	per	con	mod	mod	mod	tg	ht	wh/0943.bmp
364.32	0.72	497	4	3	47	per	lib	low	mod	low	tg	ms	wh/0438.bmp
365.04	0.72	498	5	3	5	mem	lib	mod	mod	low	tg	ht	wh/0007.bmp
365.76	0.72	499	2	1	114	mem	con	mod	mod	low	tg	ht	wh/0757.bmp
366.48	0.72	500	6	1	94	per	con	mod	mod	mod	nt	cr	nh/0049_nh.bmp
367.20	0.72	501	3	3	9	mem	lib	mod	mod	low	nt	ms	nh/0312_nh.bmp
367.92	0.72	502	6	1	96	per	con	mod	mod	mod	nt	cr	nh/0604_nh.bmp
368.64	0.72	503	4	1	65	per	lib	low	mod	low	tg	ms	wh/0081.bmp
369.36	0.72	504	1	1	32	mem	con	low	low	low	nt	ms	nh/0632_nh.bmp
370.08	0.72	505	3	4	12	mem	con	mod	mod	low	tg	ht	wh/0203.bmp
370.80	0.72	506	4	3	49	per	lib	mod	mod	mod	tg	ht	wh/0645.bmp
371.52	0.72	507	3	3	37	per	lib	low	mod	low	tg	ms	wh/0765.bmp
372.24	0.72	508	5	4	84	per	con	low	mod	low	tg	ms	wh/0422.bmp
372.96	0.72	509	3	3	79	mem	con	mod	mod	mod	nt	ms	nh/0413_nh.bmp
373.68	0.72	510	4	4	12	mem	con	mod	mod	low	tg	ht	wh/0203.bmp
374.40	0.72	511	5	1	51	mem	lib	mod	mod	mod	nt	ms	nh/0705_nh.bmp
375.12	0.72	512	3	1	74	per	lib	low	mod	low	tg	ms	wh/0575.bmp
375.84	0.72	513	3	1	122	mem	con	mod	mod	low	tg	ht	wh/0643.bmp
376.56	0.72	514	2	4	43	per	con	mod	mod	mod	nt	cr	nh/0562_nh.bmp
377.28	0.72	515	5	4	23	mem	lib	mod	mod	mod	tg	ht	wh/0576.bmp
378.00	0.72	516	5	4	92	per	con	low	mod	low	nt	cr	nh/0302_nh.bmp
378.72	0.72	517	3	2	128	mem	con	mod	mod	mod	tg	ht	wh/0834.bmp
379.44	0.72	518	4	3	77	mem	con	mod	mod	mod	nt	ht	nh/0983_nh.bmp
380.16	0.72	519	4	2	60	per	lib	mod	mod	mod	nt	fa	nh/0229_nh.bmp
380.88	0.72	520	3	1	10	per	con	low	mod	low	tg	ms	wh/0400.bmp
381.60	0.72	521	2	2	50	per	lib	mod	mod	mod	tg	ms	wh/0592.bmp
382.32	0.72	522	5	3	60	per	lib	mod	mod	mod	tg	ht	wh/0925.bmp
383.04	0.72	523	4	1	122	mem	con	mod	mod	low	tg	ht	wh/0643.bmp
383.76	0.72	524	4	3	1	mem	lib	mod	mod	low	nt	ht	nh/0415_nh.bmp
384.48	0.72	525	5	3	75	mem	con	mod	mod	mod	nt	ht	nh/0104_nh.bmp
385.20	0.72	526	1	2	14	per	con	mod	low	mod	nt	cr	nh/0557_nh.bmp
385.92	0.72	527	3	2	66	mem	lib	mod	mod	low	nt	ht	nh/0131_nh.bmp
386.64	0.72	528	6	3	5	mem	lib	mod	mod	low	tg	ht	wh/0007.bmp
387.36	0.72	529	3	2	50	per	lib	mod	mod	mod	tg	ms	wh/0592.bmp
388.08	0.72	530	5	1	65	per	lib	low	mod	low	tg	ms	wh/0081.bmp
388.80	0.72	531	3	4	25	mem	lib	mod	mod	mod	tg	ht	wh/1006.bmp
389.52	0.72	532	1	2	12	per	con	mod	low	mod	tg	ht	wh/0670.bmp
390.24	0.72	533	4	1	85	per	con	mod	mod	mod	tg	ms	wh/0061.bmp
390.96	0.72	534	5	3	1	mem	lib	mod	mod	low	nt	ht	nh/0415_nh.bmp
391.68	0.72	535	3	4	18	mem	lib	mod	mod	mod	nt	ht	nh/0071_nh.bmp
392.40	0.72	536	4	4	18	mem	lib	mod	mod	mod	nt	ht	nh/0071_nh.bmp
393.12	0.72	537	4	1	71	per	lib	low	mod	low	tg	ms	wh/0315.bmp
393.84	0.72	538	5	1	61	mem	lib	mod	mod	mod	tg	ht	wh/0490.bmp
394.56	0.72	539	5	4	87	per	con	low	mod	low	tg	ms	wh/0259.bmp
395.28	0.72	540	1	2	100	per	lib	low	low	low	nt	cr	nh/1003_nh.bmp
396.00	0.72	541	6	3	65	mem	con	mod	mod	mod	tg	ms	wh/0970.bmp
396.72	0.72	542	3	1	54	mem	lib	mod	mod	mod	nt	ht	nh/0538_nh.bmp
397.44	0.72	543	3	2	55	per	lib	mod	mod	mod	nt	cr	nh/0664_nh.bmp
398.16	0.72	544	4	1	13	per	con	low	mod	low	tg	ms	wh/0283.bmp
398.88	0.72	545	1	3	108	mem	lib	low	low	low	nt	ht	nh/0524_nh.bmp
399.60	0.72	546	3	3	72	mem	con	mod	mod	mod	nt	ht	nh/0761_nh.bmp
400.32	0.72	547	4	4	21	mem	lib	mod	mod	mod	tg	ht	wh/0487.bmp
401.04	0.72	548	2	3	34	per	lib	low	mod	low	nt	cr	nh/0412_nh.bmp
401.76	0.72	549	4	4	25	mem	lib	mod	mod	mod	tg	ht	wh/1006.bmp
402.48	0.72	550	5	2	127	mem	con	mod	mod	mod	tg	ms	wh/0759.bmp
403.20	0.72	551	1	3	106	mem	lib	low	low	low	tg	ms	wh/0908.bmp
403.92	0.72	552	4	2	128	mem	con	mod	mod	mod	tg	ht	wh/0834.bmp
404.64	0.72	553	1	4	120	mem	lib	low	low	mod	tg	ht	wh/0719.bmp
405.36	0.72	554	5	1	121	mem	con	mod	mod	low	nt	ht	nh/0512_nh.bmp
406.08	0.72	555	4	3	78	mem	con	mod	mod	mod	tg	ht	wh/0583.bmp
406.80	0.72	556	6	2	127	mem	con	mod	mod	mod	tg	ms	wh/0759.bmp
407.52	0.72	557	5	2	59	per	lib	mod	mod	mod	tg	ht	wh/0806.bmp
408.24	0.72	558	1	4	124	mem	lib	low	low	mod	tg	ht	wh/0886.bmp
408.96	0.72	559	5	2	51	per	lib	mod	mod	mod	tg	ht	wh/0479.bmp
409.68	0.72	560	5	2	113	mem	con	mod	mod	mod	nt	ms	nh/0039_nh.bmp
410.40	0.72	561	4	3	56	per	lib	mod	mod	mod	tg	ms	wh/0665.bmp
411.12	0.72	562	5	4	29	mem	lib	mod	mod	mod	nt	ht	nh/0742_nh.bmp
411.84	0.72	563	3	1	72	per	lib	low	mod	low	nt	cr	nh/0166_nh.bmp
412.56	0.72	564	4	1	128	mem	con	mod	mod	low	nt	ht	nh/0792_nh.bmp
413.28	0.72	565	4	3	46	per	lib	low	mod	low	nt	cr	nh/0293_nh.bmp
414.00	0.72	566	5	4	16	mem	con	mod	mod	low	tg	ht	wh/0323.bmp
414.72	0.72	567	3	3	34	per	lib	low	mod	low	nt	cr	nh/0412_nh.bmp
415.44	0.72	568	4	3	72	mem	con	mod	mod	mod	nt	ht	nh/0761_nh.bmp
416.16	0.72	569	5	4	31	mem	lib	mod	mod	mod	nt	ht	nh/0320_nh.bmp
416.88	0.72	570	4	4	42	per	con	mod	mod	mod	tg	ht	wh/0313.bmp
417.60	0.72	571	2	2	79	mem	lib	mod	mod	low	tg	ht	wh/0798.bmp
418.32	0.72	572	5	2	115	mem	con	mod	mod	mod	nt	ht	nh/0477_nh.bmp
419.04	0.72	573	5	4	21	mem	lib	mod	mod	mod	tg	ht	wh/0487.bmp
419.76	0.72	574	4	3	34	per	lib	low	mod	low	nt	cr	nh/0412_nh.bmp
420.48	0.72	575	5	3	46	per	lib	low	mod	low	nt	cr	nh/0293_nh.bmp
421.20	0.72	576	5	1	4	per	con	low	mod	low	nt	cr	nh/0641_nh.bmp
421.92	0.72	577	4	1	76	per	lib	low	mod	low	nt	cr	nh/0410_nh.bmp
422.64	0.72	578	1	2	93	mem	lib	low	low	mod	nt	ht	nh/0620_nh.bmp
423.36	0.72	579	3	1	50	mem	lib	mod	mod	mod	tg	ht	wh/0753.bmp
424.08	0.72	580	1	3	94	per	con	low	low	low	tg	ms	wh/0505.bmp
424.80	0.72	581	4	1	81	per	con	mod	mod	mod	nt	cr	nh/0365_nh.bmp
425.52	0.72	582	5	1	122	mem	con	mod	mod	low	tg	ht	wh/0643.bmp
426.24	0.72	583	4	1	10	per	con	low	mod	low	tg	ms	wh/0400.bmp
426.96	0.72	584	3	3	54	per	lib	mod	mod	mod	nt	cr	nh/0961_nh.bmp
427.68	0.72	585	5	1	93	per	con	mod	mod	mod	tg	ms	wh/0072.bmp
428.40	0.72	586	5	2	80	mem	lib	mod	mod	low	tg	ht	wh/0424.bmp
429.12	0.72	587	4	2	50	per	lib	mod	mod	mod	tg	ms	wh/0592.bmp
429.84	0.72	588	2	2	124	mem	con	mod	mod	mod	nt	ht	nh/0809_nh.bmp
430.56	0.72	589	4	4	35	per	con	mod	mod	mod	tg	ht	wh/0359.bmp
431.28	0.72	590	4	4	45	per	con	mod	mod	mod	tg	ms	wh/0097.bmp
432.00	0.72	591	1	2	106	per	lib	low	low	low	nt	fa	nh/0824_nh.bmp
432.72	0.72	592	5	1	85	per	con	mod	mod	mod	tg	ms	wh/0061.bmp
433.44	0.72	593	3	2	77	mem	lib	mod	mod	low	tg	ht	wh/0236.bmp
434.16	0.72	594	4	2	66	mem	lib	mod	mod	low	nt	ht	nh/0131_nh.bmp
434.88	0.72	595	3	1	114	mem	con	mod	mod	low	tg	ht	wh/0757.bmp
435.60	0.72	596	5	2	57	per	lib	mod	mod	mod	nt	cr	nh/0895_nh.bmp
436.32	0.72	597	4	4	86	per	con	low	mod	low	nt	cr	nh/0212_nh.bmp
437.04	0.72	598	3	2	125	mem	con	mod	mod	mod	tg	ht	wh/0358.bmp
437.76	0.72	599	3	2	69	mem	lib	mod	mod	low	nt	ht	nh/0291_nh.bmp
438.48	0.72	600	6	1	51	mem	lib	mod	mod	mod	nt	ms	nh/0705_nh.bmp
439.20	0.72	601	4	4	48	per	con	mod	mod	mod	tg	ht	wh/0331.bmp
439.92	0.72	602	4	3	43	per	lib	low	mod	low	tg	ms	wh/0914.bmp
440.64	0.72	603	1	2	1	per	con	mod	low	mod	tg	ms	wh/0667.bmp
441.36	0.72	604	6	3	46	per	lib	low	mod	low	nt	cr	nh/0293_nh.bmp
442.08	0.72	605	1	2	25	mem	con	low	low	mod	nt	ms	nh/0192_nh.bmp
442.80	0.72	606	4	3	9	mem	lib	mod	mod	low	nt	ms	nh/0312_nh.bmp
443.52	0.72	607	3	1	87	per	con	mod	mod	mod	tg	ht	wh/0427.bmp
444.24	0.72	608	4	1	50	mem	lib	mod	mod	mod	tg	ht	wh/0753.bmp
444.96	0.72	609	3	4	34	per	con	mod	mod	mod	nt	cr	nh/0333_nh.bmp
445.68	0.72	610	4	1	86	per	con	mod	mod	mod	nt	cr	nh/0931_nh.bmp
446.40	0.72	611	6	2	115	mem	con	mod	mod	mod	nt	ht	nh/0477_nh.bmp
447.12	0.72	612	5	2	60	per	lib	mod	mod	mod	nt	fa	nh/0229_nh.bmp
447.84	0.72	613	5	2	126	mem	con	mod	mod	mod	nt	ht	nh/0861_nh.bmp
448.56	0.72	614	1	1	104	per	lib	mod	low	mod	tg	ht	wh/0644.bmp
449.28	0.72	615	5	4	25	mem	lib	mod	mod	mod	tg	ht	wh/1006.bmp
450.00	0.72	616	1	3	24	per	con	mod	low	mod	tg	ht	wh/0811.bmp
450.72	0.72	617	3	2	79	mem	lib	mod	mod	low	tg	ht	wh/0798.bmp
451.44	0.72	618	4	3	44	per	lib	low	mod	low	nt	fa	nh/0263_nh.bmp
452.16	0.72	619	3	2	124	mem	con	mod	mod	mod	nt	ht	nh/0809_nh.bmp
452.88	0.72	620	6	4	13	mem	con	mod	mod	low	nt	ht	nh/0661_nh.bmp
453.60	0.72	621	4	3	16	mem	lib	mod	mod	low	tg	ht	wh/0494.bmp
454.32	0.72	622	5	4	6	mem	con	mod	mod	low	tg	ht	wh/0368.bmp
455.04	0.72	623	5	4	35	per	con	mod	mod	mod	tg	ht	wh/0359.bmp
455.76	0.72	624	1	2	45	per	con	low	low	low	nt	cr	nh/0808_nh.bmp
456.48	0.72	625	5	1	10	per	con	low	mod	low	tg	ms	wh/0400.bmp
457.20	0.72	626	1	1	109	per	lib	mod	low	mod	nt	cr	nh/0052_nh.bmp
457.92	0.72	627	6	1	65	per	lib	low	mod	low	tg	ms	wh/0081.bmp
458.64	0.72	628	6	3	39	per	lib	low	mod	low	tg	ht	wh/0554.bmp
459.36	0.72	629	5	3	44	per	lib	low	mod	low	nt	fa	nh/0263_nh.bmp
460.08	0.72	630	6	2	126	mem	con	mod	mod	mod	nt	ht	nh/0861_nh.bmp
460.80	0.72	631	1	3	85	per	con	low	low	low	nt	cr	nh/0987_nh.bmp
461.52	0.72	632	4	4	38	per	con	mod	mod	mod	nt	cr	nh/0799_nh.bmp
462.24	0.72	633	5	3	72	mem	con	mod	mod	mod	nt	ht	nh/0761_nh.bmp
462.96	0.72	634	5	2	50	per	lib	mod	mod	mod	tg	ms	wh/0592.bmp
463.68	0.72	635	3	4	43	per	con	mod	mod	mod	nt	cr	nh/0562_nh.bmp
464.40	0.72	636	4	3	58	per	lib	mod	mod	mod	nt	fa	nh/0137_nh.bmp
465.12	0.72	637	1	4	119	mem	lib	low	low	mod	tg	ht	wh/0440.bmp
465.84	0.72	638	5	1	86	per	con	mod	mod	mod	nt	cr	nh/0931_nh.bmp
466.56	0.72	639	1	2	29	mem	con	low	low	mod	tg	ms	wh/0872.bmp
467.28	0.72	640	4	3	37	per	lib	low	mod	low	tg	ms	wh/0765.bmp
468.00	0.72	641	4	2	79	mem	lib	mod	mod	low	tg	ht	wh/0798.bmp
468.72	0.72	642	6	2	80	mem	lib	mod	mod	low	tg	ht	wh/0424.bmp
469.44	0.72	643	5	3	58	per	lib	mod	mod	mod	nt	fa	nh/0137_nh.bmp
470.16	0.72	644	4	3	54	per	lib	mod	mod	mod	nt	cr	nh/0961_nh.bmp
470.88	0.72	645	5	3	34	per	lib	low	mod	low	nt	cr	nh/0412_nh.bmp
471.60	0.72	646	5	4	81	per	con	low	mod	low	nt	cr	nh/0882_nh.bmp
472.32	0.72	647	4	2	77	mem	lib	mod	mod	low	tg	ht	wh/0236.bmp
473.04	0.72	648	6	4	23	mem	lib	mod	mod	mod	tg	ht	wh/0576.bmp
473.76	0.72	649	5	3	56	per	lib	mod	mod	mod	tg	ms	wh/0665.bmp
474.48	0.72	650	1	4	109	per	lib	low	low	low	tg	ms	wh/0078.bmp
475.20	0.72	651	1	3	20	per	con	mod	low	mod	tg	ht	wh/0917.bmp
475.92	0.72	652	5	3	47	per	lib	low	mod	low	tg	ms	wh/0438.bmp
476.64	0.72	653	4	1	63	mem	lib	mod	mod	mod	nt	ht	nh/0343_nh.bmp
477.36	0.72	654	5	4	38	per	con	mod	mod	mod	nt	cr	nh/0799_nh.bmp
478.08	0.72	655	6	3	44	per	lib	low	mod	low	nt	fa	nh/0263_nh.bmp
478.80	0.72	656	1	4	58	per	lib	mod	low	mod	nt	fa	nh/0003_nh.bmp
479.52	0.72	657	4	1	74	per	lib	low	mod	low	tg	ms	wh/0575.bmp
480.24	0.72	658	5	1	5	per	con	low	mod	low	nt	cr	nh/0132_nh.bmp
480.96	0.72	659	3	4	30	mem	lib	mod	mod	mod	tg	ht	wh/1010.bmp
481.68	0.72	660	4	3	63	per	lib	mod	mod	mod	nt	fa	nh/0738_nh.bmp
482.40	0.72	661	5	4	14	mem	con	mod	mod	low	nt	ms	nh/0988_nh.bmp
483.12	0.72	662	5	1	128	mem	con	mod	mod	low	nt	ht	nh/0792_nh.bmp
483.84	0.72	663	4	3	57	per	lib	mod	mod	mod	nt	cr	nh/0796_nh.bmp
484.56	0.72	664	5	1	71	per	lib	low	mod	low	tg	ms	wh/0315.bmp
485.28	0.72	665	4	2	114	mem	con	mod	mod	mod	tg	ht	wh/0344.bmp
486.00	0.72	666	4	4	96	per	con	low	mod	low	tg	ms	wh/0672.bmp
486.72	0.72	667	5	4	41	per	con	mod	mod	mod	nt	cr	nh/0628_nh.bmp
487.44	0.72	668	4	3	40	per	lib	low	mod	low	nt	fa	nh/0459_nh.bmp
488.16	0.72	669	1	1	22	mem	con	low	low	low	tg	ms	wh/0310.bmp
488.88	0.72	670	1	4	110	per	lib	low	low	low	tg	ht	wh/0250.bmp
489.60	0.72	671	4	3	79	mem	con	mod	mod	mod	nt	ms	nh/0413_nh.bmp
490.32	0.72	672	5	1	119	mem	con	mod	mod	low	tg	ms	wh/0067.bmp
491.04	0.72	673	6	1	119	mem	con	mod	mod	low	tg	ms	wh/0067.bmp
491.76	0.72	674	4	2	124	mem	con	mod	mod	mod	nt	ht	nh/0809_nh.bmp
492.48	0.72	675	6	1	4	per	con	low	mod	low	nt	cr	nh/0641_nh.bmp
493.20	0.72	676	1	1	23	mem	con	low	low	low	tg	ms	wh/0252.bmp
493.92	0.72	677	6	4	38	per	con	mod	mod	mod	nt	cr	nh/0799_nh.bmp
494.64	0.72	678	4	4	43	per	con	mod	mod	mod	nt	cr	nh/0562_nh.bmp
495.36	0.72	679	1	2	26	mem	con	low	low	mod	tg	ht	wh/0894.bmp
496.08	0.72	680	5	3	79	mem	con	mod	mod	mod	nt	ms	nh/0413_nh.bmp
496.80	0.72	681	6	2	73	mem	lib	mod	mod	low	nt	ht	nh/0390_nh.bmp
497.52	0.72	682	4	2	125	mem	con	mod	mod	mod	tg	ht	wh/0358.bmp
498.24	0.72	683	6	1	85	per	con	mod	mod	mod	tg	ms	wh/0061.bmp
498.96	0.72	684	5	3	63	per	lib	mod	mod	mod	nt	fa	nh/0738_nh.bmp
499.68	0.72	685	1	3	118	mem	con	low	low	mod	tg	ms	wh/0813.bmp
500.40	0.72	686	6	1	61	mem	lib	mod	mod	mod	tg	ht	wh/0490.bmp
501.12	0.72	687	5	3	37	per	lib	low	mod	low	tg	ms	wh/0765.bmp
501.84	0.72	688	5	3	49	per	lib	mod	mod	mod	tg	ht	wh/0645.bmp
502.56	0.72	689	5	1	81	per	con	mod	mod	mod	nt	cr	nh/0365_nh.bmp
503.28	0.72	690	5	4	96	per	con	low	mod	low	tg	ms	wh/0672.bmp
504.00	0.72	691	6	4	14	mem	con	mod	mod	low	nt	ms	nh/0988_nh.bmp
504.72	0.72	692	1	1	110	per	lib	mod	low	mod	tg	ms	wh/0498.bmp
505.44	0.72	693	6	1	1	per	con	low	mod	low	nt	cr	nh/0454_nh.bmp
506.16	0.72	694	5	2	66	mem	lib	mod	mod	low	nt	ht	nh/0131_nh.bmp
506.88	0.72	695	5	2	125	mem	con	mod	mod	mod	tg	ht	wh/0358.bmp
507.60	0.72	696	1	4	63	per	lib	mod	low	mod	tg	ht	wh/0754.bmp
508.32	0.72	697	4	1	72	per	lib	low	mod	low	nt	cr	nh/0166_nh.bmp
509.04	0.72	698	1	2	19	mem	con	low	low	mod	tg	ms	wh/0304.bmp
509.76	0.72	699	5	4	45	per	con	mod	mod	mod	tg	ms	wh/0097.bmp
510.48	0.72	700	5	4	42	per	con	mod	mod	mod	tg	ht	wh/0313.bmp
511.20	0.72	701	6	4	25	mem	lib	mod	mod	mod	tg	ht	wh/1006.bmp
511.92	0.72	702	6	1	86	per	con	mod	mod	mod	nt	cr	nh/0931_nh.bmp
512.64	0.72	703	4	1	3	per	con	low	mod	low	tg	ms	wh/1000.bmp
513.36	0.72	704	1	2	98	per	lib	low	low	low	tg	ms	wh/0743.bmp
514.08	0.72	705	5	4	7	mem	con	mod	mod	low	tg	ht	wh/0386.bmp
514.80	0.72	706	6	4	42	per	con	mod	mod	mod	tg	ht	wh/0313.bmp
515.52	0.72	707	6	3	1	mem	lib	mod	mod	low	nt	ht	nh/0415_nh.bmp
516.24	0.72	708	4	4	30	mem	lib	mod	mod	mod	tg	ht	wh/1010.bmp
516.96	0.72	709	5	2	128	mem	con	mod	mod	mod	tg	ht	wh/0834.bmp
517.68	0.72	710	4	1	54	mem	lib	mod	mod	mod	nt	ht	nh/0538_nh.bmp
518.40	0.72	711	3	3	55	per	lib	mod	mod	mod	tg	ht	wh/0279.bmp
519.12	0.72	712	1	4	67	mem	con	low	low	low	nt	ms	nh/0110_nh.bmp
519.84	0.72	713	1	2	91	mem	lib	low	low	mod	nt	ht	nh/0969_nh.bmp
520.56	0.72	714	5	2	114	mem	con	mod	mod	mod	tg	ht	wh/0344.bmp
521.28	0.72	715	4	3	55	per	lib	mod	mod	mod	tg	ht	wh/0279.bmp
522.00	0.72	716	1	2	48	per	con	low	low	low	nt	cr	nh/0492_nh.bmp
522.72	0.72	717	6	1	128	mem	con	mod	mod	low	nt	ht	nh/0792_nh.bmp
523.44	0.72	718	5	4	30	mem	lib	mod	mod	mod	tg	ht	wh/1010.bmp
524.16	0.72	719	5	3	55	per	lib	mod	mod	mod	tg	ht	wh/0279.bmp
524.88	0.72	720	6	2	128	mem	con	mod	mod	mod	tg	ht	wh/0834.bmp
525.60	0.72	721	4	3	12	mem	lib	mod	mod	low	tg	ht	wh/0791.bmp
526.32	0.72	722	5	3	40	per	lib	low	mod	low	nt	fa	nh/0459_nh.bmp
527.04	0.72	723	1	4	100	per	lib	low	low	low	nt	fa	nh/0357_nh.bmp
527.76	0.72	724	1	3	127	mem	con	low	low	mod	nt	ms	nh/0913_nh.bmp
528.48	0.72	725	5	4	12	mem	con	mod	mod	low	tg	ht	wh/0203.bmp
529.20	0.72	726	5	4	48	per	con	mod	mod	mod	tg	ht	wh/0331.bmp
529.92	0.72	727	6	4	29	mem	lib	mod	mod	mod	nt	ht	nh/0742_nh.bmp
530.64	0.72	728	6	1	121	mem	con	mod	mod	low	nt	ht	nh/0512_nh.bmp
531.36	0.72	729	1	4	64	per	lib	mod	low	mod	nt	cr	nh/0630_nh.bmp
532.08	0.72	730	6	4	84	per	con	low	mod	low	tg	ms	wh/0422.bmp
532.80	0.72	731	4	1	87	per	con	mod	mod	mod	tg	ht	wh/0427.bmp
533.52	0.72	732	5	3	43	per	lib	low	mod	low	tg	ms	wh/0914.bmp
534.24	0.72	733	6	3	43	per	lib	low	mod	low	tg	ms	wh/0914.bmp
534.96	0.72	734	5	1	50	mem	lib	mod	mod	mod	tg	ht	wh/0753.bmp
535.68	0.72	735	6	4	16	mem	con	mod	mod	low	tg	ht	wh/0323.bmp
536.40	0.72	736	4	4	28	mem	lib	mod	mod	mod	nt	ht	nh/0901_nh.bmp
537.12	0.72	737	6	3	56	per	lib	mod	mod	mod	tg	ms	wh/0665.bmp
537.84	0.72	738	5	2	75	mem	lib	mod	mod	low	tg	ht	wh/0615.bmp
538.56	0.72	739	6	1	52	mem	lib	mod	mod	mod	nt	ht	nh/0151_nh.bmp
539.28	0.72	740	4	2	69	mem	lib	mod	mod	low	nt	ht	nh/0291_nh.bmp
540.00	0.72	741	5	1	72	per	lib	low	mod	low	nt	cr	nh/0166_nh.bmp
540.72	0.72	742	5	4	28	mem	lib	mod	mod	mod	nt	ht	nh/0901_nh.bmp
541.44	0.72	743	1	2	85	mem	lib	low	low	mod	tg	ht	wh/0201.bmp
542.16	0.72	744	1	3	84	per	con	low	low	low	tg	ht	wh/0911.bmp
542.88	0.72	745	5	4	43	per	con	mod	mod	mod	nt	cr	nh/0562_nh.bmp
543.60	0.72	746	4	2	55	per	lib	mod	mod	mod	nt	cr	nh/0664_nh.bmp
544.32	0.72	747	5	2	64	per	lib	mod	mod	mod	tg	ms	wh/0689.bmp
545.04	0.72	748	1	4	128	mem	lib	low	low	mod	nt	ht	nh/0547_nh.bmp
545.76	0.72	749	4	4	95	per	con	low	mod	low	nt	cr	nh/0496_nh.bmp
546.48	0.72	750	6	1	81	per	con	mod	mod	mod	nt	cr	nh/0365_nh.bmp
547.20	0.72	751	1	1	33	mem	lib	low	low	low	nt	ht	nh/0242_nh.bmp
547.92	0.72	752	6	4	81	per	con	low	mod	low	nt	cr	nh/0882_nh.bmp
548.64	0.72	753	4	1	114	mem	con	mod	mod	low	tg	ht	wh/0757.bmp
549.36	0.72	754	1	3	29	per	con	mod	low	mod	nt	cr	nh/0723_nh.bmp
550.08	0.72	755	6	1	49	mem	lib	mod	mod	mod	tg	ht	wh/0282.bmp
550.80	0.72	756	1	4	79	mem	con	low	low	low	nt	ht	nh/0327_nh.bmp
551.52	0.72	757	6	4	48	per	con	mod	mod	mod	tg	ht	wh/0331.bmp
552.24	0.72	758	6	2	64	per	lib	mod	mod	mod	tg	ms	wh/0689.bmp
552.96	0.72	759	5	1	54	mem	lib	mod	mod	mod	nt	ht	nh/0538_nh.bmp
553.68	0.72	760	1	1	107	per	lib	mod	low	mod	nt	cr	nh/0937_nh.bmp
554.40	0.72	761	5	3	16	mem	lib	mod	mod	low	tg	ht	wh/0494.bmp
555.12	0.72	762	6	4	28	mem	lib	mod	mod	mod	nt	ht	nh/0901_nh.bmp
555.84	0.72	763	5	2	69	mem	lib	mod	mod	low	nt	ht	nh/0291_nh.bmp
556.56	0.72	764	6	1	93	per	con	mod	mod	mod	tg	ms	wh/0072.bmp
557.28	0.72	765	6	4	41	per	con	mod	mod	mod	nt	cr	nh/0628_nh.bmp
558.00	0.72	766	6	3	15	mem	lib	mod	mod	low	nt	ht	nh/0444_nh.bmp
558.72	0.72	767	6	4	96	per	con	low	mod	low	tg	ms	wh/0672.bmp
559.44	0.72	768	1	3	100	mem	lib	low	low	low	tg	ht	wh/0107.bmp
560.16	0.72	769	1	4	69	mem	con	low	low	low	tg	ht	wh/0010.bmp
560.88	0.72	770	5	3	12	mem	lib	mod	mod	low	tg	ht	wh/0791.bmp
561.60	0.72	771	6	1	122	mem	con	mod	mod	low	tg	ht	wh/0643.bmp
562.32	0.72	772	6	3	34	per	lib	low	mod	low	nt	cr	nh/0412_nh.bmp
563.04	0.72	773	5	2	79	mem	lib	mod	mod	low	tg	ht	wh/0798.bmp
563.76	0.72	774	6	3	12	mem	lib	mod	mod	low	tg	ht	wh/0791.bmp
564.48	0.72	775	5	3	77	mem	con	mod	mod	mod	nt	ht	nh/0983_nh.bmp
565.20	0.72	776	5	1	114	mem	con	mod	mod	low	tg	ht	wh/0757.bmp
565.92	0.72	777	6	3	37	per	lib	low	mod	low	tg	ms	wh/0765.bmp
566.64	0.72	778	5	2	55	per	lib	mod	mod	mod	nt	cr	nh/0664_nh.bmp
567.36	0.72	779	6	2	50	per	lib	mod	mod	mod	tg	ms	wh/0592.bmp
568.08	0.72	780	6	2	60	per	lib	mod	mod	mod	nt	fa	nh/0229_nh.bmp
568.80	0.72	781	6	2	59	per	lib	mod	mod	mod	tg	ht	wh/0806.bmp
569.52	0.72	782	6	2	55	per	lib	mod	mod	mod	nt	cr	nh/0664_nh.bmp
570.24	0.72	783	6	4	30	mem	lib	mod	mod	mod	tg	ht	wh/1010.bmp
570.96	0.72	784	5	3	73	mem	con	mod	mod	mod	tg	ht	wh/0348.bmp
571.68	0.72	785	6	3	79	mem	con	mod	mod	mod	nt	ms	nh/0413_nh.bmp
572.40	0.72	786	6	2	61	per	lib	mod	mod	mod	nt	fa	nh/0448_nh.bmp
573.12	0.72	787	6	4	45	per	con	mod	mod	mod	tg	ms	wh/0097.bmp
573.84	0.72	788	6	3	47	per	lib	low	mod	low	tg	ms	wh/0438.bmp
574.56	0.72	789	6	2	75	mem	lib	mod	mod	low	tg	ht	wh/0615.bmp
575.28	0.72	790	5	3	9	mem	lib	mod	mod	low	nt	ms	nh/0312_nh.bmp
576.00	0.72	791	5	1	3	per	con	low	mod	low	tg	ms	wh/1000.bmp
576.72	0.72	792	1	1	27	mem	con	low	low	low	tg	ht	wh/0271.bmp
577.44	0.72	793	6	4	87	per	con	low	mod	low	tg	ms	wh/0259.bmp
578.16	0.72	794	6	4	43	per	con	mod	mod	mod	nt	cr	nh/0562_nh.bmp
578.88	0.72	795	6	4	6	mem	con	mod	mod	low	tg	ht	wh/0368.bmp
579.60	0.72	796	6	3	9	mem	lib	mod	mod	low	nt	ms	nh/0312_nh.bmp
580.32	0.72	797	1	2	34	per	con	low	low	low	tg	ms	wh/0720.bmp
581.04	0.72	798	1	2	92	mem	lib	low	low	mod	nt	ht	nh/0726_nh.bmp
581.76	0.72	799	6	1	5	per	con	low	mod	low	nt	cr	nh/0132_nh.bmp
582.48	0.72	800	4	1	80	per	lib	low	mod	low	nt	cr	nh/0030_nh.bmp
583.20	0.72	801	5	1	74	per	lib	low	mod	low	tg	ms	wh/0575.bmp
583.92	0.72	802	5	1	58	mem	lib	mod	mod	mod	tg	ht	wh/0445.bmp
584.64	0.72	803	6	3	40	per	lib	low	mod	low	nt	fa	nh/0459_nh.bmp
585.36	0.72	804	5	1	87	per	con	mod	mod	mod	tg	ht	wh/0427.bmp
586.08	0.72	805	5	1	76	per	lib	low	mod	low	nt	cr	nh/0410_nh.bmp
586.80	0.72	806	6	4	35	per	con	mod	mod	mod	tg	ht	wh/0359.bmp
587.52	0.72	807	6	3	58	per	lib	mod	mod	mod	nt	fa	nh/0137_nh.bmp
588.24	0.72	808	6	1	10	per	con	low	mod	low	tg	ms	wh/0400.bmp
588.96	0.72	809	5	4	86	per	con	low	mod	low	nt	cr	nh/0212_nh.bmp
589.68	0.72	810	5	3	57	per	lib	mod	mod	mod	nt	cr	nh/0796_nh.bmp
590.40	0.72	811	5	1	69	per	lib	low	mod	low	tg	ms	wh/0509.bmp
591.12	0.72	812	6	2	51	per	lib	mod	mod	mod	tg	ht	wh/0479.bmp
591.84	0.72	813	1	2	37	per	con	low	low	low	tg	ms	wh/0120.bmp
592.56	0.72	814	6	1	69	per	lib	low	mod	low	tg	ms	wh/0509.bmp
593.28	0.72	815	6	3	77	mem	con	mod	mod	mod	nt	ht	nh/0983_nh.bmp
594.00	0.72	816	6	2	125	mem	con	mod	mod	mod	tg	ht	wh/0358.bmp
594.72	0.72	817	1	3	26	per	con	mod	low	mod	tg	ms	wh/0773.bmp
595.44	0.72	818	5	3	54	per	lib	mod	mod	mod	nt	cr	nh/0961_nh.bmp
596.16	0.72	819	6	2	68	mem	lib	mod	mod	low	nt	ht	nh/0523_nh.bmp
596.88	0.72	820	6	1	54	mem	lib	mod	mod	mod	nt	ht	nh/0538_nh.bmp
597.60	0.72	821	6	3	72	mem	con	mod	mod	mod	nt	ht	nh/0761_nh.bmp
598.32	0.72	822	1	4	80	mem	con	low	low	low	tg	ms	wh/0369.bmp
599.04	0.72	823	5	2	77	mem	lib	mod	mod	low	tg	ht	wh/0236.bmp
599.76	0.72	824	1	2	20	mem	con	low	low	mod	nt	ht	nh/0004_nh.bmp
600.48	0.72	825	5	1	125	mem	con	mod	mod	low	nt	ht	nh/0976_nh.bmp
601.20	0.72	826	6	1	76	per	lib	low	mod	low	nt	cr	nh/0410_nh.bmp
601.92	0.72	827	6	1	72	per	lib	low	mod	low	nt	cr	nh/0166_nh.bmp
602.64	0.72	828	6	3	49	per	lib	mod	mod	mod	tg	ht	wh/0645.bmp
603.36	0.72	829	6	1	50	mem	lib	mod	mod	mod	tg	ht	wh/0753.bmp
604.08	0.72	830	4	3	69	mem	con	mod	mod	mod	tg	ht	wh/0674.bmp
604.80	0.72	831	5	4	18	mem	lib	mod	mod	mod	nt	ht	nh/0071_nh.bmp
605.52	0.72	832	1	3	123	mem	con	low	low	mod	nt	ht	nh/0208_nh.bmp
606.24	0.72	833	5	1	2	per	con	low	mod	low	tg	n/a	wh/0195.bmp
606.96	0.72	834	6	1	118	mem	con	mod	mod	low	nt	ht	nh/0683_nh.bmp
607.68	0.72	835	6	2	69	mem	lib	mod	mod	low	nt	ht	nh/0291_nh.bmp
608.40	0.72	836	5	3	69	mem	con	mod	mod	mod	tg	ht	wh/0674.bmp
609.12	0.72	837	5	1	63	mem	lib	mod	mod	mod	nt	ht	nh/0343_nh.bmp
609.84	0.72	838	6	4	7	mem	con	mod	mod	low	tg	ht	wh/0386.bmp
610.56	0.72	839	6	3	57	per	lib	mod	mod	mod	nt	cr	nh/0796_nh.bmp
611.28	0.72	840	6	1	74	per	lib	low	mod	low	tg	ms	wh/0575.bmp
612.00	0.72	841	4	4	91	per	con	low	mod	low	tg	ms	wh/0671.bmp
612.72	0.72	842	6	4	18	mem	lib	mod	mod	mod	nt	ht	nh/0071_nh.bmp
613.44	0.72	843	6	4	92	per	con	low	mod	low	nt	cr	nh/0302_nh.bmp
614.16	0.72	844	5	4	95	per	con	low	mod	low	nt	cr	nh/0496_nh.bmp
614.88	0.72	845	6	4	95	per	con	low	mod	low	nt	cr	nh/0496_nh.bmp
615.60	0.72	846	6	3	69	mem	con	mod	mod	mod	tg	ht	wh/0674.bmp
616.32	0.72	847	6	1	87	per	con	mod	mod	mod	tg	ht	wh/0427.bmp
617.04	0.72	848	1	2	42	per	con	low	low	low	tg	ht	wh/0130.bmp
617.76	0.72	849	6	4	12	mem	con	mod	mod	low	tg	ht	wh/0203.bmp
618.48	0.72	850	5	4	91	per	con	low	mod	low	tg	ms	wh/0671.bmp
619.20	0.72	851	4	4	34	per	con	mod	mod	mod	nt	cr	nh/0333_nh.bmp
619.92	0.72	852	5	2	124	mem	con	mod	mod	mod	nt	ht	nh/0809_nh.bmp
620.64	0.72	853	6	2	66	mem	lib	mod	mod	low	nt	ht	nh/0131_nh.bmp
621.36	0.72	854	6	3	16	mem	lib	mod	mod	low	tg	ht	wh/0494.bmp
622.08	0.72	855	1	2	104	per	lib	low	low	low	nt	fa	nh/0314_nh.bmp
622.80	0.72	856	5	4	4	mem	con	mod	mod	low	nt	ht	nh/0511_nh.bmp
623.52	0.72	857	6	2	57	per	lib	mod	mod	mod	nt	cr	nh/0895_nh.bmp
624.24	0.72	858	6	2	77	mem	lib	mod	mod	low	tg	ht	wh/0236.bmp
624.96	0.72	859	6	4	4	mem	con	mod	mod	low	nt	ht	nh/0511_nh.bmp
625.68	0.72	860	6	3	73	mem	con	mod	mod	mod	tg	ht	wh/0348.bmp
626.40	0.72	861	6	1	3	per	con	low	mod	low	tg	ms	wh/1000.bmp
627.12	0.72	862	6	1	124	mem	con	mod	mod	low	tg	ht	wh/0174.bmp
627.84	0.72	863	5	4	34	per	con	mod	mod	mod	nt	cr	nh/0333_nh.bmp
628.56	0.72	864	6	2	79	mem	lib	mod	mod	low	tg	ht	wh/0798.bmp
629.28	0.72	865	6	3	75	mem	con	mod	mod	mod	nt	ht	nh/0104_nh.bmp
630.00	0.72	866	5	3	78	mem	con	mod	mod	mod	tg	ht	wh/0583.bmp
630.72	0.72	867	6	4	86	per	con	low	mod	low	nt	cr	nh/0212_nh.bmp
631.44	0.72	868	6	1	71	per	lib	low	mod	low	tg	ms	wh/0315.bmp
632.16	0.72	869	4	3	11	mem	lib	mod	mod	low	tg	ht	wh/1013.bmp
632.88	0.72	870	6	4	21	mem	lib	mod	mod	mod	tg	ht	wh/0487.bmp
633.60	0.72	871	5	1	13	per	con	low	mod	low	tg	ms	wh/0283.bmp
634.32	0.72	872	6	1	13	per	con	low	mod	low	tg	ms	wh/0283.bmp
635.04	0.72	873	6	1	58	mem	lib	mod	mod	mod	tg	ht	wh/0445.bmp
635.76	0.72	874	6	2	114	mem	con	mod	mod	mod	tg	ht	wh/0344.bmp
636.48	0.72	875	6	1	63	mem	lib	mod	mod	mod	nt	ht	nh/0343_nh.bmp
637.20	0.72	876	5	3	11	mem	lib	mod	mod	low	tg	ht	wh/1013.bmp
637.92	0.72	877	1	2	89	mem	lib	low	low	mod	tg	ht	wh/0474.bmp
638.64	0.72	878	1	1	17	mem	con	low	low	low	tg	ht	wh/0021.bmp
639.36	0.72	879	6	2	124	mem	con	mod	mod	mod	nt	ht	nh/0809_nh.bmp
640.08	0.72	880	5	1	80	per	lib	low	mod	low	nt	cr	nh/0030_nh.bmp
640.80	0.72	881	6	3	55	per	lib	mod	mod	mod	tg	ht	wh/0279.bmp
641.52	0.72	882	6	1	114	mem	con	mod	mod	low	tg	ht	wh/0757.bmp
642.24	0.72	883	6	1	125	mem	con	mod	mod	low	nt	ht	nh/0976_nh.bmp
642.96	0.72	884	6	4	91	per	con	low	mod	low	tg	ms	wh/0671.bmp
643.68	0.72	885	6	2	113	mem	con	mod	mod	mod	nt	ms	nh/0039_nh.bmp
644.40	0.72	886	6	1	80	per	lib	low	mod	low	nt	cr	nh/0030_nh.bmp
645.12	0.72	887	6	4	34	per	con	mod	mod	mod	nt	cr	nh/0333_nh.bmp
645.84	0.72	888	6	3	63	per	lib	mod	mod	mod	nt	fa	nh/0738_nh.bmp
646.56	0.72	889	6	4	31	mem	lib	mod	mod	mod	nt	ht	nh/0320_nh.bmp
647.28	0.72	890	1	1	36	mem	lib	low	low	low	tg	ht	wh/0500.bmp
648.00	0.72	891	6	3	60	per	lib	mod	mod	mod	tg	ht	wh/0925.bmp
648.72	0.72	892	6	3	78	mem	con	mod	mod	mod	tg	ht	wh/0583.bmp
649.44	0.72	893	6	3	10	mem	lib	mod	mod	low	nt	ht	nh/0295_nh.bmp
650.16	0.72	894	6	1	2	per	con	low	mod	low	tg	n/a	wh/0195.bmp
650.88	0.72	895	6	3	11	mem	lib	mod	mod	low	tg	ht	wh/1013.bmp
651.60	0.72	896	6	3	54	per	lib	mod	mod	mod	nt	cr	nh/0961_nh.bmp
