onset	duration	trial	pres	ts_blk	ts_trl	task	crit	disc	mem_disc	per_disc	per_type	accuracy	stim_file
7.20	0.72	1	1	8	55	mem	con	mod	mod	mod	tg	ht	wh/0973.bmp
7.92	0.72	2	1	5	19	mem	con	mod	mod	low	nt	ht	nh/0238_nh.bmp
8.64	0.72	3	1	7	31	mem	lib	low	low	low	nt	ht	nh/0528_nh.bmp
9.36	0.72	4	1	5	121	mem	lib	low	low	mod	nt	ht	nh/0306_nh.bmp
10.08	0.72	5	1	6	27	per	con	mod	mod	mod	nt	cr	nh/0222_nh.bmp
10.80	0.72	6	1	6	108	per	con	low	mod	low	tg	ms	wh/0758.bmp
11.52	0.72	7	1	8	102	mem	lib	mod	mod	mod	nt	ht	nh/0748_nh.bmp
12.24	0.72	8	1	6	90	mem	con	mod	mod	mod	nt	ms	nh/0497_nh.bmp
12.96	0.72	9	1	7	68	mem	con	mod	mod	low	nt	ht	nh/0503_nh.bmp
13.68	0.72	10	2	6	27	per	con	mod	mod	mod	nt	cr	nh/0222_nh.bmp
14.40	0.72	11	1	6	105	per	con	low	mod	low	tg	ms	wh/0256.bmp
15.12	0.72	12	1	8	100	mem	lib	mod	mod	mod	tg	ht	wh/0558.bmp
15.84	0.72	13	1	5	9	mem	con	low	low	low	nt	ht	nh/0483_nh.bmp
16.56	0.72	14	1	6	17	per	con	mod	mod	mod	nt	cr	nh/0874_nh.bmp
17.28	0.72	15	1	6	88	mem	con	mod	mod	mod	nt	ht	nh/0843_nh.bmp
18.00	0.72	16	1	8	89	per	con	mod	mod	mod	tg	ht	wh/0650.bmp
18.72	0.72	17	1	6	56	mem	lib	mod	mod	mod	tg	ms	wh/0591.bmp
19.44	0.72	18	1	8	63	mem	con	mod	mod	mod	nt	ms	nh/0563_nh.bmp
20.16	0.72	19	1	8	39	per	lib	low	mod	low	nt	fa	nh/0690_nh.bmp
20.88	0.72	20	1	6	35	mem	lib	low	low	low	tg	ht	wh/0266.bmp
21.60	0.72	21	1	8	30	mem	lib	low	low	mod	tg	n/a	wh/0762.bmp
22.32	0.72	22	1	8	60	mem	con	mod	mod	mod	nt	ht	nh/0548_nh.bmp
23.04	0.72	23	1	7	92	per	lib	low	low	low	tg	ht	wh/0053.bmp
23.76	0.72	24	1	5	109	mem	lib	mod	mod	low	nt	ht	nh/0493_nh.bmp
24.48	0.72	25	1	6	30	per	con	mod	mod	mod	tg	ms	wh/0855.bmp
25.20	0.72	26	1	5	28	mem	con	mod	mod	low	nt	ht	nh/0125_nh.bmp
25.92	0.72	27	1	5	42	per	lib	mod	mod	mod	nt	cr	nh/0446_nh.bmp
26.64	0.72	28	1	8	110	mem	lib	mod	mod	mod	tg	ht	wh/0350.bmp
27.36	0.72	29	1	8	78	per	lib	mod	mod	mod	nt	fa	nh/0803_nh.bmp
28.08	0.72	30	1	5	87	per	lib	low	mod	low	nt	cr	nh/0963_nh.bmp
28.80	0.72	31	2	8	89	per	con	mod	mod	mod	tg	ht	wh/0650.bmp
29.52	0.72	32	1	8	64	mem	con	mod	mod	mod	tg	ms	wh/0947.bmp
30.24	0.72	33	1	5	2	mem	con	low	low	low	tg	ms	wh/0710.bmp
30.96	0.72	34	1	7	61	per	lib	mod	low	mod	tg	ht	wh/0736.bmp
31.68	0.72	35	1	5	86	per	lib	low	mod	low	tg	ms	wh/0080.bmp
32.40	0.72	36	1	5	35	per	lib	mod	mod	mod	nt	cr	nh/0714_nh.bmp
33.12	0.72	37	1	8	96	per	con	mod	mod	mod	tg	ms	wh/0904.bmp
33.84	0.72	38	1	5	80	per	con	low	low	low	tg	ms	wh/0998.bmp
34.56	0.72	39	3	6	27	per	con	mod	mod	mod	nt	cr	nh/0222_nh.bmp
35.28	0.72	40	1	5	100	mem	lib	mod	mod	low	nt	ht	nh/0934_nh.bmp
36.00	0.72	41	1	6	76	per	lib	low	low	low	nt	fa	nh/0437_nh.bmp
36.72	0.72	42	1	5	70	per	con	low	low	low	nt	cr	nh/0956_nh.bmp
37.44	0.72	43	1	7	77	mem	con	mod	mod	low	tg	ht	wh/0489.bmp
38.16	0.72	44	2	6	108	per	con	low	mod	low	tg	ms	wh/0758.bmp
38.88	0.72	45	1	6	81	mem	con	mod	mod	mod	tg	ht	wh/0876.bmp
39.60	0.72	46	1	5	30	mem	con	mod	mod	low	tg	ht	wh/0190.bmp
40.32	0.72	47	1	8	88	per	con	mod	mod	mod	tg	ms	wh/0182.bmp
41.04	0.72	48	1	8	22	mem	lib	low	low	mod	nt	ht	nh/0068_nh.bmp
41.76	0.72	49	1	5	96	per	lib	low	mod	low	nt	fa	nh/0660_nh.bmp
42.48	0.72	50	1	6	92	mem	con	mod	mod	mod	tg	ht	wh/0095.bmp
43.20	0.72	51	1	7	104	mem	lib	mod	mod	low	nt	ht	nh/0153_nh.bmp
43.92	0.72	52	1	8	71	per	lib	mod	mod	mod	tg	ht	wh/0807.bmp
44.64	0.72	53	1	8	54	mem	con	mod	mod	mod	tg	ms	wh/0462.bmp
45.36	0.72	54	1	6	38	mem	lib	low	low	low	nt	ht	nh/0536_nh.bmp
46.08	0.72	55	1	8	109	mem	lib	mod	mod	mod	tg	ms	wh/0339.bmp
46.80	0.72	56	1	5	21	mem	con	mod	mod	low	tg	ms	wh/0074.bmp
47.52	0.72	57	2	5	87	per	lib	low	mod	low	nt	cr	nh/0963_nh.bmp
48.24	0.72	58	1	5	90	per	lib	low	mod	low	nt	fa	nh/0035_nh.bmp
48.96	0.72	59	1	8	107	mem	lib	mod	mod	mod	tg	ht	wh/0593.bmp
49.68	0.72	60	1	5	82	per	lib	low	mod	low	nt	fa	nh/0194_nh.bmp
50.40	0.72	61	1	7	65	mem	con	mod	mod	low	tg	ms	wh/0893.bmp
51.12	0.72	62	2	5	35	per	lib	mod	mod	mod	nt	cr	nh/0714_nh.bmp
51.84	0.72	63	1	6	52	mem	lib	mod	mod	mod	nt	ht	nh/0380_nh.bmp
52.56	0.72	64	1	5	43	per	lib	mod	mod	mod	tg	ms	wh/0543.bmp
53.28	0.72	65	1	6	25	per	con	mod	mod	mod	nt	cr	nh/0941_nh.bmp
54.00	0.72	66	2	5	96	per	lib	low	mod	low	nt	fa	nh/0660_nh.bmp
54.72	0.72	67	1	8	90	per	con	mod	mod	mod	tg	ms	wh/0810.bmp
55.44	0.72	68	1	6	58	mem	lib	mod	mod	mod	tg	ht	wh/0902.bmp
56.16	0.72	69	1	8	7	per	con	low	mod	low	tg	ms	wh/0382.bmp
56.88	0.72	70	1	6	100	per	con	low	mod	low	nt	cr	nh/0404_nh.bmp
57.60	0.72	71	1	8	106	mem	lib	mod	mod	mod	nt	ht	nh/0946_nh.bmp
58.32	0.72	72	2	5	109	mem	lib	mod	mod	low	nt	ht	nh/0493_nh.bmp
59.04	0.72	73	1	7	69	mem	con	mod	mod	low	nt	ms	nh/0568_nh.bmp
59.76	0.72	74	2	8	54	mem	con	mod	mod	mod	tg	ms	wh/0462.bmp
60.48	0.72	75	1	8	12	per	con	low	mod	low	tg	ms	wh/0329.bmp
61.20	0.72	76	1	6	99	per	con	low	mod	low	nt	cr	nh/0744_nh.bmp
61.92	0.72	77	1	7	30	mem	lib	low	low	low	nt	ht	nh/0148_nh.bmp
62.64	0.72	78	3	8	54	mem	con	mod	mod	mod	tg	ms	wh/0462.bmp
63.36	0.72	79	2	8	12	per	con	low	mod	low	tg	ms	wh/0329.bmp
64.08	0.72	80	4	6	27	per	con	mod	mod	mod	nt	cr	nh/0222_nh.bmp
64.80	0.72	81	2	7	77	mem	con	mod	mod	low	tg	ht	wh/0489.bmp
65.52	0.72	82	1	6	16	per	lib	mod	low	mod	nt	fa	nh/0572_nh.bmp
66.24	0.72	83	3	8	12	per	con	low	mod	low	tg	ms	wh/0329.bmp
66.96	0.72	84	1	8	111	mem	lib	mod	mod	mod	nt	ht	nh/0957_nh.bmp
67.68	0.72	85	1	8	72	per	lib	mod	mod	mod	nt	fa	nh/0371_nh.bmp
68.40	0.72	86	1	8	45	per	lib	low	mod	low	nt	cr	nh/0443_nh.bmp
69.12	0.72	87	2	6	30	per	con	mod	mod	mod	tg	ms	wh/0855.bmp
69.84	0.72	88	1	6	95	mem	con	mod	mod	mod	tg	ht	wh/0697.bmp
70.56	0.72	89	1	7	109	mem	lib	mod	mod	low	tg	ht	wh/0079.bmp
71.28	0.72	90	1	5	102	mem	lib	mod	mod	low	nt	ht	nh/0123_nh.bmp
72.00	0.72	91	1	5	34	per	lib	mod	mod	mod	tg	ht	wh/0680.bmp
72.72	0.72	92	1	7	111	mem	lib	mod	mod	low	tg	ht	wh/0150.bmp
73.44	0.72	93	1	8	23	mem	lib	low	low	mod	tg	ms	wh/0923.bmp
74.16	0.72	94	1	7	38	per	con	low	low	low	tg	ms	wh/0458.bmp
74.88	0.72	95	2	7	104	mem	lib	mod	mod	low	nt	ht	nh/0153_nh.bmp
75.60	0.72	96	1	5	52	per	con	mod	low	mod	tg	ht	wh/0890.bmp
76.32	0.72	97	1	8	25	mem	lib	low	low	mod	nt	ht	nh/0048_nh.bmp
77.04	0.72	98	1	6	23	per	con	mod	mod	mod	nt	cr	nh/0199_nh.bmp
77.76	0.72	99	1	7	28	mem	lib	low	low	low	tg	ms	wh/0999.bmp
78.48	0.72	100	1	7	63	per	lib	mod	low	mod	nt	fa	nh/0849_nh.bmp
79.20	0.72	101	1	6	98	per	con	low	mod	low	tg	ms	wh/0351.bmp
79.92	0.72	102	1	7	34	per	con	low	low	low	tg	ms	wh/0513.bmp
80.64	0.72	103	2	5	90	per	lib	low	mod	low	nt	fa	nh/0035_nh.bmp
81.36	0.72	104	2	6	90	mem	con	mod	mod	mod	nt	ms	nh/0497_nh.bmp
82.08	0.72	105	1	7	71	mem	con	mod	mod	low	tg	ht	wh/0619.bmp
82.80	0.72	106	1	7	15	mem	con	low	low	low	nt	ms	nh/0701_nh.bmp
83.52	0.72	107	1	8	35	per	lib	low	mod	low	nt	cr	nh/0760_nh.bmp
84.24	0.72	108	1	8	11	per	con	low	mod	low	nt	cr	nh/0338_nh.bmp
84.96	0.72	109	1	6	51	mem	lib	mod	mod	mod	tg	ht	wh/0398.bmp
85.68	0.72	110	1	5	4	mem	con	low	low	low	nt	ms	nh/0452_nh.bmp
86.40	0.72	111	1	6	65	per	lib	low	low	low	tg	ht	wh/0013.bmp
87.12	0.72	112	1	6	43	mem	lib	low	low	low	tg	ht	wh/0439.bmp
87.84	0.72	113	1	5	20	mem	con	mod	mod	low	tg	ht	wh/0075.bmp
88.56	0.72	114	2	6	25	per	con	mod	mod	mod	nt	cr	nh/0941_nh.bmp
89.28	0.72	115	2	6	92	mem	con	mod	mod	mod	tg	ht	wh/0095.bmp
90.00	0.72	116	2	7	71	mem	con	mod	mod	low	tg	ht	wh/0619.bmp
90.72	0.72	117	3	5	35	per	lib	mod	mod	mod	nt	cr	nh/0714_nh.bmp
91.44	0.72	118	3	8	89	per	con	mod	mod	mod	tg	ht	wh/0650.bmp
92.16	0.72	119	2	5	100	mem	lib	mod	mod	low	nt	ht	nh/0934_nh.bmp
92.88	0.72	120	2	8	64	mem	con	mod	mod	mod	tg	ms	wh/0947.bmp
93.60	0.72	121	1	8	73	per	lib	mod	mod	mod	tg	ht	wh/0540.bmp
94.32	0.72	122	1	7	72	mem	con	mod	mod	low	nt	ht	nh/0577_nh.bmp
95.04	0.72	123	2	8	11	per	con	low	mod	low	nt	cr	nh/0338_nh.bmp
95.76	0.72	124	1	5	106	mem	lib	mod	mod	low	nt	ht	nh/1023_nh.bmp
96.48	0.72	125	1	6	85	mem	con	mod	mod	mod	tg	ht	wh/0954.bmp
97.20	0.72	126	1	6	22	per	con	mod	mod	mod	tg	ht	wh/0319.bmp
97.92	0.72	127	1	8	75	per	lib	mod	mod	mod	nt	fa	nh/0928_nh.bmp
98.64	0.72	128	1	7	49	per	lib	mod	low	mod	nt	fa	nh/0461_nh.bmp
99.36	0.72	129	1	6	82	mem	con	mod	mod	mod	nt	ht	nh/0588_nh.bmp
100.08	0.72	130	1	8	104	mem	lib	mod	mod	mod	nt	ht	nh/0962_nh.bmp
100.80	0.72	131	1	5	62	per	con	mod	low	mod	nt	cr	nh/0520_nh.bmp
101.52	0.72	132	4	8	54	mem	con	mod	mod	mod	tg	ms	wh/0462.bmp
102.24	0.72	133	2	8	72	per	lib	mod	mod	mod	nt	fa	nh/0371_nh.bmp
102.96	0.72	134	2	6	56	mem	lib	mod	mod	mod	tg	ms	wh/0591.bmp
103.68	0.72	135	3	5	109	mem	lib	mod	mod	low	nt	ht	nh/0493_nh.bmp
104.40	0.72	136	1	8	42	per	lib	low	mod	low	nt	fa	nh/0361_nh.bmp
105.12	0.72	137	1	5	48	per	lib	mod	mod	mod	tg	ht	wh/0542.bmp
105.84	0.72	138	1	6	59	mem	lib	mod	mod	mod	nt	ht	nh/0684_nh.bmp
106.56	0.72	139	2	8	60	mem	con	mod	mod	mod	nt	ht	nh/0548_nh.bmp
107.28	0.72	140	1	5	98	mem	lib	mod	mod	low	tg	ms	wh/0082.bmp
108.00	0.72	141	1	7	81	per	lib	low	low	low	tg	ms	wh/0090.bmp
108.72	0.72	142	1	5	95	per	lib	low	mod	low	tg	ms	wh/0032.bmp
109.44	0.72	143	2	5	95	per	lib	low	mod	low	tg	ms	wh/0032.bmp
110.16	0.72	144	3	7	77	mem	con	mod	mod	low	tg	ht	wh/0489.bmp
110.88	0.72	145	4	5	35	per	lib	mod	mod	mod	nt	cr	nh/0714_nh.bmp
111.60	0.72	146	2	6	99	per	con	low	mod	low	nt	cr	nh/0744_nh.bmp
112.32	0.72	147	1	6	45	mem	lib	low	low	low	nt	ht	nh/0691_nh.bmp
113.04	0.72	148	2	5	30	mem	con	mod	mod	low	tg	ht	wh/0190.bmp
113.76	0.72	149	1	6	70	per	lib	low	low	low	tg	ms	wh/0434.bmp
114.48	0.72	150	3	7	104	mem	lib	mod	mod	low	nt	ht	nh/0153_nh.bmp
115.20	0.72	151	1	8	86	per	con	mod	mod	mod	nt	cr	nh/0273_nh.bmp
115.92	0.72	152	2	6	51	mem	lib	mod	mod	mod	tg	ht	wh/0398.bmp
116.64	0.72	153	1	7	79	mem	con	mod	mod	low	tg	ms	wh/0029.bmp
117.36	0.72	154	3	5	95	per	lib	low	mod	low	tg	ms	wh/0032.bmp
118.08	0.72	155	2	8	106	mem	lib	mod	mod	mod	nt	ht	nh/0946_nh.bmp
118.80	0.72	156	1	5	63	per	con	mod	low	mod	tg	ms	wh/0525.bmp
119.52	0.72	157	1	7	33	per	con	low	low	low	tg	ms	wh/0706.bmp
120.24	0.72	158	1	8	15	per	con	low	mod	low	nt	cr	nh/0510_nh.bmp
120.96	0.72	159	1	6	116	mem	con	low	low	mod	tg	ms	wh/0900.bmp
121.68	0.72	160	1	7	105	mem	lib	mod	mod	low	tg	ht	wh/0451.bmp
122.40	0.72	161	1	7	121	per	con	mod	low	mod	tg	ms	wh/0584.bmp
123.12	0.72	162	1	6	110	per	con	low	mod	low	nt	fa	nh/0355_nh.bmp
123.84	0.72	163	3	5	30	mem	con	mod	mod	low	tg	ht	wh/0190.bmp
124.56	0.72	164	1	8	69	per	lib	mod	mod	mod	nt	cr	nh/0909_nh.bmp
125.28	0.72	165	1	5	13	mem	con	low	low	low	nt	ms	nh/0206_nh.bmp
126.00	0.72	166	1	5	118	mem	lib	low	low	mod	nt	ht	nh/0693_nh.bmp
126.72	0.72	167	3	8	106	mem	lib	mod	mod	mod	nt	ht	nh/0946_nh.bmp
127.44	0.72	168	1	8	116	mem	con	low	low	mod	nt	ms	nh/0708_nh.bmp
128.16	0.72	169	1	5	32	mem	con	mod	mod	low	nt	ht	nh/0465_nh.bmp
128.88	0.72	170	2	5	21	mem	con	mod	mod	low	tg	ms	wh/0074.bmp
129.60	0.72	171	1	8	5	per	con	low	mod	low	nt	cr	nh/0345_nh.bmp
130.32	0.72	172	1	7	27	mem	lib	low	low	low	nt	ms	nh/0488_nh.bmp
131.04	0.72	173	1	5	93	per	lib	low	mod	low	tg	ht	wh/0940.bmp
131.76	0.72	174	1	8	8	per	con	low	mod	low	tg	ms	wh/0284.bmp
132.48	0.72	175	2	8	8	per	con	low	mod	low	tg	ms	wh/0284.bmp
133.20	0.72	176	2	8	71	per	lib	mod	mod	mod	tg	ht	wh/0807.bmp
133.92	0.72	177	2	8	110	mem	lib	mod	mod	mod	tg	ht	wh/0350.bmp
134.64	0.72	178	1	5	112	mem	lib	mod	mod	low	tg	ht	wh/0635.bmp
135.36	0.72	179	3	7	71	mem	con	mod	mod	low	tg	ht	wh/0619.bmp
136.08	0.72	180	2	5	82	per	lib	low	mod	low	nt	fa	nh/0194_nh.bmp
136.80	0.72	181	2	6	98	per	con	low	mod	low	tg	ms	wh/0351.bmp
137.52	0.72	182	2	7	79	mem	con	mod	mod	low	tg	ms	wh/0029.bmp
138.24	0.72	183	2	5	93	per	lib	low	mod	low	tg	ht	wh/0940.bmp
138.96	0.72	184	2	8	90	per	con	mod	mod	mod	tg	ms	wh/0810.bmp
139.68	0.72	185	1	7	57	per	lib	mod	low	mod	nt	cr	nh/0949_nh.bmp
140.40	0.72	186	1	6	123	mem	con	low	low	mod	nt	ms	nh/0846_nh.bmp
141.12	0.72	187	3	6	99	per	con	low	mod	low	nt	cr	nh/0744_nh.bmp
141.84	0.72	188	2	6	81	mem	con	mod	mod	mod	tg	ht	wh/0876.bmp
142.56	0.72	189	2	7	109	mem	lib	mod	mod	low	tg	ht	wh/0079.bmp
143.28	0.72	190	1	7	24	mem	lib	low	low	low	tg	ht	wh/1007.bmp
144.00	0.72	191	1	7	7	mem	con	low	low	low	nt	ms	nh/0370_nh.bmp
144.72	0.72	192	3	6	108	per	con	low	mod	low	tg	ms	wh/0758.bmp
145.44	0.72	193	1	8	18	mem	lib	low	low	mod	tg	ms	wh/0419.bmp
146.16	0.72	194	2	6	58	mem	lib	mod	mod	mod	tg	ht	wh/0902.bmp
146.88	0.72	195	1	6	62	mem	lib	mod	mod	mod	tg	ht	wh/0328.bmp
147.60	0.72	196	3	7	109	mem	lib	mod	mod	low	tg	ht	wh/0079.bmp
148.32	0.72	197	1	8	4	per	con	low	mod	low	nt	cr	nh/0134_nh.bmp
149.04	0.72	198	2	7	111	mem	lib	mod	mod	low	tg	ht	wh/0150.bmp
149.76	0.72	199	1	7	98	mem	lib	mod	mod	low	nt	ht	nh/0417_nh.bmp
150.48	0.72	200	2	5	86	per	lib	low	mod	low	tg	ms	wh/0080.bmp
151.20	0.72	201	2	8	63	mem	con	mod	mod	mod	nt	ms	nh/0563_nh.bmp
151.92	0.72	202	1	8	40	per	lib	low	mod	low	tg	ht	wh/0077.bmp
152.64	0.72	203	3	5	100	mem	lib	mod	mod	low	nt	ht	nh/0934_nh.bmp
153.36	0.72	204	2	7	98	mem	lib	mod	mod	low	nt	ht	nh/0417_nh.bmp
154.08	0.72	205	2	8	4	per	con	low	mod	low	nt	cr	nh/0134_nh.bmp
154.80	0.72	206	2	8	45	per	lib	low	mod	low	nt	cr	nh/0443_nh.bmp
155.52	0.72	207	2	8	55	mem	con	mod	mod	mod	tg	ht	wh/0973.bmp
156.24	0.72	208	1	7	87	per	lib	low	low	low	nt	fa	nh/0831_nh.bmp
156.96	0.72	209	3	5	93	per	lib	low	mod	low	tg	ht	wh/0940.bmp
157.68	0.72	210	2	7	68	mem	con	mod	mod	low	nt	ht	nh/0503_nh.bmp
158.40	0.72	211	1	8	41	per	lib	low	mod	low	tg	ht	wh/0232.bmp
159.12	0.72	212	3	5	87	per	lib	low	mod	low	nt	cr	nh/0963_nh.bmp
159.84	0.72	213	2	8	41	per	lib	low	mod	low	tg	ht	wh/0232.bmp
160.56	0.72	214	3	6	51	mem	lib	mod	mod	mod	tg	ht	wh/0398.bmp
161.28	0.72	215	2	8	102	mem	lib	mod	mod	mod	nt	ht	nh/0748_nh.bmp
162.00	0.72	216	3	8	71	per	lib	mod	mod	mod	tg	ht	wh/0807.bmp
162.72	0.72	217	4	7	104	mem	lib	mod	mod	low	nt	ht	nh/0153_nh.bmp
163.44	0.72	218	1	8	56	mem	con	mod	mod	mod	nt	ht	nh/0447_nh.bmp
164.16	0.72	219	3	5	86	per	lib	low	mod	low	tg	ms	wh/0080.bmp
164.88	0.72	220	3	5	96	per	lib	low	mod	low	nt	fa	nh/0660_nh.bmp
165.60	0.72	221	1	5	33	per	lib	mod	mod	mod	nt	cr	nh/0099_nh.bmp
166.32	0.72	222	3	6	25	per	con	mod	mod	mod	nt	cr	nh/0941_nh.bmp
167.04	0.72	223	3	7	79	mem	con	mod	mod	low	tg	ms	wh/0029.bmp
167.76	0.72	224	1	7	13	mem	con	low	low	low	nt	ms	nh/0930_nh.bmp
168.48	0.72	225	2	8	109	mem	lib	mod	mod	mod	tg	ms	wh/0339.bmp
169.20	0.72	226	2	6	82	mem	con	mod	mod	mod	nt	ht	nh/0588_nh.bmp
169.92	0.72	227	2	7	105	mem	lib	mod	mod	low	tg	ht	wh/0451.bmp
170.64	0.72	228	2	5	106	mem	lib	mod	mod	low	nt	ht	nh/1023_nh.bmp
171.36	0.72	229	2	5	33	per	lib	mod	mod	mod	nt	cr	nh/0099_nh.bmp
172.08	0.72	230	1	8	44	per	lib	low	mod	low	tg	ht	wh/0036.bmp
172.80	0.72	231	3	8	64	mem	con	mod	mod	mod	tg	ms	wh/0947.bmp
173.52	0.72	232	1	8	92	per	con	mod	mod	mod	nt	cr	nh/0428_nh.bmp
174.24	0.72	233	2	6	62	mem	lib	mod	mod	mod	tg	ht	wh/0328.bmp
174.96	0.72	234	3	6	82	mem	con	mod	mod	mod	nt	ht	nh/0588_nh.bmp
175.68	0.72	235	2	6	105	per	con	low	mod	low	tg	ms	wh/0256.bmp
176.40	0.72	236	2	8	40	per	lib	low	mod	low	tg	ht	wh/0077.bmp
177.12	0.72	237	1	5	122	mem	lib	low	low	mod	tg	ht	wh/0096.bmp
177.84	0.72	238	1	6	46	mem	lib	low	low	low	nt	ht	nh/0237_nh.bmp
178.56	0.72	239	2	7	69	mem	con	mod	mod	low	nt	ms	nh/0568_nh.bmp
179.28	0.72	240	2	6	95	mem	con	mod	mod	mod	tg	ht	wh/0697.bmp
180.00	0.72	241	3	8	4	per	con	low	mod	low	nt	cr	nh/0134_nh.bmp
180.72	0.72	242	2	7	65	mem	con	mod	mod	low	tg	ms	wh/0893.bmp
181.44	0.72	243	3	8	109	mem	lib	mod	mod	mod	tg	ms	wh/0339.bmp
182.16	0.72	244	3	6	58	mem	lib	mod	mod	mod	tg	ht	wh/0902.bmp
182.88	0.72	245	1	6	31	per	con	mod	mod	mod	tg	ms	wh/0187.bmp
183.60	0.72	246	2	5	34	per	lib	mod	mod	mod	tg	ht	wh/0680.bmp
184.32	0.72	247	4	7	79	mem	con	mod	mod	low	tg	ms	wh/0029.bmp
185.04	0.72	248	4	5	87	per	lib	low	mod	low	nt	cr	nh/0963_nh.bmp
185.76	0.72	249	4	5	93	per	lib	low	mod	low	tg	ht	wh/0940.bmp
186.48	0.72	250	1	8	49	mem	con	mod	mod	mod	tg	ms	wh/0397.bmp
187.20	0.72	251	4	5	86	per	lib	low	mod	low	tg	ms	wh/0080.bmp
187.92	0.72	252	4	8	4	per	con	low	mod	low	nt	cr	nh/0134_nh.bmp
188.64	0.72	253	1	7	102	mem	lib	mod	mod	low	tg	ht	wh/0336.bmp
189.36	0.72	254	2	8	15	per	con	low	mod	low	nt	cr	nh/0510_nh.bmp
190.08	0.72	255	3	8	8	per	con	low	mod	low	tg	ms	wh/0284.bmp
190.80	0.72	256	1	5	101	mem	lib	mod	mod	low	tg	ht	wh/0964.bmp
191.52	0.72	257	2	6	52	mem	lib	mod	mod	mod	nt	ht	nh/0380_nh.bmp
192.24	0.72	258	3	8	11	per	con	low	mod	low	nt	cr	nh/0338_nh.bmp
192.96	0.72	259	2	6	31	per	con	mod	mod	mod	tg	ms	wh/0187.bmp
193.68	0.72	260	4	8	109	mem	lib	mod	mod	mod	tg	ms	wh/0339.bmp
194.40	0.72	261	2	8	75	per	lib	mod	mod	mod	nt	fa	nh/0928_nh.bmp
195.12	0.72	262	1	6	10	per	lib	mod	low	mod	tg	ht	wh/0870.bmp
195.84	0.72	263	3	6	52	mem	lib	mod	mod	mod	nt	ht	nh/0380_nh.bmp
196.56	0.72	264	1	5	38	per	lib	mod	mod	mod	tg	ms	wh/0594.bmp
197.28	0.72	265	3	8	102	mem	lib	mod	mod	mod	nt	ht	nh/0748_nh.bmp
198.00	0.72	266	2	8	92	per	con	mod	mod	mod	nt	cr	nh/0428_nh.bmp
198.72	0.72	267	1	8	68	per	lib	mod	mod	mod	tg	ht	wh/0716.bmp
199.44	0.72	268	4	8	8	per	con	low	mod	low	tg	ms	wh/0284.bmp
200.16	0.72	269	4	6	99	per	con	low	mod	low	nt	cr	nh/0744_nh.bmp
200.88	0.72	270	4	6	52	mem	lib	mod	mod	mod	nt	ht	nh/0380_nh.bmp
201.60	0.72	271	4	6	58	mem	lib	mod	mod	mod	tg	ht	wh/0902.bmp
202.32	0.72	272	3	6	90	mem	con	mod	mod	mod	nt	ms	nh/0497_nh.bmp
203.04	0.72	273	1	6	50	mem	lib	mod	mod	mod	nt	ht	nh/0442_nh.bmp
203.76	0.72	274	1	5	53	per	con	mod	low	mod	nt	cr	nh/0278_nh.bmp
204.48	0.72	275	2	6	50	mem	lib	mod	mod	mod	nt	ht	nh/0442_nh.bmp
205.20	0.72	276	3	8	75	per	lib	mod	mod	mod	nt	fa	nh/0928_nh.bmp
205.92	0.72	277	3	8	45	per	lib	low	mod	low	nt	cr	nh/0443_nh.bmp
206.64	0.72	278	2	8	56	mem	con	mod	mod	mod	nt	ht	nh/0447_nh.bmp
207.36	0.72	279	3	6	62	mem	lib	mod	mod	mod	tg	ht	wh/0328.bmp
208.08	0.72	280	1	8	117	mem	con	low	low	mod	nt	ms	nh/0782_nh.bmp
208.80	0.72	281	2	8	69	per	lib	mod	mod	mod	nt	cr	nh/0909_nh.bmp
209.52	0.72	282	1	6	44	mem	lib	low	low	low	nt	ms	nh/0223_nh.bmp
210.24	0.72	283	3	8	72	per	lib	mod	mod	mod	nt	fa	nh/0371_nh.bmp
210.96	0.72	284	3	7	111	mem	lib	mod	mod	low	tg	ht	wh/0150.bmp
211.68	0.72	285	4	8	71	per	lib	mod	mod	mod	tg	ht	wh/0807.bmp
212.40	0.72	286	1	6	111	per	con	low	mod	low	nt	cr	nh/0730_nh.bmp
213.12	0.72	287	4	8	89	per	con	mod	mod	mod	tg	ht	wh/0650.bmp
213.84	0.72	288	5	6	58	mem	lib	mod	mod	mod	tg	ht	wh/0902.bmp
214.56	0.72	289	1	7	73	mem	con	mod	mod	low	nt	ht	nh/0508_nh.bmp
215.28	0.72	290	2	5	42	per	lib	mod	mod	mod	nt	cr	nh/0446_nh.bmp
216.00	0.72	291	3	8	15	per	con	low	mod	low	nt	cr	nh/0510_nh.bmp
216.72	0.72	292	5	5	87	per	lib	low	mod	low	nt	cr	nh/0963_nh.bmp
217.44	0.72	293	1	8	57	mem	con	mod	mod	mod	nt	ms	nh/0784_nh.bmp
218.16	0.72	294	2	5	32	mem	con	mod	mod	low	nt	ht	nh/0465_nh.bmp
218.88	0.72	295	2	6	85	mem	con	mod	mod	mod	tg	ht	wh/0954.bmp
219.60	0.72	296	1	7	41	per	con	low	low	low	nt	cr	nh/0261_nh.bmp
220.32	0.72	297	1	5	50	per	con	mod	low	mod	nt	cr	nh/0301_nh.bmp
221.04	0.72	298	1	6	18	per	con	mod	mod	mod	tg	ht	wh/0094.bmp
221.76	0.72	299	2	8	5	per	con	low	mod	low	nt	cr	nh/0345_nh.bmp
222.48	0.72	300	4	7	111	mem	lib	mod	mod	low	tg	ht	wh/0150.bmp
223.20	0.72	301	3	7	69	mem	con	mod	mod	low	nt	ms	nh/0568_nh.bmp
223.92	0.72	302	1	6	117	mem	con	low	low	mod	nt	ms	nh/0652_nh.bmp
224.64	0.72	303	2	6	111	per	con	low	mod	low	nt	cr	nh/0730_nh.bmp
225.36	0.72	304	2	6	18	per	con	mod	mod	mod	tg	ht	wh/0094.bmp
226.08	0.72	305	5	5	93	per	lib	low	mod	low	tg	ht	wh/0940.bmp
226.80	0.72	306	3	6	95	mem	con	mod	mod	mod	tg	ht	wh/0697.bmp
227.52	0.72	307	2	8	57	mem	con	mod	mod	mod	nt	ms	nh/0784_nh.bmp
228.24	0.72	308	3	7	98	mem	lib	mod	mod	low	nt	ht	nh/0417_nh.bmp
228.96	0.72	309	3	8	55	mem	con	mod	mod	mod	tg	ht	wh/0973.bmp
229.68	0.72	310	4	5	109	mem	lib	mod	mod	low	nt	ht	nh/0493_nh.bmp
230.40	0.72	311	1	8	31	mem	lib	low	low	mod	tg	ht	wh/0469.bmp
231.12	0.72	312	2	8	42	per	lib	low	mod	low	nt	fa	nh/0361_nh.bmp
231.84	0.72	313	1	5	45	per	lib	mod	mod	mod	nt	fa	nh/0196_nh.bmp
232.56	0.72	314	2	7	102	mem	lib	mod	mod	low	tg	ht	wh/0336.bmp
233.28	0.72	315	1	8	79	per	lib	mod	mod	mod	tg	ht	wh/0772.bmp
234.00	0.72	316	3	5	106	mem	lib	mod	mod	low	nt	ht	nh/1023_nh.bmp
234.72	0.72	317	3	6	50	mem	lib	mod	mod	mod	nt	ht	nh/0442_nh.bmp
235.44	0.72	318	2	5	101	mem	lib	mod	mod	low	tg	ht	wh/0964.bmp
236.16	0.72	319	2	8	68	per	lib	mod	mod	mod	tg	ht	wh/0716.bmp
236.88	0.72	320	1	5	7	mem	con	low	low	low	tg	ms	wh/0695.bmp
237.60	0.72	321	1	7	14	mem	con	low	low	low	tg	ms	wh/0185.bmp
238.32	0.72	322	3	8	90	per	con	mod	mod	mod	tg	ms	wh/0810.bmp
239.04	0.72	323	1	7	96	per	lib	low	low	low	tg	ht	wh/0711.bmp
239.76	0.72	324	1	8	118	mem	con	low	low	mod	nt	ms	nh/0340_nh.bmp
240.48	0.72	325	1	6	109	per	con	low	mod	low	tg	ms	wh/0364.bmp
241.20	0.72	326	1	5	91	per	lib	low	mod	low	tg	ht	wh/0646.bmp
241.92	0.72	327	2	5	48	per	lib	mod	mod	mod	tg	ht	wh/0542.bmp
242.64	0.72	328	4	6	82	mem	con	mod	mod	mod	nt	ht	nh/0588_nh.bmp
243.36	0.72	329	2	8	88	per	con	mod	mod	mod	tg	ms	wh/0182.bmp
244.08	0.72	330	4	7	77	mem	con	mod	mod	low	tg	ht	wh/0489.bmp
244.80	0.72	331	2	5	20	mem	con	mod	mod	low	tg	ht	wh/0075.bmp
245.52	0.72	332	1	8	37	per	lib	low	mod	low	tg	ht	wh/0818.bmp
246.24	0.72	333	3	8	110	mem	lib	mod	mod	mod	tg	ht	wh/0350.bmp
246.96	0.72	334	3	6	31	per	con	mod	mod	mod	tg	ms	wh/0187.bmp
247.68	0.72	335	3	8	56	mem	con	mod	mod	mod	nt	ht	nh/0447_nh.bmp
248.40	0.72	336	1	6	49	mem	lib	mod	mod	mod	nt	ht	nh/0795_nh.bmp
249.12	0.72	337	3	8	5	per	con	low	mod	low	nt	cr	nh/0345_nh.bmp
249.84	0.72	338	4	8	15	per	con	low	mod	low	nt	cr	nh/0510_nh.bmp
250.56	0.72	339	2	8	104	mem	lib	mod	mod	mod	nt	ht	nh/0962_nh.bmp
251.28	0.72	340	2	8	96	per	con	mod	mod	mod	tg	ms	wh/0904.bmp
252.00	0.72	341	2	5	28	mem	con	mod	mod	low	nt	ht	nh/0125_nh.bmp
252.72	0.72	342	1	6	72	per	lib	low	low	low	tg	ht	wh/0460.bmp
253.44	0.72	343	1	7	117	per	con	mod	low	mod	nt	cr	nh/0966_nh.bmp
254.16	0.72	344	4	8	55	mem	con	mod	mod	mod	tg	ht	wh/0973.bmp
254.88	0.72	345	2	8	37	per	lib	low	mod	low	tg	ht	wh/0818.bmp
255.60	0.72	346	4	8	90	per	con	mod	mod	mod	tg	ms	wh/0810.bmp
256.32	0.72	347	2	5	102	mem	lib	mod	mod	low	nt	ht	nh/0123_nh.bmp
257.04	0.72	348	1	8	125	mem	con	low	low	mod	tg	ms	wh/0669.bmp
257.76	0.72	349	3	7	68	mem	con	mod	mod	low	nt	ht	nh/0503_nh.bmp
258.48	0.72	350	4	6	95	mem	con	mod	mod	mod	tg	ht	wh/0697.bmp
259.20	0.72	351	1	8	81	per	con	mod	mod	mod	nt	cr	nh/0209_nh.bmp
259.92	0.72	352	2	5	45	per	lib	mod	mod	mod	nt	fa	nh/0196_nh.bmp
260.64	0.72	353	1	7	2	mem	con	low	low	low	nt	ms	nh/0864_nh.bmp
261.36	0.72	354	4	7	98	mem	lib	mod	mod	low	nt	ht	nh/0417_nh.bmp
262.08	0.72	355	5	6	99	per	con	low	mod	low	nt	cr	nh/0744_nh.bmp
262.80	0.72	356	3	6	92	mem	con	mod	mod	mod	tg	ht	wh/0095.bmp
263.52	0.72	357	2	8	78	per	lib	mod	mod	mod	nt	fa	nh/0803_nh.bmp
264.24	0.72	358	5	6	95	mem	con	mod	mod	mod	tg	ht	wh/0697.bmp
264.96	0.72	359	1	7	58	per	lib	mod	low	mod	nt	cr	nh/1024_nh.bmp
265.68	0.72	360	4	8	106	mem	lib	mod	mod	mod	nt	ht	nh/0946_nh.bmp
266.40	0.72	361	1	7	97	mem	lib	mod	mod	low	nt	ht	nh/0802_nh.bmp
267.12	0.72	362	1	8	6	per	con	low	mod	low	tg	ms	wh/0299.bmp
267.84	0.72	363	4	5	106	mem	lib	mod	mod	low	nt	ht	nh/1023_nh.bmp
268.56	0.72	364	1	6	71	per	lib	low	low	low	nt	cr	nh/0731_nh.bmp
269.28	0.72	365	2	6	110	per	con	low	mod	low	nt	fa	nh/0355_nh.bmp
270.00	0.72	366	2	8	35	per	lib	low	mod	low	nt	cr	nh/0760_nh.bmp
270.72	0.72	367	1	5	1	mem	con	low	low	low	tg	ms	wh/0571.bmp
271.44	0.72	368	3	5	90	per	lib	low	mod	low	nt	fa	nh/0035_nh.bmp
272.16	0.72	369	3	7	105	mem	lib	mod	mod	low	tg	ht	wh/0451.bmp
272.88	0.72	370	3	8	78	per	lib	mod	mod	mod	nt	fa	nh/0803_nh.bmp
273.60	0.72	371	2	5	112	mem	lib	mod	mod	low	tg	ht	wh/0635.bmp
274.32	0.72	372	4	6	62	mem	lib	mod	mod	mod	tg	ht	wh/0328.bmp
275.04	0.72	373	5	6	27	per	con	mod	mod	mod	nt	cr	nh/0222_nh.bmp
275.76	0.72	374	3	8	69	per	lib	mod	mod	mod	nt	cr	nh/0909_nh.bmp
276.48	0.72	375	2	8	44	per	lib	low	mod	low	tg	ht	wh/0036.bmp
277.20	0.72	376	5	5	35	per	lib	mod	mod	mod	nt	cr	nh/0714_nh.bmp
277.92	0.72	377	2	5	19	mem	con	mod	mod	low	nt	ht	nh/0238_nh.bmp
278.64	0.72	378	1	6	87	mem	con	mod	mod	mod	nt	ms	nh/0396_nh.bmp
279.36	0.72	379	2	7	73	mem	con	mod	mod	low	nt	ht	nh/0508_nh.bmp
280.08	0.72	380	3	6	111	per	con	low	mod	low	nt	cr	nh/0730_nh.bmp
280.80	0.72	381	3	5	48	per	lib	mod	mod	mod	tg	ht	wh/0542.bmp
281.52	0.72	382	2	5	43	per	lib	mod	mod	mod	tg	ms	wh/0543.bmp
282.24	0.72	383	2	8	39	per	lib	low	mod	low	nt	fa	nh/0690_nh.bmp
282.96	0.72	384	3	8	63	mem	con	mod	mod	mod	nt	ms	nh/0563_nh.bmp
283.68	0.72	385	2	6	88	mem	con	mod	mod	mod	nt	ht	nh/0843_nh.bmp
284.40	0.72	386	4	8	69	per	lib	mod	mod	mod	nt	cr	nh/0909_nh.bmp
285.12	0.72	387	2	6	17	per	con	mod	mod	mod	nt	cr	nh/0874_nh.bmp
285.84	0.72	388	4	6	111	per	con	low	mod	low	nt	cr	nh/0730_nh.bmp
286.56	0.72	389	3	7	73	mem	con	mod	mod	low	nt	ht	nh/0508_nh.bmp
287.28	0.72	390	3	8	42	per	lib	low	mod	low	nt	fa	nh/0361_nh.bmp
288.00	0.72	391	2	8	6	per	con	low	mod	low	tg	ms	wh/0299.bmp
288.72	0.72	392	2	6	49	mem	lib	mod	mod	mod	nt	ht	nh/0795_nh.bmp
289.44	0.72	393	1	7	84	per	lib	low	low	low	tg	ms	wh/0197.bmp
290.16	0.72	394	3	8	6	per	con	low	mod	low	tg	ms	wh/0299.bmp
290.88	0.72	395	3	6	30	per	con	mod	mod	mod	tg	ms	wh/0855.bmp
291.60	0.72	396	4	6	50	mem	lib	mod	mod	mod	nt	ht	nh/0442_nh.bmp
292.32	0.72	397	4	8	72	per	lib	mod	mod	mod	nt	fa	nh/0371_nh.bmp
293.04	0.72	398	1	7	107	mem	lib	mod	mod	low	nt	ht	nh/0613_nh.bmp
293.76	0.72	399	1	7	55	per	lib	mod	low	mod	tg	ht	wh/0838.bmp
294.48	0.72	400	6	5	35	per	lib	mod	mod	mod	nt	cr	nh/0714_nh.bmp
295.20	0.72	401	2	8	111	mem	lib	mod	mod	mod	nt	ht	nh/0957_nh.bmp
295.92	0.72	402	3	8	60	mem	con	mod	mod	mod	nt	ht	nh/0548_nh.bmp
296.64	0.72	403	3	6	81	mem	con	mod	mod	mod	tg	ht	wh/0876.bmp
297.36	0.72	404	2	6	22	per	con	mod	mod	mod	tg	ht	wh/0319.bmp
298.08	0.72	405	2	6	23	per	con	mod	mod	mod	nt	cr	nh/0199_nh.bmp
298.80	0.72	406	1	8	83	per	con	mod	mod	mod	nt	n/a	nh/0805_nh.bmp
299.52	0.72	407	1	7	120	per	con	mod	low	mod	nt	cr	nh/0787_nh.bmp
300.24	0.72	408	6	6	27	per	con	mod	mod	mod	nt	cr	nh/0222_nh.bmp
300.96	0.72	409	4	6	108	per	con	low	mod	low	tg	ms	wh/0758.bmp
301.68	0.72	410	2	5	91	per	lib	low	mod	low	tg	ht	wh/0646.bmp
302.40	0.72	411	2	6	109	per	con	low	mod	low	tg	ms	wh/0364.bmp
303.12	0.72	412	4	7	69	mem	con	mod	mod	low	nt	ms	nh/0568_nh.bmp
303.84	0.72	413	3	6	49	mem	lib	mod	mod	mod	nt	ht	nh/0795_nh.bmp
304.56	0.72	414	4	8	45	per	lib	low	mod	low	nt	cr	nh/0443_nh.bmp
305.28	0.72	415	2	5	38	per	lib	mod	mod	mod	tg	ms	wh/0594.bmp
306.00	0.72	416	3	5	43	per	lib	mod	mod	mod	tg	ms	wh/0543.bmp
306.72	0.72	417	5	8	71	per	lib	mod	mod	mod	tg	ht	wh/0807.bmp
307.44	0.72	418	3	8	104	mem	lib	mod	mod	mod	nt	ht	nh/0962_nh.bmp
308.16	0.72	419	3	8	111	mem	lib	mod	mod	mod	nt	ht	nh/0957_nh.bmp
308.88	0.72	420	5	6	50	mem	lib	mod	mod	mod	nt	ht	nh/0442_nh.bmp
309.60	0.72	421	2	8	107	mem	lib	mod	mod	mod	tg	ht	wh/0593.bmp
310.32	0.72	422	2	8	7	per	con	low	mod	low	tg	ms	wh/0382.bmp
311.04	0.72	423	3	5	112	mem	lib	mod	mod	low	tg	ht	wh/0635.bmp
311.76	0.72	424	2	7	107	mem	lib	mod	mod	low	nt	ht	nh/0613_nh.bmp
312.48	0.72	425	3	8	41	per	lib	low	mod	low	tg	ht	wh/0232.bmp
313.20	0.72	426	3	8	40	per	lib	low	mod	low	tg	ht	wh/0077.bmp
313.92	0.72	427	5	7	69	mem	con	mod	mod	low	nt	ms	nh/0568_nh.bmp
314.64	0.72	428	6	5	87	per	lib	low	mod	low	nt	cr	nh/0963_nh.bmp
315.36	0.72	429	2	8	100	mem	lib	mod	mod	mod	tg	ht	wh/0558.bmp
316.08	0.72	430	3	8	37	per	lib	low	mod	low	tg	ht	wh/0818.bmp
316.80	0.72	431	3	8	44	per	lib	low	mod	low	tg	ht	wh/0036.bmp
317.52	0.72	432	3	8	100	mem	lib	mod	mod	mod	tg	ht	wh/0558.bmp
318.24	0.72	433	3	6	98	per	con	low	mod	low	tg	ms	wh/0351.bmp
318.96	0.72	434	3	8	57	mem	con	mod	mod	mod	nt	ms	nh/0784_nh.bmp
319.68	0.72	435	4	8	110	mem	lib	mod	mod	mod	tg	ht	wh/0350.bmp
320.40	0.72	436	4	6	98	per	con	low	mod	low	tg	ms	wh/0351.bmp
321.12	0.72	437	4	7	68	mem	con	mod	mod	low	nt	ht	nh/0503_nh.bmp
321.84	0.72	438	3	8	107	mem	lib	mod	mod	mod	tg	ht	wh/0593.bmp
322.56	0.72	439	5	6	62	mem	lib	mod	mod	mod	tg	ht	wh/0328.bmp
323.28	0.72	440	4	7	105	mem	lib	mod	mod	low	tg	ht	wh/0451.bmp
324.00	0.72	441	2	6	87	mem	con	mod	mod	mod	nt	ms	nh/0396_nh.bmp
324.72	0.72	442	3	8	35	per	lib	low	mod	low	nt	cr	nh/0760_nh.bmp
325.44	0.72	443	4	8	5	per	con	low	mod	low	nt	cr	nh/0345_nh.bmp
326.16	0.72	444	2	8	49	mem	con	mod	mod	mod	tg	ms	wh/0397.bmp
326.88	0.72	445	3	8	68	per	lib	mod	mod	mod	tg	ht	wh/0716.bmp
327.60	0.72	446	3	6	109	per	con	low	mod	low	tg	ms	wh/0364.bmp
328.32	0.72	447	4	8	60	mem	con	mod	mod	mod	nt	ht	nh/0548_nh.bmp
329.04	0.72	448	3	7	107	mem	lib	mod	mod	low	nt	ht	nh/0613_nh.bmp
329.76	0.72	449	2	5	98	mem	lib	mod	mod	low	tg	ms	wh/0082.bmp
330.48	0.72	450	4	5	95	per	lib	low	mod	low	tg	ms	wh/0032.bmp
331.20	0.72	451	4	8	35	per	lib	low	mod	low	nt	cr	nh/0760_nh.bmp
331.92	0.72	452	5	8	35	per	lib	low	mod	low	nt	cr	nh/0760_nh.bmp
332.64	0.72	453	1	6	3	per	lib	mod	low	mod	tg	ms	wh/0025.bmp
333.36	0.72	454	4	8	64	mem	con	mod	mod	mod	tg	ms	wh/0947.bmp
334.08	0.72	455	3	5	45	per	lib	mod	mod	mod	nt	fa	nh/0196_nh.bmp
334.80	0.72	456	3	5	19	mem	con	mod	mod	low	nt	ht	nh/0238_nh.bmp
335.52	0.72	457	4	6	81	mem	con	mod	mod	mod	tg	ht	wh/0876.bmp
336.24	0.72	458	2	7	97	mem	lib	mod	mod	low	nt	ht	nh/0802_nh.bmp
336.96	0.72	459	4	6	30	per	con	mod	mod	mod	tg	ms	wh/0855.bmp
337.68	0.72	460	3	6	23	per	con	mod	mod	mod	nt	cr	nh/0199_nh.bmp
338.40	0.72	461	4	8	107	mem	lib	mod	mod	mod	tg	ht	wh/0593.bmp
339.12	0.72	462	1	5	29	mem	con	mod	mod	low	nt	ms	nh/0383_nh.bmp
339.84	0.72	463	4	7	107	mem	lib	mod	mod	low	nt	ht	nh/0613_nh.bmp
340.56	0.72	464	4	8	111	mem	lib	mod	mod	mod	nt	ht	nh/0957_nh.bmp
341.28	0.72	465	1	5	107	mem	lib	mod	mod	low	tg	ht	wh/0608.bmp
342.00	0.72	466	4	6	49	mem	lib	mod	mod	mod	nt	ht	nh/0795_nh.bmp
342.72	0.72	467	3	5	98	mem	lib	mod	mod	low	tg	ms	wh/0082.bmp
343.44	0.72	468	5	6	82	mem	con	mod	mod	mod	nt	ht	nh/0588_nh.bmp
344.16	0.72	469	2	8	79	per	lib	mod	mod	mod	tg	ht	wh/0772.bmp
344.88	0.72	470	3	6	88	mem	con	mod	mod	mod	nt	ht	nh/0843_nh.bmp
345.60	0.72	471	1	5	3	mem	con	low	low	low	nt	ms	nh/0146_nh.bmp
346.32	0.72	472	2	8	86	per	con	mod	mod	mod	nt	cr	nh/0273_nh.bmp
347.04	0.72	473	5	8	72	per	lib	mod	mod	mod	nt	fa	nh/0371_nh.bmp
347.76	0.72	474	3	6	85	mem	con	mod	mod	mod	tg	ht	wh/0954.bmp
348.48	0.72	475	1	5	113	mem	lib	low	low	mod	tg	ht	wh/0426.bmp
349.20	0.72	476	5	6	111	per	con	low	mod	low	nt	cr	nh/0730_nh.bmp
349.92	0.72	477	4	5	112	mem	lib	mod	mod	low	tg	ht	wh/0635.bmp
350.64	0.72	478	3	8	92	per	con	mod	mod	mod	nt	cr	nh/0428_nh.bmp
351.36	0.72	479	3	5	38	per	lib	mod	mod	mod	tg	ms	wh/0594.bmp
352.08	0.72	480	5	5	106	mem	lib	mod	mod	low	nt	ht	nh/1023_nh.bmp
352.80	0.72	481	4	5	30	mem	con	mod	mod	low	tg	ht	wh/0190.bmp
353.52	0.72	482	6	6	58	mem	lib	mod	mod	mod	tg	ht	wh/0902.bmp
354.24	0.72	483	4	8	100	mem	lib	mod	mod	mod	tg	ht	wh/0558.bmp
354.96	0.72	484	2	6	59	mem	lib	mod	mod	mod	nt	ht	nh/0684_nh.bmp
355.68	0.72	485	3	5	28	mem	con	mod	mod	low	nt	ht	nh/0125_nh.bmp
356.40	0.72	486	4	8	63	mem	con	mod	mod	mod	nt	ms	nh/0563_nh.bmp
357.12	0.72	487	3	6	87	mem	con	mod	mod	mod	nt	ms	nh/0396_nh.bmp
357.84	0.72	488	1	8	123	mem	con	low	low	mod	tg	ms	wh/0059.bmp
358.56	0.72	489	1	5	79	per	con	low	low	low	tg	ms	wh/0633.bmp
359.28	0.72	490	4	5	38	per	lib	mod	mod	mod	tg	ms	wh/0594.bmp
360.00	0.72	491	5	7	79	mem	con	mod	mod	low	tg	ms	wh/0029.bmp
360.72	0.72	492	5	8	111	mem	lib	mod	mod	mod	nt	ht	nh/0957_nh.bmp
361.44	0.72	493	1	6	36	mem	lib	low	low	low	tg	ht	wh/0158.bmp
362.16	0.72	494	1	7	89	per	lib	low	low	low	nt	cr	nh/0292_nh.bmp
362.88	0.72	495	2	7	72	mem	con	mod	mod	low	nt	ht	nh/0577_nh.bmp
363.60	0.72	496	3	5	20	mem	con	mod	mod	low	tg	ht	wh/0075.bmp
364.32	0.72	497	5	5	86	per	lib	low	mod	low	tg	ms	wh/0080.bmp
365.04	0.72	498	1	7	39	per	con	low	low	low	tg	ms	wh/0845.bmp
365.76	0.72	499	3	5	42	per	lib	mod	mod	mod	nt	cr	nh/0446_nh.bmp
366.48	0.72	500	1	5	125	mem	lib	low	low	mod	nt	ht	nh/0729_nh.bmp
367.20	0.72	501	2	8	83	per	con	mod	mod	mod	nt	n/a	nh/0805_nh.bmp
367.92	0.72	502	5	6	49	mem	lib	mod	mod	mod	nt	ht	nh/0795_nh.bmp
368.64	0.72	503	4	6	31	per	con	mod	mod	mod	tg	ms	wh/0187.bmp
369.36	0.72	504	1	6	68	per	lib	low	low	low	tg	ms	wh/0881.bmp
370.08	0.72	505	4	5	19	mem	con	mod	mod	low	nt	ht	nh/0238_nh.bmp
370.80	0.72	506	4	8	78	per	lib	mod	mod	mod	nt	fa	nh/0803_nh.bmp
371.52	0.72	507	5	7	98	mem	lib	mod	mod	low	nt	ht	nh/0417_nh.bmp
372.24	0.72	508	5	8	90	per	con	mod	mod	mod	tg	ms	wh/0810.bmp
372.96	0.72	509	4	5	96	per	lib	low	mod	low	nt	fa	nh/0660_nh.bmp
373.68	0.72	510	3	8	96	per	con	mod	mod	mod	tg	ms	wh/0904.bmp
374.40	0.72	511	4	7	73	mem	con	mod	mod	low	nt	ht	nh/0508_nh.bmp
375.12	0.72	512	4	6	23	per	con	mod	mod	mod	nt	cr	nh/0199_nh.bmp
375.84	0.72	513	3	6	110	per	con	low	mod	low	nt	fa	nh/0355_nh.bmp
376.56	0.72	514	6	5	86	per	lib	low	mod	low	tg	ms	wh/0080.bmp
377.28	0.72	515	5	7	107	mem	lib	mod	mod	low	nt	ht	nh/0613_nh.bmp
378.00	0.72	516	4	6	87	mem	con	mod	mod	mod	nt	ms	nh/0396_nh.bmp
378.72	0.72	517	5	8	89	per	con	mod	mod	mod	tg	ht	wh/0650.bmp
379.44	0.72	518	4	8	56	mem	con	mod	mod	mod	nt	ht	nh/0447_nh.bmp
380.16	0.72	519	3	6	56	mem	lib	mod	mod	mod	tg	ms	wh/0591.bmp
380.88	0.72	520	4	5	90	per	lib	low	mod	low	nt	fa	nh/0035_nh.bmp
381.60	0.72	521	4	8	37	per	lib	low	mod	low	tg	ht	wh/0818.bmp
382.32	0.72	522	3	5	102	mem	lib	mod	mod	low	nt	ht	nh/0123_nh.bmp
383.04	0.72	523	3	5	34	per	lib	mod	mod	mod	tg	ht	wh/0680.bmp
383.76	0.72	524	5	8	45	per	lib	low	mod	low	nt	cr	nh/0443_nh.bmp
384.48	0.72	525	5	5	30	mem	con	mod	mod	low	tg	ht	wh/0190.bmp
385.20	0.72	526	4	5	42	per	lib	mod	mod	mod	nt	cr	nh/0446_nh.bmp
385.92	0.72	527	3	6	18	per	con	mod	mod	mod	tg	ht	wh/0094.bmp
386.64	0.72	528	1	7	17	mem	lib	low	low	low	nt	ht	nh/0215_nh.bmp
387.36	0.72	529	4	6	18	per	con	mod	mod	mod	tg	ht	wh/0094.bmp
388.08	0.72	530	5	8	4	per	con	low	mod	low	nt	cr	nh/0134_nh.bmp
388.80	0.72	531	3	6	59	mem	lib	mod	mod	mod	nt	ht	nh/0684_nh.bmp
389.52	0.72	532	4	8	75	per	lib	mod	mod	mod	nt	fa	nh/0928_nh.bmp
390.24	0.72	533	4	5	48	per	lib	mod	mod	mod	tg	ht	wh/0542.bmp
390.96	0.72	534	3	8	79	per	lib	mod	mod	mod	tg	ht	wh/0772.bmp
391.68	0.72	535	5	7	104	mem	lib	mod	mod	low	nt	ht	nh/0153_nh.bmp
392.40	0.72	536	2	8	81	per	con	mod	mod	mod	nt	cr	nh/0209_nh.bmp
393.12	0.72	537	4	5	43	per	lib	mod	mod	mod	tg	ms	wh/0543.bmp
393.84	0.72	538	4	5	28	mem	con	mod	mod	low	nt	ht	nh/0125_nh.bmp
394.56	0.72	539	4	8	11	per	con	low	mod	low	nt	cr	nh/0338_nh.bmp
395.28	0.72	540	3	7	65	mem	con	mod	mod	low	tg	ms	wh/0893.bmp
396.00	0.72	541	4	7	71	mem	con	mod	mod	low	tg	ht	wh/0619.bmp
396.72	0.72	542	2	5	107	mem	lib	mod	mod	low	tg	ht	wh/0608.bmp
397.44	0.72	543	5	8	106	mem	lib	mod	mod	mod	nt	ht	nh/0946_nh.bmp
398.16	0.72	544	6	8	45	per	lib	low	mod	low	nt	cr	nh/0443_nh.bmp
398.88	0.72	545	3	7	72	mem	con	mod	mod	low	nt	ht	nh/0577_nh.bmp
399.60	0.72	546	5	6	18	per	con	mod	mod	mod	tg	ht	wh/0094.bmp
400.32	0.72	547	4	8	57	mem	con	mod	mod	mod	nt	ms	nh/0784_nh.bmp
401.04	0.72	548	4	5	102	mem	lib	mod	mod	low	nt	ht	nh/0123_nh.bmp
401.76	0.72	549	1	7	18	mem	lib	low	low	low	tg	ht	wh/0112.bmp
402.48	0.72	550	5	7	68	mem	con	mod	mod	low	nt	ht	nh/0503_nh.bmp
403.20	0.72	551	1	7	25	mem	lib	low	low	low	tg	ht	wh/0431.bmp
403.92	0.72	552	6	5	30	mem	con	mod	mod	low	tg	ht	wh/0190.bmp
404.64	0.72	553	5	8	109	mem	lib	mod	mod	mod	tg	ms	wh/0339.bmp
405.36	0.72	554	3	8	88	per	con	mod	mod	mod	tg	ms	wh/0182.bmp
406.08	0.72	555	4	8	92	per	con	mod	mod	mod	nt	cr	nh/0428_nh.bmp
406.80	0.72	556	3	7	102	mem	lib	mod	mod	low	tg	ht	wh/0336.bmp
407.52	0.72	557	3	6	105	per	con	low	mod	low	tg	ms	wh/0256.bmp
408.24	0.72	558	4	5	100	mem	lib	mod	mod	low	nt	ht	nh/0934_nh.bmp
408.96	0.72	559	4	8	44	per	lib	low	mod	low	tg	ht	wh/0036.bmp
409.68	0.72	560	5	8	57	mem	con	mod	mod	mod	nt	ms	nh/0784_nh.bmp
410.40	0.72	561	5	5	43	per	lib	mod	mod	mod	tg	ms	wh/0543.bmp
411.12	0.72	562	1	5	73	per	con	low	low	low	tg	ms	wh/0507.bmp
411.84	0.72	563	5	8	78	per	lib	mod	mod	mod	nt	fa	nh/0803_nh.bmp
412.56	0.72	564	3	5	33	per	lib	mod	mod	mod	nt	cr	nh/0099_nh.bmp
413.28	0.72	565	4	5	45	per	lib	mod	mod	mod	nt	fa	nh/0196_nh.bmp
414.00	0.72	566	6	6	82	mem	con	mod	mod	mod	nt	ht	nh/0588_nh.bmp
414.72	0.72	567	3	5	32	mem	con	mod	mod	low	nt	ht	nh/0465_nh.bmp
415.44	0.72	568	6	6	95	mem	con	mod	mod	mod	tg	ht	wh/0697.bmp
416.16	0.72	569	4	8	40	per	lib	low	mod	low	tg	ht	wh/0077.bmp
416.88	0.72	570	6	6	62	mem	lib	mod	mod	mod	tg	ht	wh/0328.bmp
417.60	0.72	571	6	5	106	mem	lib	mod	mod	low	nt	ht	nh/1023_nh.bmp
418.32	0.72	572	2	6	100	per	con	low	mod	low	nt	cr	nh/0404_nh.bmp
419.04	0.72	573	1	8	115	mem	con	low	low	mod	tg	ms	wh/0598.bmp
419.76	0.72	574	6	7	107	mem	lib	mod	mod	low	nt	ht	nh/0613_nh.bmp
420.48	0.72	575	1	5	69	per	con	low	low	low	tg	ms	wh/0823.bmp
421.20	0.72	576	5	8	54	mem	con	mod	mod	mod	tg	ms	wh/0462.bmp
421.92	0.72	577	4	6	59	mem	lib	mod	mod	mod	nt	ht	nh/0684_nh.bmp
422.64	0.72	578	3	6	22	per	con	mod	mod	mod	tg	ht	wh/0319.bmp
423.36	0.72	579	5	5	38	per	lib	mod	mod	mod	tg	ms	wh/0594.bmp
424.08	0.72	580	4	7	102	mem	lib	mod	mod	low	tg	ht	wh/0336.bmp
424.80	0.72	581	1	5	18	mem	con	mod	mod	low	tg	ht	wh/0967.bmp
425.52	0.72	582	4	7	65	mem	con	mod	mod	low	tg	ms	wh/0893.bmp
426.24	0.72	583	3	6	17	per	con	mod	mod	mod	nt	cr	nh/0874_nh.bmp
426.96	0.72	584	5	8	8	per	con	low	mod	low	tg	ms	wh/0284.bmp
427.68	0.72	585	3	8	39	per	lib	low	mod	low	nt	fa	nh/0690_nh.bmp
428.40	0.72	586	1	8	126	mem	con	low	low	mod	nt	ht	nh/0316_nh.bmp
429.12	0.72	587	5	5	100	mem	lib	mod	mod	low	nt	ht	nh/0934_nh.bmp
429.84	0.72	588	1	5	75	per	con	low	low	low	nt	cr	nh/0804_nh.bmp
430.56	0.72	589	5	8	69	per	lib	mod	mod	mod	nt	cr	nh/0909_nh.bmp
431.28	0.72	590	1	7	54	per	lib	mod	low	mod	tg	n/a	wh/1018.bmp
432.00	0.72	591	1	6	9	per	lib	mod	low	mod	tg	ht	wh/0220.bmp
432.72	0.72	592	5	8	92	per	con	mod	mod	mod	nt	cr	nh/0428_nh.bmp
433.44	0.72	593	4	5	34	per	lib	mod	mod	mod	tg	ht	wh/0680.bmp
434.16	0.72	594	3	5	107	mem	lib	mod	mod	low	tg	ht	wh/0608.bmp
434.88	0.72	595	1	6	120	mem	con	low	low	mod	tg	ht	wh/0933.bmp
435.60	0.72	596	6	5	100	mem	lib	mod	mod	low	nt	ht	nh/0934_nh.bmp
436.32	0.72	597	3	8	81	per	con	mod	mod	mod	nt	cr	nh/0209_nh.bmp
437.04	0.72	598	4	6	110	per	con	low	mod	low	nt	fa	nh/0355_nh.bmp
437.76	0.72	599	5	6	59	mem	lib	mod	mod	mod	nt	ht	nh/0684_nh.bmp
438.48	0.72	600	5	5	95	per	lib	low	mod	low	tg	ms	wh/0032.bmp
439.20	0.72	601	3	5	91	per	lib	low	mod	low	tg	ht	wh/0646.bmp
439.92	0.72	602	3	5	101	mem	lib	mod	mod	low	tg	ht	wh/0964.bmp
440.64	0.72	603	5	6	81	mem	con	mod	mod	mod	tg	ht	wh/0876.bmp
441.36	0.72	604	5	7	77	mem	con	mod	mod	low	tg	ht	wh/0489.bmp
442.08	0.72	605	1	5	126	mem	lib	low	low	mod	tg	ms	wh/0626.bmp
442.80	0.72	606	4	8	68	per	lib	mod	mod	mod	tg	ht	wh/0716.bmp
443.52	0.72	607	6	7	68	mem	con	mod	mod	low	nt	ht	nh/0503_nh.bmp
444.24	0.72	608	4	5	98	mem	lib	mod	mod	low	tg	ms	wh/0082.bmp
444.96	0.72	609	4	6	22	per	con	mod	mod	mod	tg	ht	wh/0319.bmp
445.68	0.72	610	3	7	97	mem	lib	mod	mod	low	nt	ht	nh/0802_nh.bmp
446.40	0.72	611	5	6	22	per	con	mod	mod	mod	tg	ht	wh/0319.bmp
447.12	0.72	612	5	8	11	per	con	low	mod	low	nt	cr	nh/0338_nh.bmp
447.84	0.72	613	2	8	73	per	lib	mod	mod	mod	tg	ht	wh/0540.bmp
448.56	0.72	614	6	8	11	per	con	low	mod	low	nt	cr	nh/0338_nh.bmp
449.28	0.72	615	6	6	49	mem	lib	mod	mod	mod	nt	ht	nh/0795_nh.bmp
450.00	0.72	616	4	8	41	per	lib	low	mod	low	tg	ht	wh/0232.bmp
450.72	0.72	617	1	8	32	mem	lib	low	low	mod	nt	ht	nh/0992_nh.bmp
451.44	0.72	618	6	8	90	per	con	mod	mod	mod	tg	ms	wh/0810.bmp
452.16	0.72	619	4	7	97	mem	lib	mod	mod	low	nt	ht	nh/0802_nh.bmp
452.88	0.72	620	4	6	88	mem	con	mod	mod	mod	nt	ht	nh/0843_nh.bmp
453.60	0.72	621	6	8	35	per	lib	low	mod	low	nt	cr	nh/0760_nh.bmp
454.32	0.72	622	5	8	40	per	lib	low	mod	low	tg	ht	wh/0077.bmp
455.04	0.72	623	4	8	88	per	con	mod	mod	mod	tg	ms	wh/0182.bmp
455.76	0.72	624	3	8	7	per	con	low	mod	low	tg	ms	wh/0382.bmp
456.48	0.72	625	4	8	104	mem	lib	mod	mod	mod	nt	ht	nh/0962_nh.bmp
457.20	0.72	626	5	5	45	per	lib	mod	mod	mod	nt	fa	nh/0196_nh.bmp
457.92	0.72	627	4	6	56	mem	lib	mod	mod	mod	tg	ms	wh/0591.bmp
458.64	0.72	628	4	8	6	per	con	low	mod	low	tg	ms	wh/0299.bmp
459.36	0.72	629	5	6	52	mem	lib	mod	mod	mod	nt	ht	nh/0380_nh.bmp
460.08	0.72	630	6	6	50	mem	lib	mod	mod	mod	nt	ht	nh/0442_nh.bmp
460.80	0.72	631	6	8	111	mem	lib	mod	mod	mod	nt	ht	nh/0957_nh.bmp
461.52	0.72	632	1	7	85	per	lib	low	low	low	nt	cr	nh/0088_nh.bmp
462.24	0.72	633	5	5	109	mem	lib	mod	mod	low	nt	ht	nh/0493_nh.bmp
462.96	0.72	634	3	8	86	per	con	mod	mod	mod	nt	cr	nh/0273_nh.bmp
463.68	0.72	635	5	5	48	per	lib	mod	mod	mod	tg	ht	wh/0542.bmp
464.40	0.72	636	4	8	79	per	lib	mod	mod	mod	tg	ht	wh/0772.bmp
465.12	0.72	637	5	8	64	mem	con	mod	mod	mod	tg	ms	wh/0947.bmp
465.84	0.72	638	3	8	73	per	lib	mod	mod	mod	tg	ht	wh/0540.bmp
466.56	0.72	639	3	6	100	per	con	low	mod	low	nt	cr	nh/0404_nh.bmp
467.28	0.72	640	5	6	98	per	con	low	mod	low	tg	ms	wh/0351.bmp
468.00	0.72	641	4	8	39	per	lib	low	mod	low	nt	fa	nh/0690_nh.bmp
468.72	0.72	642	5	8	107	mem	lib	mod	mod	mod	tg	ht	wh/0593.bmp
469.44	0.72	643	5	6	87	mem	con	mod	mod	mod	nt	ms	nh/0396_nh.bmp
470.16	0.72	644	4	8	102	mem	lib	mod	mod	mod	nt	ht	nh/0748_nh.bmp
470.88	0.72	645	1	8	26	mem	lib	low	low	mod	nt	ht	nh/0216_nh.bmp
471.60	0.72	646	5	6	108	per	con	low	mod	low	tg	ms	wh/0758.bmp
472.32	0.72	647	1	7	93	per	lib	low	low	low	nt	fa	nh/1009_nh.bmp
473.04	0.72	648	6	8	54	mem	con	mod	mod	mod	tg	ms	wh/0462.bmp
473.76	0.72	649	5	5	102	mem	lib	mod	mod	low	nt	ht	nh/0123_nh.bmp
474.48	0.72	650	3	8	83	per	con	mod	mod	mod	nt	n/a	nh/0805_nh.bmp
475.20	0.72	651	4	5	91	per	lib	low	mod	low	tg	ht	wh/0646.bmp
475.92	0.72	652	4	8	86	per	con	mod	mod	mod	nt	cr	nh/0273_nh.bmp
476.64	0.72	653	4	6	90	mem	con	mod	mod	mod	nt	ms	nh/0497_nh.bmp
477.36	0.72	654	5	5	98	mem	lib	mod	mod	low	tg	ms	wh/0082.bmp
478.08	0.72	655	6	5	93	per	lib	low	mod	low	tg	ht	wh/0940.bmp
478.80	0.72	656	6	5	98	mem	lib	mod	mod	low	tg	ms	wh/0082.bmp
479.52	0.72	657	5	8	55	mem	con	mod	mod	mod	tg	ht	wh/0973.bmp
480.24	0.72	658	6	5	48	per	lib	mod	mod	mod	tg	ht	wh/0542.bmp
480.96	0.72	659	2	5	18	mem	con	mod	mod	low	tg	ht	wh/0967.bmp
481.68	0.72	660	1	7	124	per	con	mod	low	mod	nt	cr	nh/0936_nh.bmp
482.40	0.72	661	5	6	88	mem	con	mod	mod	mod	nt	ht	nh/0843_nh.bmp
483.12	0.72	662	4	6	51	mem	lib	mod	mod	mod	tg	ht	wh/0398.bmp
483.84	0.72	663	4	8	81	per	con	mod	mod	mod	nt	cr	nh/0209_nh.bmp
484.56	0.72	664	4	8	12	per	con	low	mod	low	tg	ms	wh/0329.bmp
485.28	0.72	665	5	7	105	mem	lib	mod	mod	low	tg	ht	wh/0451.bmp
486.00	0.72	666	4	8	83	per	con	mod	mod	mod	nt	n/a	nh/0805_nh.bmp
486.72	0.72	667	1	7	16	mem	con	low	low	low	tg	ms	wh/0789.bmp
487.44	0.72	668	5	8	12	per	con	low	mod	low	tg	ms	wh/0329.bmp
488.16	0.72	669	4	6	92	mem	con	mod	mod	mod	tg	ht	wh/0095.bmp
488.88	0.72	670	5	8	5	per	con	low	mod	low	nt	cr	nh/0345_nh.bmp
489.60	0.72	671	5	7	102	mem	lib	mod	mod	low	tg	ht	wh/0336.bmp
490.32	0.72	672	6	6	59	mem	lib	mod	mod	mod	nt	ht	nh/0684_nh.bmp
491.04	0.72	673	5	8	104	mem	lib	mod	mod	mod	nt	ht	nh/0962_nh.bmp
491.76	0.72	674	4	6	25	per	con	mod	mod	mod	nt	cr	nh/0941_nh.bmp
492.48	0.72	675	5	8	81	per	con	mod	mod	mod	nt	cr	nh/0209_nh.bmp
493.20	0.72	676	5	8	56	mem	con	mod	mod	mod	nt	ht	nh/0447_nh.bmp
493.92	0.72	677	1	6	77	per	lib	low	low	low	nt	cr	nh/0225_nh.bmp
494.64	0.72	678	6	8	12	per	con	low	mod	low	tg	ms	wh/0329.bmp
495.36	0.72	679	6	7	105	mem	lib	mod	mod	low	tg	ht	wh/0451.bmp
496.08	0.72	680	6	6	108	per	con	low	mod	low	tg	ms	wh/0758.bmp
496.80	0.72	681	5	6	31	per	con	mod	mod	mod	tg	ms	wh/0187.bmp
497.52	0.72	682	4	6	109	per	con	low	mod	low	tg	ms	wh/0364.bmp
498.24	0.72	683	4	5	107	mem	lib	mod	mod	low	tg	ht	wh/0608.bmp
498.96	0.72	684	5	5	90	per	lib	low	mod	low	nt	fa	nh/0035_nh.bmp
499.68	0.72	685	1	6	2	per	lib	mod	low	mod	nt	cr	nh/0092_nh.bmp
500.40	0.72	686	1	7	123	per	con	mod	low	mod	tg	ht	wh/0860.bmp
501.12	0.72	687	1	7	62	per	lib	mod	low	mod	tg	ht	wh/0781.bmp
501.84	0.72	688	5	8	110	mem	lib	mod	mod	mod	tg	ht	wh/0350.bmp
502.56	0.72	689	5	6	23	per	con	mod	mod	mod	nt	cr	nh/0199_nh.bmp
503.28	0.72	690	5	5	96	per	lib	low	mod	low	nt	fa	nh/0660_nh.bmp
504.00	0.72	691	5	6	51	mem	lib	mod	mod	mod	tg	ht	wh/0398.bmp
504.72	0.72	692	4	8	7	per	con	low	mod	low	tg	ms	wh/0382.bmp
505.44	0.72	693	5	8	41	per	lib	low	mod	low	tg	ht	wh/0232.bmp
506.16	0.72	694	5	5	19	mem	con	mod	mod	low	nt	ht	nh/0238_nh.bmp
506.88	0.72	695	6	5	43	per	lib	mod	mod	mod	tg	ms	wh/0543.bmp
507.60	0.72	696	5	8	88	per	con	mod	mod	mod	tg	ms	wh/0182.bmp
508.32	0.72	697	1	6	122	mem	con	low	low	mod	tg	ms	wh/0281.bmp
509.04	0.72	698	1	6	114	mem	con	low	low	mod	tg	ms	wh/0774.bmp
509.76	0.72	699	2	5	29	mem	con	mod	mod	low	nt	ms	nh/0383_nh.bmp
510.48	0.72	700	5	8	44	per	lib	low	mod	low	tg	ht	wh/0036.bmp
511.20	0.72	701	5	6	109	per	con	low	mod	low	tg	ms	wh/0364.bmp
511.92	0.72	702	6	5	96	per	lib	low	mod	low	nt	fa	nh/0660_nh.bmp
512.64	0.72	703	4	5	32	mem	con	mod	mod	low	nt	ht	nh/0465_nh.bmp
513.36	0.72	704	4	8	73	per	lib	mod	mod	mod	tg	ht	wh/0540.bmp
514.08	0.72	705	5	6	56	mem	lib	mod	mod	mod	tg	ms	wh/0591.bmp
514.80	0.72	706	4	7	109	mem	lib	mod	mod	low	tg	ht	wh/0079.bmp
515.52	0.72	707	3	5	18	mem	con	mod	mod	low	tg	ht	wh/0967.bmp
516.24	0.72	708	6	8	109	mem	lib	mod	mod	mod	tg	ms	wh/0339.bmp
516.96	0.72	709	3	5	82	per	lib	low	mod	low	nt	fa	nh/0194_nh.bmp
517.68	0.72	710	5	8	73	per	lib	mod	mod	mod	tg	ht	wh/0540.bmp
518.40	0.72	711	4	5	20	mem	con	mod	mod	low	tg	ht	wh/0075.bmp
519.12	0.72	712	4	8	42	per	lib	low	mod	low	nt	fa	nh/0361_nh.bmp
519.84	0.72	713	4	7	72	mem	con	mod	mod	low	nt	ht	nh/0577_nh.bmp
520.56	0.72	714	6	8	107	mem	lib	mod	mod	mod	tg	ht	wh/0593.bmp
521.28	0.72	715	5	8	6	per	con	low	mod	low	tg	ms	wh/0299.bmp
522.00	0.72	716	6	8	4	per	con	low	mod	low	nt	cr	nh/0134_nh.bmp
522.72	0.72	717	4	5	33	per	lib	mod	mod	mod	nt	cr	nh/0099_nh.bmp
523.44	0.72	718	5	7	72	mem	con	mod	mod	low	nt	ht	nh/0577_nh.bmp
524.16	0.72	719	5	6	92	mem	con	mod	mod	mod	tg	ht	wh/0095.bmp
524.88	0.72	720	6	6	51	mem	lib	mod	mod	mod	tg	ht	wh/0398.bmp
525.60	0.72	721	4	8	96	per	con	mod	mod	mod	tg	ms	wh/0904.bmp
526.32	0.72	722	5	5	112	mem	lib	mod	mod	low	tg	ht	wh/0635.bmp
527.04	0.72	723	6	5	95	per	lib	low	mod	low	tg	ms	wh/0032.bmp
527.76	0.72	724	6	7	77	mem	con	mod	mod	low	tg	ht	wh/0489.bmp
528.48	0.72	725	4	6	100	per	con	low	mod	low	nt	cr	nh/0404_nh.bmp
529.20	0.72	726	6	8	78	per	lib	mod	mod	mod	nt	fa	nh/0803_nh.bmp
529.92	0.72	727	6	8	89	per	con	mod	mod	mod	tg	ht	wh/0650.bmp
530.64	0.72	728	3	8	49	mem	con	mod	mod	mod	tg	ms	wh/0397.bmp
531.36	0.72	729	5	8	75	per	lib	mod	mod	mod	nt	fa	nh/0928_nh.bmp
532.08	0.72	730	6	8	110	mem	lib	mod	mod	mod	tg	ht	wh/0350.bmp
532.80	0.72	731	5	7	97	mem	lib	mod	mod	low	nt	ht	nh/0802_nh.bmp
533.52	0.72	732	6	8	106	mem	lib	mod	mod	mod	nt	ht	nh/0946_nh.bmp
534.24	0.72	733	5	5	107	mem	lib	mod	mod	low	tg	ht	wh/0608.bmp
534.96	0.72	734	5	7	73	mem	con	mod	mod	low	nt	ht	nh/0508_nh.bmp
535.68	0.72	735	5	5	28	mem	con	mod	mod	low	nt	ht	nh/0125_nh.bmp
536.40	0.72	736	6	6	88	mem	con	mod	mod	mod	nt	ht	nh/0843_nh.bmp
537.12	0.72	737	5	6	90	mem	con	mod	mod	mod	nt	ms	nh/0497_nh.bmp
537.84	0.72	738	5	8	7	per	con	low	mod	low	tg	ms	wh/0382.bmp
538.56	0.72	739	3	5	21	mem	con	mod	mod	low	tg	ms	wh/0074.bmp
539.28	0.72	740	1	5	115	mem	lib	low	low	mod	nt	ht	nh/0044_nh.bmp
540.00	0.72	741	1	6	41	mem	lib	low	low	low	tg	ht	wh/0655.bmp
540.72	0.72	742	5	8	42	per	lib	low	mod	low	nt	fa	nh/0361_nh.bmp
541.44	0.72	743	5	8	96	per	con	mod	mod	mod	tg	ms	wh/0904.bmp
542.16	0.72	744	6	8	55	mem	con	mod	mod	mod	tg	ht	wh/0973.bmp
542.88	0.72	745	5	8	63	mem	con	mod	mod	mod	nt	ms	nh/0563_nh.bmp
543.60	0.72	746	5	6	25	per	con	mod	mod	mod	nt	cr	nh/0941_nh.bmp
544.32	0.72	747	6	6	31	per	con	mod	mod	mod	tg	ms	wh/0187.bmp
545.04	0.72	748	5	7	71	mem	con	mod	mod	low	tg	ht	wh/0619.bmp
545.76	0.72	749	4	8	49	mem	con	mod	mod	mod	tg	ms	wh/0397.bmp
546.48	0.72	750	6	5	102	mem	lib	mod	mod	low	nt	ht	nh/0123_nh.bmp
547.20	0.72	751	4	5	82	per	lib	low	mod	low	nt	fa	nh/0194_nh.bmp
547.92	0.72	752	6	8	81	per	con	mod	mod	mod	nt	cr	nh/0209_nh.bmp
548.64	0.72	753	5	8	39	per	lib	low	mod	low	nt	fa	nh/0690_nh.bmp
549.36	0.72	754	5	5	91	per	lib	low	mod	low	tg	ht	wh/0646.bmp
550.08	0.72	755	6	6	98	per	con	low	mod	low	tg	ms	wh/0351.bmp
550.80	0.72	756	4	5	18	mem	con	mod	mod	low	tg	ht	wh/0967.bmp
551.52	0.72	757	6	8	73	per	lib	mod	mod	mod	tg	ht	wh/0540.bmp
552.24	0.72	758	5	5	42	per	lib	mod	mod	mod	nt	cr	nh/0446_nh.bmp
552.96	0.72	759	6	6	18	per	con	mod	mod	mod	tg	ht	wh/0094.bmp
553.68	0.72	760	5	8	100	mem	lib	mod	mod	mod	tg	ht	wh/0558.bmp
554.40	0.72	761	6	8	63	mem	con	mod	mod	mod	nt	ms	nh/0563_nh.bmp
555.12	0.72	762	1	5	56	per	con	mod	low	mod	tg	ht	wh/0718.bmp
555.84	0.72	763	6	8	71	per	lib	mod	mod	mod	tg	ht	wh/0807.bmp
556.56	0.72	764	4	6	105	per	con	low	mod	low	tg	ms	wh/0256.bmp
557.28	0.72	765	5	8	79	per	lib	mod	mod	mod	tg	ht	wh/0772.bmp
558.00	0.72	766	1	7	40	per	con	low	low	low	nt	cr	nh/0768_nh.bmp
558.72	0.72	767	6	5	45	per	lib	mod	mod	mod	nt	fa	nh/0196_nh.bmp
559.44	0.72	768	6	6	87	mem	con	mod	mod	mod	nt	ms	nh/0396_nh.bmp
560.16	0.72	769	6	8	42	per	lib	low	mod	low	nt	fa	nh/0361_nh.bmp
560.88	0.72	770	6	6	23	per	con	mod	mod	mod	nt	cr	nh/0199_nh.bmp
561.60	0.72	771	5	6	105	per	con	low	mod	low	tg	ms	wh/0256.bmp
562.32	0.72	772	6	5	28	mem	con	mod	mod	low	nt	ht	nh/0125_nh.bmp
563.04	0.72	773	1	5	59	per	con	mod	low	mod	tg	ms	wh/0129.bmp
563.76	0.72	774	1	6	119	mem	con	low	low	mod	nt	ms	nh/0038_nh.bmp
564.48	0.72	775	1	6	1	per	lib	mod	low	mod	nt	fa	nh/0267_nh.bmp
565.20	0.72	776	6	8	92	per	con	mod	mod	mod	nt	cr	nh/0428_nh.bmp
565.92	0.72	777	5	5	33	per	lib	mod	mod	mod	nt	cr	nh/0099_nh.bmp
566.64	0.72	778	6	8	8	per	con	low	mod	low	tg	ms	wh/0284.bmp
567.36	0.72	779	6	7	97	mem	lib	mod	mod	low	nt	ht	nh/0802_nh.bmp
568.08	0.72	780	5	8	68	per	lib	mod	mod	mod	tg	ht	wh/0716.bmp
568.80	0.72	781	4	6	85	mem	con	mod	mod	mod	tg	ht	wh/0954.bmp
569.52	0.72	782	4	5	21	mem	con	mod	mod	low	tg	ms	wh/0074.bmp
570.24	0.72	783	5	7	109	mem	lib	mod	mod	low	tg	ht	wh/0079.bmp
570.96	0.72	784	6	6	56	mem	lib	mod	mod	mod	tg	ms	wh/0591.bmp
571.68	0.72	785	6	7	109	mem	lib	mod	mod	low	tg	ht	wh/0079.bmp
572.40	0.72	786	6	6	111	per	con	low	mod	low	nt	cr	nh/0730_nh.bmp
573.12	0.72	787	5	5	82	per	lib	low	mod	low	nt	fa	nh/0194_nh.bmp
573.84	0.72	788	1	6	11	per	lib	mod	low	mod	nt	cr	nh/0277_nh.bmp
574.56	0.72	789	1	6	125	mem	con	low	low	mod	nt	ht	nh/0721_nh.bmp
575.28	0.72	790	6	5	109	mem	lib	mod	mod	low	nt	ht	nh/0493_nh.bmp
576.00	0.72	791	6	7	71	mem	con	mod	mod	low	tg	ht	wh/0619.bmp
576.72	0.72	792	5	8	60	mem	con	mod	mod	mod	nt	ht	nh/0548_nh.bmp
577.44	0.72	793	6	7	98	mem	lib	mod	mod	low	nt	ht	nh/0417_nh.bmp
578.16	0.72	794	3	5	29	mem	con	mod	mod	low	nt	ms	nh/0383_nh.bmp
578.88	0.72	795	6	8	6	per	con	low	mod	low	tg	ms	wh/0299.bmp
579.60	0.72	796	6	6	99	per	con	low	mod	low	nt	cr	nh/0744_nh.bmp
580.32	0.72	797	6	7	104	mem	lib	mod	mod	low	nt	ht	nh/0153_nh.bmp
581.04	0.72	798	1	7	122	per	con	mod	low	mod	tg	ms	wh/0530.bmp
581.76	0.72	799	5	5	32	mem	con	mod	mod	low	nt	ht	nh/0465_nh.bmp
582.48	0.72	800	6	8	44	per	lib	low	mod	low	tg	ht	wh/0036.bmp
583.20	0.72	801	1	7	10	mem	con	low	low	low	tg	ms	wh/0579.bmp
583.92	0.72	802	5	8	49	mem	con	mod	mod	mod	tg	ms	wh/0397.bmp
584.64	0.72	803	5	6	85	mem	con	mod	mod	mod	tg	ht	wh/0954.bmp
585.36	0.72	804	5	8	15	per	con	low	mod	low	nt	cr	nh/0510_nh.bmp
586.08	0.72	805	6	5	112	mem	lib	mod	mod	low	tg	ht	wh/0635.bmp
586.80	0.72	806	5	6	100	per	con	low	mod	low	nt	cr	nh/0404_nh.bmp
587.52	0.72	807	5	6	110	per	con	low	mod	low	nt	fa	nh/0355_nh.bmp
588.24	0.72	808	1	7	46	per	con	low	low	low	nt	cr	nh/0055_nh.bmp
588.96	0.72	809	1	8	122	mem	con	low	low	mod	tg	ht	wh/0290.bmp
589.68	0.72	810	1	7	114	per	con	mod	low	mod	nt	cr	nh/0531_nh.bmp
590.40	0.72	811	6	5	33	per	lib	mod	mod	mod	nt	cr	nh/0099_nh.bmp
591.12	0.72	812	4	6	17	per	con	mod	mod	mod	nt	cr	nh/0874_nh.bmp
591.84	0.72	813	1	7	4	mem	con	low	low	low	tg	ms	wh/0815.bmp
592.56	0.72	814	5	5	34	per	lib	mod	mod	mod	tg	ht	wh/0680.bmp
593.28	0.72	815	5	5	21	mem	con	mod	mod	low	tg	ms	wh/0074.bmp
594.00	0.72	816	5	7	65	mem	con	mod	mod	low	tg	ms	wh/0893.bmp
594.72	0.72	817	6	8	57	mem	con	mod	mod	mod	nt	ms	nh/0784_nh.bmp
595.44	0.72	818	6	8	75	per	lib	mod	mod	mod	nt	fa	nh/0928_nh.bmp
596.16	0.72	819	6	7	65	mem	con	mod	mod	low	tg	ms	wh/0893.bmp
596.88	0.72	820	6	6	52	mem	lib	mod	mod	mod	nt	ht	nh/0380_nh.bmp
597.60	0.72	821	5	8	83	per	con	mod	mod	mod	nt	n/a	nh/0805_nh.bmp
598.32	0.72	822	6	6	25	per	con	mod	mod	mod	nt	cr	nh/0941_nh.bmp
599.04	0.72	823	5	8	37	per	lib	low	mod	low	tg	ht	wh/0818.bmp
599.76	0.72	824	1	7	115	per	con	mod	low	mod	tg	ms	wh/0581.bmp
600.48	0.72	825	1	6	66	per	lib	low	low	low	nt	fa	nh/0173_nh.bmp
601.20	0.72	826	6	5	91	per	lib	low	mod	low	tg	ht	wh/0646.bmp
601.92	0.72	827	6	8	69	per	lib	mod	mod	mod	nt	cr	nh/0909_nh.bmp
602.64	0.72	828	6	8	96	per	con	mod	mod	mod	tg	ms	wh/0904.bmp
603.36	0.72	829	6	8	5	per	con	low	mod	low	nt	cr	nh/0345_nh.bmp
604.08	0.72	830	1	5	123	mem	lib	low	low	mod	tg	ht	wh/0569.bmp
604.80	0.72	831	6	5	107	mem	lib	mod	mod	low	tg	ht	wh/0608.bmp
605.52	0.72	832	1	6	14	per	lib	mod	low	mod	tg	ht	wh/0699.bmp
606.24	0.72	833	6	8	64	mem	con	mod	mod	mod	tg	ms	wh/0947.bmp
606.96	0.72	834	4	5	101	mem	lib	mod	mod	low	tg	ht	wh/0964.bmp
607.68	0.72	835	6	5	90	per	lib	low	mod	low	nt	fa	nh/0035_nh.bmp
608.40	0.72	836	6	8	39	per	lib	low	mod	low	nt	fa	nh/0690_nh.bmp
609.12	0.72	837	6	8	37	per	lib	low	mod	low	tg	ht	wh/0818.bmp
609.84	0.72	838	5	6	17	per	con	mod	mod	mod	nt	cr	nh/0874_nh.bmp
610.56	0.72	839	5	7	111	mem	lib	mod	mod	low	tg	ht	wh/0150.bmp
611.28	0.72	840	1	7	48	per	con	low	low	low	nt	cr	nh/0433_nh.bmp
612.00	0.72	841	4	5	29	mem	con	mod	mod	low	nt	ms	nh/0383_nh.bmp
612.72	0.72	842	6	5	34	per	lib	mod	mod	mod	tg	ht	wh/0680.bmp
613.44	0.72	843	6	5	82	per	lib	low	mod	low	nt	fa	nh/0194_nh.bmp
614.16	0.72	844	1	5	8	mem	con	low	low	low	tg	ht	wh/0113.bmp
614.88	0.72	845	6	6	109	per	con	low	mod	low	tg	ms	wh/0364.bmp
615.60	0.72	846	5	5	101	mem	lib	mod	mod	low	tg	ht	wh/0964.bmp
616.32	0.72	847	6	6	22	per	con	mod	mod	mod	tg	ht	wh/0319.bmp
617.04	0.72	848	5	6	30	per	con	mod	mod	mod	tg	ms	wh/0855.bmp
617.76	0.72	849	5	5	18	mem	con	mod	mod	low	tg	ht	wh/0967.bmp
618.48	0.72	850	5	8	102	mem	lib	mod	mod	mod	nt	ht	nh/0748_nh.bmp
619.20	0.72	851	6	8	15	per	con	low	mod	low	nt	cr	nh/0510_nh.bmp
619.92	0.72	852	6	8	104	mem	lib	mod	mod	mod	nt	ht	nh/0962_nh.bmp
620.64	0.72	853	6	6	85	mem	con	mod	mod	mod	tg	ht	wh/0954.bmp
621.36	0.72	854	6	6	105	per	con	low	mod	low	tg	ms	wh/0256.bmp
622.08	0.72	855	6	6	81	mem	con	mod	mod	mod	tg	ht	wh/0876.bmp
622.80	0.72	856	6	8	79	per	lib	mod	mod	mod	tg	ht	wh/0772.bmp
623.52	0.72	857	1	5	66	per	con	low	low	low	nt	cr	nh/0384_nh.bmp
624.24	0.72	858	6	8	56	mem	con	mod	mod	mod	nt	ht	nh/0447_nh.bmp
624.96	0.72	859	6	7	69	mem	con	mod	mod	low	nt	ms	nh/0568_nh.bmp
625.68	0.72	860	6	7	72	mem	con	mod	mod	low	nt	ht	nh/0577_nh.bmp
626.40	0.72	861	6	8	68	per	lib	mod	mod	mod	tg	ht	wh/0716.bmp
627.12	0.72	862	5	5	29	mem	con	mod	mod	low	nt	ms	nh/0383_nh.bmp
627.84	0.72	863	6	5	32	mem	con	mod	mod	low	nt	ht	nh/0465_nh.bmp
628.56	0.72	864	6	8	41	per	lib	low	mod	low	tg	ht	wh/0232.bmp
629.28	0.72	865	6	5	29	mem	con	mod	mod	low	nt	ms	nh/0383_nh.bmp
630.00	0.72	866	6	8	88	per	con	mod	mod	mod	tg	ms	wh/0182.bmp
630.72	0.72	867	6	6	30	per	con	mod	mod	mod	tg	ms	wh/0855.bmp
631.44	0.72	868	6	7	79	mem	con	mod	mod	low	tg	ms	wh/0029.bmp
632.16	0.72	869	5	8	86	per	con	mod	mod	mod	nt	cr	nh/0273_nh.bmp
632.88	0.72	870	6	8	49	mem	con	mod	mod	mod	tg	ms	wh/0397.bmp
633.60	0.72	871	6	7	111	mem	lib	mod	mod	low	tg	ht	wh/0150.bmp
634.32	0.72	872	6	8	83	per	con	mod	mod	mod	nt	n/a	nh/0805_nh.bmp
635.04	0.72	873	6	6	100	per	con	low	mod	low	nt	cr	nh/0404_nh.bmp
635.76	0.72	874	5	5	20	mem	con	mod	mod	low	tg	ht	wh/0075.bmp
636.48	0.72	875	6	5	101	mem	lib	mod	mod	low	tg	ht	wh/0964.bmp
637.20	0.72	876	6	5	38	per	lib	mod	mod	mod	tg	ms	wh/0594.bmp
637.92	0.72	877	6	7	73	mem	con	mod	mod	low	nt	ht	nh/0508_nh.bmp
638.64	0.72	878	1	5	77	per	con	low	low	low	nt	cr	nh/0812_nh.bmp
639.36	0.72	879	6	8	40	per	lib	low	mod	low	tg	ht	wh/0077.bmp
640.08	0.72	880	6	8	86	per	con	mod	mod	mod	nt	cr	nh/0273_nh.bmp
640.80	0.72	881	6	5	20	mem	con	mod	mod	low	tg	ht	wh/0075.bmp
641.52	0.72	882	6	8	7	per	con	low	mod	low	tg	ms	wh/0382.bmp
642.24	0.72	883	6	5	42	per	lib	mod	mod	mod	nt	cr	nh/0446_nh.bmp
642.96	0.72	884	6	6	90	mem	con	mod	mod	mod	nt	ms	nh/0497_nh.bmp
643.68	0.72	885	6	8	60	mem	con	mod	mod	mod	nt	ht	nh/0548_nh.bmp
644.40	0.72	886	6	5	21	mem	con	mod	mod	low	tg	ms	wh/0074.bmp
645.12	0.72	887	6	5	19	mem	con	mod	mod	low	nt	ht	nh/0238_nh.bmp
645.84	0.72	888	6	7	102	mem	lib	mod	mod	low	tg	ht	wh/0336.bmp
646.56	0.72	889	6	6	92	mem	con	mod	mod	mod	tg	ht	wh/0095.bmp
647.28	0.72	890	6	8	72	per	lib	mod	mod	mod	nt	fa	nh/0371_nh.bmp
648.00	0.72	891	1	5	58	per	con	mod	low	mod	nt	cr	nh/0927_nh.bmp
648.72	0.72	892	6	5	18	mem	con	mod	mod	low	tg	ht	wh/0967.bmp
649.44	0.72	893	6	8	100	mem	lib	mod	mod	mod	tg	ht	wh/0558.bmp
650.16	0.72	894	6	6	17	per	con	mod	mod	mod	nt	cr	nh/0874_nh.bmp
650.88	0.72	895	6	8	102	mem	lib	mod	mod	mod	nt	ht	nh/0748_nh.bmp
651.60	0.72	896	6	6	110	per	con	low	mod	low	nt	fa	nh/0355_nh.bmp
