onset	duration	trial	pres	ts_blk	ts_trl	task	crit	disc	mem_disc	per_disc	per_type	accuracy	stim_file
7.20	0.72	1	1	6	118	mem	lib	mod	mod	mod	tg	ht	wh/0835.bmp
7.92	0.72	2	1	8	123	mem	lib	mod	mod	mod	tg	ms	wh/0995.bmp
8.64	0.72	3	1	7	52	per	con	mod	mod	mod	nt	cr	nh/0971_nh.bmp
9.36	0.72	4	1	6	75	per	con	mod	mod	mod	nt	cr	nh/0544_nh.bmp
10.08	0.72	5	1	7	120	mem	lib	mod	mod	low	nt	ms	nh/0820_nh.bmp
10.80	0.72	6	1	5	51	mem	con	mod	mod	low	tg	ht	wh/0612.bmp
11.52	0.72	7	1	5	53	mem	con	mod	mod	low	nt	ms	nh/0157_nh.bmp
12.24	0.72	8	1	6	86	mem	con	mod	mod	mod	nt	ht	nh/0420_nh.bmp
12.96	0.72	9	1	8	117	mem	lib	mod	mod	mod	tg	ht	wh/0337.bmp
13.68	0.72	10	1	7	87	per	lib	low	mod	low	tg	ht	wh/0018.bmp
14.40	0.72	11	1	6	87	mem	con	mod	mod	mod	nt	ms	nh/0546_nh.bmp
15.12	0.72	12	1	7	49	per	con	mod	mod	mod	tg	ms	wh/0179.bmp
15.84	0.72	13	1	5	65	per	con	mod	low	mod	nt	cr	nh/0839_nh.bmp
16.56	0.72	14	1	7	109	per	lib	mod	mod	mod	tg	ht	wh/0378.bmp
17.28	0.72	15	1	6	74	per	con	mod	mod	mod	nt	cr	nh/0552_nh.bmp
18.00	0.72	16	1	5	60	mem	con	mod	mod	low	nt	ms	nh/0297_nh.bmp
18.72	0.72	17	1	8	122	mem	lib	mod	mod	mod	nt	ht	nh/0797_nh.bmp
19.44	0.72	18	1	6	73	per	con	mod	mod	mod	nt	cr	nh/0978_nh.bmp
20.16	0.72	19	1	7	75	mem	con	low	low	low	tg	ms	wh/0280.bmp
20.88	0.72	20	1	7	31	per	con	low	mod	low	nt	fa	nh/0254_nh.bmp
21.60	0.72	21	1	7	35	mem	con	mod	mod	low	nt	ms	nh/0793_nh.bmp
22.32	0.72	22	1	7	91	per	lib	low	mod	low	nt	fa	nh/1019_nh.bmp
23.04	0.72	23	2	8	117	mem	lib	mod	mod	mod	tg	ht	wh/0337.bmp
23.76	0.72	24	1	6	8	per	lib	mod	mod	mod	tg	ht	wh/0968.bmp
24.48	0.72	25	1	7	125	mem	lib	mod	mod	low	tg	ht	wh/0574.bmp
25.20	0.72	26	1	6	106	per	lib	low	mod	low	nt	fa	nh/0262_nh.bmp
25.92	0.72	27	2	7	35	mem	con	mod	mod	low	nt	ms	nh/0793_nh.bmp
26.64	0.72	28	1	5	122	per	lib	mod	low	mod	tg	ht	wh/0945.bmp
27.36	0.72	29	1	7	25	per	con	low	mod	low	tg	ms	wh/1014.bmp
28.08	0.72	30	1	5	113	per	lib	mod	low	mod	nt	fa	nh/0402_nh.bmp
28.80	0.72	31	2	6	75	per	con	mod	mod	mod	nt	cr	nh/0544_nh.bmp
29.52	0.72	32	1	6	3	per	lib	mod	mod	mod	nt	fa	nh/0666_nh.bmp
30.24	0.72	33	1	8	63	mem	con	mod	mod	mod	nt	ms	nh/0609_nh.bmp
30.96	0.72	34	1	6	102	per	lib	low	mod	low	nt	fa	nh/0108_nh.bmp
31.68	0.72	35	1	8	51	mem	con	mod	mod	mod	tg	ms	wh/0495.bmp
32.40	0.72	36	2	6	87	mem	con	mod	mod	mod	nt	ms	nh/0546_nh.bmp
33.12	0.72	37	1	5	87	per	con	low	low	low	tg	ms	wh/0587.bmp
33.84	0.72	38	1	7	119	mem	lib	mod	mod	low	nt	ht	nh/0491_nh.bmp
34.56	0.72	39	2	5	60	mem	con	mod	mod	low	nt	ms	nh/0297_nh.bmp
35.28	0.72	40	1	6	35	per	con	low	mod	low	nt	cr	nh/0172_nh.bmp
36.00	0.72	41	1	6	36	per	con	low	mod	low	tg	ms	wh/0848.bmp
36.72	0.72	42	1	7	85	per	lib	low	mod	low	tg	ms	wh/0023.bmp
37.44	0.72	43	1	8	60	mem	con	mod	mod	mod	tg	ms	wh/0851.bmp
38.16	0.72	44	1	7	7	mem	lib	low	low	low	nt	ht	nh/0480_nh.bmp
38.88	0.72	45	2	8	63	mem	con	mod	mod	mod	nt	ms	nh/0609_nh.bmp
39.60	0.72	46	1	6	128	mem	lib	mod	mod	mod	nt	ht	nh/0385_nh.bmp
40.32	0.72	47	1	6	33	per	con	low	mod	low	tg	ms	wh/0042.bmp
41.04	0.72	48	2	8	122	mem	lib	mod	mod	mod	nt	ht	nh/0797_nh.bmp
41.76	0.72	49	1	5	61	mem	con	mod	mod	low	tg	ht	wh/0024.bmp
42.48	0.72	50	1	6	83	mem	con	mod	mod	mod	nt	ms	nh/0958_nh.bmp
43.20	0.72	51	1	6	116	mem	lib	mod	mod	mod	nt	ms	nh/0778_nh.bmp
43.92	0.72	52	1	8	25	per	lib	mod	low	mod	tg	ht	wh/0869.bmp
44.64	0.72	53	1	6	79	per	con	mod	mod	mod	tg	ms	wh/0852.bmp
45.36	0.72	54	1	8	127	mem	lib	mod	mod	mod	nt	ht	nh/0408_nh.bmp
46.08	0.72	55	2	7	85	per	lib	low	mod	low	tg	ms	wh/0023.bmp
46.80	0.72	56	2	6	128	mem	lib	mod	mod	mod	nt	ht	nh/0385_nh.bmp
47.52	0.72	57	2	6	118	mem	lib	mod	mod	mod	tg	ht	wh/0835.bmp
48.24	0.72	58	1	7	46	mem	con	mod	mod	low	tg	ms	wh/0374.bmp
48.96	0.72	59	1	7	118	mem	lib	mod	mod	low	tg	n/a	wh/0875.bmp
49.68	0.72	60	1	7	95	per	lib	low	mod	low	tg	ms	wh/0678.bmp
50.40	0.72	61	1	5	36	mem	con	low	low	low	nt	ht	nh/0518_nh.bmp
51.12	0.72	62	1	7	62	per	con	mod	mod	mod	nt	cr	nh/0549_nh.bmp
51.84	0.72	63	1	7	105	per	lib	mod	mod	mod	nt	fa	nh/0239_nh.bmp
52.56	0.72	64	1	6	76	per	con	mod	mod	mod	tg	ht	wh/0300.bmp
53.28	0.72	65	1	7	45	mem	con	mod	mod	low	tg	ms	wh/0165.bmp
54.00	0.72	66	1	5	11	mem	lib	mod	mod	low	nt	ht	nh/0394_nh.bmp
54.72	0.72	67	3	7	35	mem	con	mod	mod	low	nt	ms	nh/0793_nh.bmp
55.44	0.72	68	1	8	90	per	con	mod	low	mod	tg	ms	wh/0234.bmp
56.16	0.72	69	1	5	7	mem	lib	mod	mod	low	nt	ht	nh/0453_nh.bmp
56.88	0.72	70	1	6	43	per	con	low	mod	low	tg	ht	wh/0255.bmp
57.60	0.72	71	1	6	92	mem	con	mod	mod	mod	tg	ht	wh/0441.bmp
58.32	0.72	72	2	6	8	per	lib	mod	mod	mod	tg	ht	wh/0968.bmp
59.04	0.72	73	3	6	128	mem	lib	mod	mod	mod	nt	ht	nh/0385_nh.bmp
59.76	0.72	74	1	7	37	mem	con	mod	mod	low	nt	ht	nh/0746_nh.bmp
60.48	0.72	75	1	6	17	mem	lib	low	low	low	nt	ht	nh/0258_nh.bmp
61.20	0.72	76	2	7	91	per	lib	low	mod	low	nt	fa	nh/1019_nh.bmp
61.92	0.72	77	1	6	44	per	con	low	mod	low	nt	cr	nh/0450_nh.bmp
62.64	0.72	78	1	8	58	mem	con	mod	mod	mod	nt	ht	nh/0269_nh.bmp
63.36	0.72	79	4	7	35	mem	con	mod	mod	low	nt	ms	nh/0793_nh.bmp
64.08	0.72	80	1	7	82	per	lib	low	mod	low	tg	ms	wh/0618.bmp
64.80	0.72	81	1	6	66	per	con	mod	mod	mod	tg	ht	wh/0586.bmp
65.52	0.72	82	1	6	122	mem	lib	mod	mod	mod	tg	ht	wh/0318.bmp
66.24	0.72	83	2	6	86	mem	con	mod	mod	mod	nt	ht	nh/0420_nh.bmp
66.96	0.72	84	1	7	63	per	con	mod	mod	mod	tg	ms	wh/0366.bmp
67.68	0.72	85	1	8	128	mem	lib	mod	mod	mod	tg	ht	wh/0623.bmp
68.40	0.72	86	1	5	13	mem	lib	mod	mod	low	nt	ht	nh/0756_nh.bmp
69.12	0.72	87	2	7	95	per	lib	low	mod	low	tg	ms	wh/0678.bmp
69.84	0.72	88	1	5	54	mem	con	mod	mod	low	nt	ht	nh/0883_nh.bmp
70.56	0.72	89	1	5	50	mem	con	mod	mod	low	nt	ms	nh/0253_nh.bmp
71.28	0.72	90	2	7	105	per	lib	mod	mod	mod	nt	fa	nh/0239_nh.bmp
72.00	0.72	91	1	7	14	mem	lib	low	low	low	tg	ht	wh/0566.bmp
72.72	0.72	92	2	5	54	mem	con	mod	mod	low	nt	ht	nh/0883_nh.bmp
73.44	0.72	93	2	7	120	mem	lib	mod	mod	low	nt	ms	nh/0820_nh.bmp
74.16	0.72	94	1	6	50	mem	con	low	low	mod	nt	ms	nh/0416_nh.bmp
74.88	0.72	95	1	5	9	mem	lib	mod	mod	low	tg	ht	wh/0114.bmp
75.60	0.72	96	2	8	58	mem	con	mod	mod	mod	nt	ht	nh/0269_nh.bmp
76.32	0.72	97	1	7	86	per	lib	low	mod	low	nt	cr	nh/0986_nh.bmp
77.04	0.72	98	2	7	62	per	con	mod	mod	mod	nt	cr	nh/0549_nh.bmp
77.76	0.72	99	1	7	47	mem	con	mod	mod	low	tg	ht	wh/0193.bmp
78.48	0.72	100	1	5	21	mem	lib	low	low	mod	tg	ht	wh/1002.bmp
79.20	0.72	101	3	5	60	mem	con	mod	mod	low	nt	ms	nh/0297_nh.bmp
79.92	0.72	102	2	7	37	mem	con	mod	mod	low	nt	ht	nh/0746_nh.bmp
80.64	0.72	103	2	5	53	mem	con	mod	mod	low	nt	ms	nh/0157_nh.bmp
81.36	0.72	104	1	6	15	per	lib	mod	mod	mod	tg	ms	wh/0827.bmp
82.08	0.72	105	3	6	8	per	lib	mod	mod	mod	tg	ht	wh/0968.bmp
82.80	0.72	106	1	8	50	mem	con	mod	mod	mod	nt	ms	nh/0602_nh.bmp
83.52	0.72	107	1	6	93	mem	con	mod	mod	mod	tg	ht	wh/0060.bmp
84.24	0.72	108	2	7	109	per	lib	mod	mod	mod	tg	ht	wh/0378.bmp
84.96	0.72	109	1	6	105	per	lib	low	mod	low	tg	ms	wh/0734.bmp
85.68	0.72	110	4	6	8	per	lib	mod	mod	mod	tg	ht	wh/0968.bmp
86.40	0.72	111	1	6	37	per	con	low	mod	low	tg	ht	wh/0939.bmp
87.12	0.72	112	1	7	107	per	lib	mod	mod	mod	tg	ht	wh/0717.bmp
87.84	0.72	113	1	7	102	per	lib	mod	mod	mod	tg	ms	wh/0020.bmp
88.56	0.72	114	1	8	126	mem	lib	mod	mod	mod	tg	ht	wh/0560.bmp
89.28	0.72	115	1	5	46	mem	con	low	low	low	nt	ms	nh/0728_nh.bmp
90.00	0.72	116	1	7	124	mem	lib	mod	mod	low	tg	ht	wh/0241.bmp
90.72	0.72	117	1	6	5	per	lib	mod	mod	mod	nt	fa	nh/0275_nh.bmp
91.44	0.72	118	1	8	124	mem	lib	mod	mod	mod	nt	ht	nh/0599_nh.bmp
92.16	0.72	119	1	7	121	mem	lib	mod	mod	low	tg	ms	wh/1004.bmp
92.88	0.72	120	2	6	35	per	con	low	mod	low	nt	cr	nh/0172_nh.bmp
93.60	0.72	121	1	5	15	mem	lib	mod	mod	low	nt	n/a	nh/0401_nh.bmp
94.32	0.72	122	1	6	98	per	lib	low	mod	low	tg	ht	wh/0647.bmp
95.04	0.72	123	1	5	1	mem	lib	mod	mod	low	tg	ht	wh/0814.bmp
95.76	0.72	124	3	7	85	per	lib	low	mod	low	tg	ms	wh/0023.bmp
96.48	0.72	125	2	7	63	per	con	mod	mod	mod	tg	ms	wh/0366.bmp
97.20	0.72	126	1	6	31	mem	lib	low	low	low	nt	ht	nh/1015_nh.bmp
97.92	0.72	127	1	5	42	mem	con	low	low	low	nt	ms	nh/0106_nh.bmp
98.64	0.72	128	1	6	48	per	con	low	mod	low	nt	cr	nh/0388_nh.bmp
99.36	0.72	129	3	8	58	mem	con	mod	mod	mod	nt	ht	nh/0269_nh.bmp
100.08	0.72	130	1	6	72	per	con	mod	mod	mod	nt	cr	nh/0763_nh.bmp
100.80	0.72	131	3	7	95	per	lib	low	mod	low	tg	ms	wh/0678.bmp
101.52	0.72	132	1	6	13	per	lib	mod	mod	mod	tg	ht	wh/0590.bmp
102.24	0.72	133	1	6	2	per	lib	mod	mod	mod	tg	ht	wh/0915.bmp
102.96	0.72	134	3	7	62	per	con	mod	mod	mod	nt	cr	nh/0549_nh.bmp
103.68	0.72	135	2	6	93	mem	con	mod	mod	mod	tg	ht	wh/0060.bmp
104.40	0.72	136	2	6	102	per	lib	low	mod	low	nt	fa	nh/0108_nh.bmp
105.12	0.72	137	2	8	127	mem	lib	mod	mod	mod	nt	ht	nh/0408_nh.bmp
105.84	0.72	138	2	6	122	mem	lib	mod	mod	mod	tg	ht	wh/0318.bmp
106.56	0.72	139	1	7	98	per	lib	mod	mod	mod	nt	cr	nh/0603_nh.bmp
107.28	0.72	140	3	5	54	mem	con	mod	mod	low	nt	ht	nh/0883_nh.bmp
108.00	0.72	141	2	7	49	per	con	mod	mod	mod	tg	ms	wh/0179.bmp
108.72	0.72	142	1	6	47	per	con	low	mod	low	nt	cr	nh/0521_nh.bmp
109.44	0.72	143	2	5	13	mem	lib	mod	mod	low	nt	ht	nh/0756_nh.bmp
110.16	0.72	144	2	8	60	mem	con	mod	mod	mod	tg	ms	wh/0851.bmp
110.88	0.72	145	3	7	91	per	lib	low	mod	low	nt	fa	nh/1019_nh.bmp
111.60	0.72	146	3	5	53	mem	con	mod	mod	low	nt	ms	nh/0157_nh.bmp
112.32	0.72	147	1	8	59	mem	con	mod	mod	mod	nt	ms	nh/0871_nh.bmp
113.04	0.72	148	2	6	36	per	con	low	mod	low	tg	ms	wh/0848.bmp
113.76	0.72	149	2	6	105	per	lib	low	mod	low	tg	ms	wh/0734.bmp
114.48	0.72	150	2	6	116	mem	lib	mod	mod	mod	nt	ms	nh/0778_nh.bmp
115.20	0.72	151	2	7	46	mem	con	mod	mod	low	tg	ms	wh/0374.bmp
115.92	0.72	152	1	6	1	per	lib	mod	mod	mod	nt	cr	nh/0638_nh.bmp
116.64	0.72	153	1	7	38	mem	con	mod	mod	low	nt	ht	nh/0118_nh.bmp
117.36	0.72	154	1	7	32	per	con	low	mod	low	nt	cr	nh/0139_nh.bmp
118.08	0.72	155	3	6	118	mem	lib	mod	mod	mod	tg	ht	wh/0835.bmp
118.80	0.72	156	1	5	101	per	lib	low	low	low	nt	fa	nh/0737_nh.bmp
119.52	0.72	157	2	8	124	mem	lib	mod	mod	mod	nt	ht	nh/0599_nh.bmp
120.24	0.72	158	1	5	19	mem	lib	low	low	mod	nt	n/a	nh/0867_nh.bmp
120.96	0.72	159	2	8	128	mem	lib	mod	mod	mod	tg	ht	wh/0623.bmp
121.68	0.72	160	1	7	126	mem	lib	mod	mod	low	nt	ms	nh/0582_nh.bmp
122.40	0.72	161	3	8	117	mem	lib	mod	mod	mod	tg	ht	wh/0337.bmp
123.12	0.72	162	2	7	25	per	con	low	mod	low	tg	ms	wh/1014.bmp
123.84	0.72	163	2	7	118	mem	lib	mod	mod	low	tg	n/a	wh/0875.bmp
124.56	0.72	164	1	6	32	mem	lib	low	low	low	nt	n/a	nh/0482_nh.bmp
125.28	0.72	165	1	7	33	mem	con	mod	mod	low	tg	ht	wh/0578.bmp
126.00	0.72	166	1	7	97	per	lib	mod	mod	mod	nt	fa	nh/0694_nh.bmp
126.72	0.72	167	1	5	111	per	lib	low	low	low	nt	fa	nh/0610_nh.bmp
127.44	0.72	168	1	7	18	per	con	low	mod	low	tg	ms	wh/0640.bmp
128.16	0.72	169	2	5	51	mem	con	mod	mod	low	tg	ht	wh/0612.bmp
128.88	0.72	170	1	8	21	per	lib	mod	low	mod	tg	ht	wh/0308.bmp
129.60	0.72	171	2	7	45	mem	con	mod	mod	low	tg	ms	wh/0165.bmp
130.32	0.72	172	1	5	124	per	lib	mod	low	mod	nt	cr	nh/0622_nh.bmp
131.04	0.72	173	2	7	126	mem	lib	mod	mod	low	nt	ms	nh/0582_nh.bmp
131.76	0.72	174	1	7	20	per	con	low	mod	low	tg	ms	wh/0064.bmp
132.48	0.72	175	2	7	97	per	lib	mod	mod	mod	nt	fa	nh/0694_nh.bmp
133.20	0.72	176	2	6	73	per	con	mod	mod	mod	nt	cr	nh/0978_nh.bmp
133.92	0.72	177	3	7	37	mem	con	mod	mod	low	nt	ht	nh/0746_nh.bmp
134.64	0.72	178	3	8	128	mem	lib	mod	mod	mod	tg	ht	wh/0623.bmp
135.36	0.72	179	1	5	32	mem	lib	low	low	mod	nt	ht	nh/0221_nh.bmp
136.08	0.72	180	1	5	104	per	lib	low	low	low	tg	ht	wh/0022.bmp
136.80	0.72	181	2	8	51	mem	con	mod	mod	mod	tg	ms	wh/0495.bmp
137.52	0.72	182	2	5	50	mem	con	mod	mod	low	nt	ms	nh/0253_nh.bmp
138.24	0.72	183	1	8	35	mem	lib	low	low	mod	nt	ht	nh/0948_nh.bmp
138.96	0.72	184	2	7	102	per	lib	mod	mod	mod	tg	ms	wh/0020.bmp
139.68	0.72	185	3	6	35	per	con	low	mod	low	nt	cr	nh/0172_nh.bmp
140.40	0.72	186	4	7	95	per	lib	low	mod	low	tg	ms	wh/0678.bmp
141.12	0.72	187	1	8	65	per	lib	low	low	low	tg	ht	wh/0639.bmp
141.84	0.72	188	3	6	87	mem	con	mod	mod	mod	nt	ms	nh/0546_nh.bmp
142.56	0.72	189	1	6	89	mem	con	mod	mod	mod	tg	ht	wh/0888.bmp
143.28	0.72	190	2	6	1	per	lib	mod	mod	mod	nt	cr	nh/0638_nh.bmp
144.00	0.72	191	3	5	51	mem	con	mod	mod	low	tg	ht	wh/0612.bmp
144.72	0.72	192	1	5	62	mem	con	mod	mod	low	tg	ht	wh/0519.bmp
145.44	0.72	193	1	6	94	mem	con	mod	mod	mod	nt	ms	nh/0686_nh.bmp
146.16	0.72	194	1	7	27	per	con	low	mod	low	nt	fa	nh/0780_nh.bmp
146.88	0.72	195	1	5	74	per	con	mod	low	mod	nt	cr	nh/0186_nh.bmp
147.60	0.72	196	4	6	87	mem	con	mod	mod	mod	nt	ms	nh/0546_nh.bmp
148.32	0.72	197	1	5	80	per	con	mod	low	mod	tg	ms	wh/0046.bmp
149.04	0.72	198	1	5	69	per	con	mod	low	mod	nt	fa	nh/0349_nh.bmp
149.76	0.72	199	1	7	99	per	lib	mod	mod	mod	tg	ht	wh/0952.bmp
150.48	0.72	200	1	5	55	mem	con	mod	mod	low	tg	ht	wh/0863.bmp
151.20	0.72	201	1	6	125	mem	lib	mod	mod	mod	tg	ht	wh/0564.bmp
151.92	0.72	202	2	6	43	per	con	low	mod	low	tg	ht	wh/0255.bmp
152.64	0.72	203	1	5	6	mem	lib	mod	mod	low	tg	ht	wh/0248.bmp
153.36	0.72	204	2	6	66	per	con	mod	mod	mod	tg	ht	wh/0586.bmp
154.08	0.72	205	2	7	38	mem	con	mod	mod	low	nt	ht	nh/0118_nh.bmp
154.80	0.72	206	1	7	90	per	lib	low	mod	low	nt	fa	nh/0892_nh.bmp
155.52	0.72	207	1	6	114	mem	lib	mod	mod	mod	nt	ht	nh/0399_nh.bmp
156.24	0.72	208	4	5	54	mem	con	mod	mod	low	nt	ht	nh/0883_nh.bmp
156.96	0.72	209	2	5	62	mem	con	mod	mod	low	tg	ht	wh/0519.bmp
157.68	0.72	210	3	6	1	per	lib	mod	mod	mod	nt	cr	nh/0638_nh.bmp
158.40	0.72	211	1	8	31	per	lib	mod	low	mod	nt	fa	nh/0418_nh.bmp
159.12	0.72	212	1	6	120	mem	lib	mod	mod	mod	nt	ht	nh/0735_nh.bmp
159.84	0.72	213	1	5	123	per	lib	mod	low	mod	tg	ht	wh/0688.bmp
160.56	0.72	214	3	6	36	per	con	low	mod	low	tg	ms	wh/0848.bmp
161.28	0.72	215	2	6	106	per	lib	low	mod	low	nt	fa	nh/0262_nh.bmp
162.00	0.72	216	3	6	122	mem	lib	mod	mod	mod	tg	ht	wh/0318.bmp
162.72	0.72	217	2	7	86	per	lib	low	mod	low	nt	cr	nh/0986_nh.bmp
163.44	0.72	218	1	5	114	per	lib	mod	low	mod	tg	ht	wh/0980.bmp
164.16	0.72	219	1	6	113	mem	lib	mod	mod	mod	tg	ht	wh/0086.bmp
164.88	0.72	220	1	8	79	per	lib	low	low	low	tg	ht	wh/0144.bmp
165.60	0.72	221	2	6	120	mem	lib	mod	mod	mod	nt	ht	nh/0735_nh.bmp
166.32	0.72	222	2	6	94	mem	con	mod	mod	mod	nt	ms	nh/0686_nh.bmp
167.04	0.72	223	3	6	75	per	con	mod	mod	mod	nt	cr	nh/0544_nh.bmp
167.76	0.72	224	2	7	124	mem	lib	mod	mod	low	tg	ht	wh/0241.bmp
168.48	0.72	225	2	5	61	mem	con	mod	mod	low	tg	ht	wh/0024.bmp
169.20	0.72	226	2	5	1	mem	lib	mod	mod	low	tg	ht	wh/0814.bmp
169.92	0.72	227	3	7	109	per	lib	mod	mod	mod	tg	ht	wh/0378.bmp
170.64	0.72	228	1	8	109	mem	con	low	low	mod	nt	ht	nh/0532_nh.bmp
171.36	0.72	229	1	6	103	per	lib	low	mod	low	nt	fa	nh/0143_nh.bmp
172.08	0.72	230	2	5	11	mem	lib	mod	mod	low	nt	ht	nh/0394_nh.bmp
172.80	0.72	231	2	7	87	per	lib	low	mod	low	tg	ht	wh/0018.bmp
173.52	0.72	232	2	6	103	per	lib	low	mod	low	nt	fa	nh/0143_nh.bmp
174.24	0.72	233	2	8	123	mem	lib	mod	mod	mod	tg	ms	wh/0995.bmp
174.96	0.72	234	3	7	120	mem	lib	mod	mod	low	nt	ms	nh/0820_nh.bmp
175.68	0.72	235	4	7	37	mem	con	mod	mod	low	nt	ht	nh/0746_nh.bmp
176.40	0.72	236	1	7	101	per	lib	mod	mod	mod	nt	fa	nh/0556_nh.bmp
177.12	0.72	237	2	6	125	mem	lib	mod	mod	mod	tg	ht	wh/0564.bmp
177.84	0.72	238	3	8	63	mem	con	mod	mod	mod	nt	ms	nh/0609_nh.bmp
178.56	0.72	239	2	7	107	per	lib	mod	mod	mod	tg	ht	wh/0717.bmp
179.28	0.72	240	4	7	120	mem	lib	mod	mod	low	nt	ms	nh/0820_nh.bmp
180.00	0.72	241	3	7	25	per	con	low	mod	low	tg	ms	wh/1014.bmp
180.72	0.72	242	1	6	69	per	con	mod	mod	mod	tg	ht	wh/0832.bmp
181.44	0.72	243	1	6	109	per	lib	low	mod	low	nt	fa	nh/0249_nh.bmp
182.16	0.72	244	3	7	107	per	lib	mod	mod	mod	tg	ht	wh/0717.bmp
182.88	0.72	245	2	8	59	mem	con	mod	mod	mod	nt	ms	nh/0871_nh.bmp
183.60	0.72	246	2	7	125	mem	lib	mod	mod	low	tg	ht	wh/0574.bmp
184.32	0.72	247	1	5	12	mem	lib	mod	mod	low	tg	ht	wh/0176.bmp
185.04	0.72	248	2	6	2	per	lib	mod	mod	mod	tg	ht	wh/0915.bmp
185.76	0.72	249	1	5	95	per	con	low	low	low	tg	ms	wh/0089.bmp
186.48	0.72	250	2	7	18	per	con	low	mod	low	tg	ms	wh/0640.bmp
187.20	0.72	251	2	6	109	per	lib	low	mod	low	nt	fa	nh/0249_nh.bmp
187.92	0.72	252	2	7	98	per	lib	mod	mod	mod	nt	cr	nh/0603_nh.bmp
188.64	0.72	253	4	7	25	per	con	low	mod	low	tg	ms	wh/1014.bmp
189.36	0.72	254	2	7	47	mem	con	mod	mod	low	tg	ht	wh/0193.bmp
190.08	0.72	255	4	8	128	mem	lib	mod	mod	mod	tg	ht	wh/0623.bmp
190.80	0.72	256	2	6	92	mem	con	mod	mod	mod	tg	ht	wh/0441.bmp
191.52	0.72	257	1	7	1	mem	lib	low	low	low	nt	ht	nh/0376_nh.bmp
192.24	0.72	258	3	8	122	mem	lib	mod	mod	mod	nt	ht	nh/0797_nh.bmp
192.96	0.72	259	2	7	101	per	lib	mod	mod	mod	nt	fa	nh/0556_nh.bmp
193.68	0.72	260	1	7	65	mem	con	low	low	low	tg	ms	wh/0929.bmp
194.40	0.72	261	3	7	126	mem	lib	mod	mod	low	nt	ms	nh/0582_nh.bmp
195.12	0.72	262	2	5	55	mem	con	mod	mod	low	tg	ht	wh/0863.bmp
195.84	0.72	263	2	6	79	per	con	mod	mod	mod	tg	ms	wh/0852.bmp
196.56	0.72	264	3	6	103	per	lib	low	mod	low	nt	fa	nh/0143_nh.bmp
197.28	0.72	265	3	7	63	per	con	mod	mod	mod	tg	ms	wh/0366.bmp
198.00	0.72	266	1	6	111	per	lib	low	mod	low	tg	ht	wh/0247.bmp
198.72	0.72	267	5	7	95	per	lib	low	mod	low	tg	ms	wh/0678.bmp
199.44	0.72	268	3	6	125	mem	lib	mod	mod	mod	tg	ht	wh/0564.bmp
200.16	0.72	269	1	6	59	mem	con	low	low	mod	nt	n/a	nh/0084_nh.bmp
200.88	0.72	270	3	6	120	mem	lib	mod	mod	mod	nt	ht	nh/0735_nh.bmp
201.60	0.72	271	3	6	102	per	lib	low	mod	low	nt	fa	nh/0108_nh.bmp
202.32	0.72	272	4	7	91	per	lib	low	mod	low	nt	fa	nh/1019_nh.bmp
203.04	0.72	273	4	6	128	mem	lib	mod	mod	mod	nt	ht	nh/0385_nh.bmp
203.76	0.72	274	1	6	30	mem	lib	low	low	low	tg	ht	wh/0136.bmp
204.48	0.72	275	1	5	30	mem	lib	low	low	mod	tg	ht	wh/0381.bmp
205.20	0.72	276	2	6	48	per	con	low	mod	low	nt	cr	nh/0388_nh.bmp
205.92	0.72	277	3	8	59	mem	con	mod	mod	mod	nt	ms	nh/0871_nh.bmp
206.64	0.72	278	3	8	124	mem	lib	mod	mod	mod	nt	ht	nh/0599_nh.bmp
207.36	0.72	279	1	8	23	per	lib	mod	low	mod	tg	ht	wh/0779.bmp
208.08	0.72	280	4	7	63	per	con	mod	mod	mod	tg	ms	wh/0366.bmp
208.80	0.72	281	3	7	87	per	lib	low	mod	low	tg	ht	wh/0018.bmp
209.52	0.72	282	3	8	123	mem	lib	mod	mod	mod	tg	ms	wh/0995.bmp
210.24	0.72	283	1	7	56	per	con	mod	mod	mod	tg	ms	wh/0056.bmp
210.96	0.72	284	3	5	55	mem	con	mod	mod	low	tg	ht	wh/0863.bmp
211.68	0.72	285	4	5	60	mem	con	mod	mod	low	nt	ms	nh/0297_nh.bmp
212.40	0.72	286	1	7	26	per	con	low	mod	low	nt	cr	nh/0012_nh.bmp
213.12	0.72	287	3	6	86	mem	con	mod	mod	mod	nt	ht	nh/0420_nh.bmp
213.84	0.72	288	2	5	15	mem	lib	mod	mod	low	nt	n/a	nh/0401_nh.bmp
214.56	0.72	289	2	6	72	per	con	mod	mod	mod	nt	cr	nh/0763_nh.bmp
215.28	0.72	290	1	7	83	per	lib	low	mod	low	nt	fa	nh/0170_nh.bmp
216.00	0.72	291	1	7	50	per	con	mod	mod	mod	nt	cr	nh/0436_nh.bmp
216.72	0.72	292	2	6	114	mem	lib	mod	mod	mod	nt	ht	nh/0399_nh.bmp
217.44	0.72	293	2	6	13	per	lib	mod	mod	mod	tg	ht	wh/0590.bmp
218.16	0.72	294	1	8	19	per	lib	mod	low	mod	tg	ht	wh/0953.bmp
218.88	0.72	295	2	6	83	mem	con	mod	mod	mod	nt	ms	nh/0958_nh.bmp
219.60	0.72	296	4	8	58	mem	con	mod	mod	mod	nt	ht	nh/0269_nh.bmp
220.32	0.72	297	3	6	109	per	lib	low	mod	low	nt	fa	nh/0249_nh.bmp
221.04	0.72	298	2	7	121	mem	lib	mod	mod	low	tg	ms	wh/1004.bmp
221.76	0.72	299	3	7	101	per	lib	mod	mod	mod	nt	fa	nh/0556_nh.bmp
222.48	0.72	300	4	6	118	mem	lib	mod	mod	mod	tg	ht	wh/0835.bmp
223.20	0.72	301	1	8	57	mem	con	mod	mod	mod	tg	ms	wh/0764.bmp
223.92	0.72	302	2	6	69	per	con	mod	mod	mod	tg	ht	wh/0832.bmp
224.64	0.72	303	2	6	5	per	lib	mod	mod	mod	nt	fa	nh/0275_nh.bmp
225.36	0.72	304	2	6	33	per	con	low	mod	low	tg	ms	wh/0042.bmp
226.08	0.72	305	4	7	107	per	lib	mod	mod	mod	tg	ht	wh/0717.bmp
226.80	0.72	306	2	7	119	mem	lib	mod	mod	low	nt	ht	nh/0491_nh.bmp
227.52	0.72	307	3	8	60	mem	con	mod	mod	mod	tg	ms	wh/0851.bmp
228.24	0.72	308	4	8	63	mem	con	mod	mod	mod	nt	ms	nh/0609_nh.bmp
228.96	0.72	309	4	6	1	per	lib	mod	mod	mod	nt	cr	nh/0638_nh.bmp
229.68	0.72	310	3	6	73	per	con	mod	mod	mod	nt	cr	nh/0978_nh.bmp
230.40	0.72	311	2	6	15	per	lib	mod	mod	mod	tg	ms	wh/0827.bmp
231.12	0.72	312	2	7	27	per	con	low	mod	low	nt	fa	nh/0780_nh.bmp
231.84	0.72	313	3	6	43	per	con	low	mod	low	tg	ht	wh/0255.bmp
232.56	0.72	314	1	6	6	per	lib	mod	mod	mod	nt	fa	nh/0821_nh.bmp
233.28	0.72	315	1	7	123	mem	lib	mod	mod	low	nt	ht	nh/0073_nh.bmp
234.00	0.72	316	2	6	111	per	lib	low	mod	low	tg	ht	wh/0247.bmp
234.72	0.72	317	3	6	33	per	con	low	mod	low	tg	ms	wh/0042.bmp
235.44	0.72	318	3	7	118	mem	lib	mod	mod	low	tg	n/a	wh/0875.bmp
236.16	0.72	319	5	6	118	mem	lib	mod	mod	mod	tg	ht	wh/0835.bmp
236.88	0.72	320	2	6	113	mem	lib	mod	mod	mod	tg	ht	wh/0086.bmp
237.60	0.72	321	4	7	62	per	con	mod	mod	mod	nt	cr	nh/0549_nh.bmp
238.32	0.72	322	3	7	46	mem	con	mod	mod	low	tg	ms	wh/0374.bmp
239.04	0.72	323	3	5	11	mem	lib	mod	mod	low	nt	ht	nh/0394_nh.bmp
239.76	0.72	324	3	7	38	mem	con	mod	mod	low	nt	ht	nh/0118_nh.bmp
240.48	0.72	325	4	5	53	mem	con	mod	mod	low	nt	ms	nh/0157_nh.bmp
241.20	0.72	326	4	6	86	mem	con	mod	mod	mod	nt	ht	nh/0420_nh.bmp
241.92	0.72	327	1	5	94	per	con	low	low	low	nt	cr	nh/0058_nh.bmp
242.64	0.72	328	1	8	114	mem	lib	mod	mod	mod	nt	ht	nh/0833_nh.bmp
243.36	0.72	329	2	6	98	per	lib	low	mod	low	tg	ht	wh/0647.bmp
244.08	0.72	330	3	7	49	per	con	mod	mod	mod	tg	ms	wh/0179.bmp
244.80	0.72	331	4	6	103	per	lib	low	mod	low	nt	fa	nh/0143_nh.bmp
245.52	0.72	332	2	7	50	per	con	mod	mod	mod	nt	cr	nh/0436_nh.bmp
246.24	0.72	333	3	6	66	per	con	mod	mod	mod	tg	ht	wh/0586.bmp
246.96	0.72	334	2	7	90	per	lib	low	mod	low	nt	fa	nh/0892_nh.bmp
247.68	0.72	335	3	7	86	per	lib	low	mod	low	nt	cr	nh/0986_nh.bmp
248.40	0.72	336	2	6	6	per	lib	mod	mod	mod	nt	fa	nh/0821_nh.bmp
249.12	0.72	337	5	6	86	mem	con	mod	mod	mod	nt	ht	nh/0420_nh.bmp
249.84	0.72	338	4	7	46	mem	con	mod	mod	low	tg	ms	wh/0374.bmp
250.56	0.72	339	2	7	99	per	lib	mod	mod	mod	tg	ht	wh/0952.bmp
251.28	0.72	340	4	6	66	per	con	mod	mod	mod	tg	ht	wh/0586.bmp
252.00	0.72	341	2	7	123	mem	lib	mod	mod	low	nt	ht	nh/0073_nh.bmp
252.72	0.72	342	3	6	79	per	con	mod	mod	mod	tg	ms	wh/0852.bmp
253.44	0.72	343	1	6	62	mem	con	low	low	mod	tg	ht	wh/0732.bmp
254.16	0.72	344	4	6	125	mem	lib	mod	mod	mod	tg	ht	wh/0564.bmp
254.88	0.72	345	1	5	67	per	con	mod	low	mod	nt	fa	nh/0611_nh.bmp
255.60	0.72	346	6	7	95	per	lib	low	mod	low	tg	ms	wh/0678.bmp
256.32	0.72	347	1	7	55	per	con	mod	mod	mod	tg	ht	wh/0629.bmp
257.04	0.72	348	1	8	9	per	con	low	low	low	nt	cr	nh/0360_nh.bmp
257.76	0.72	349	2	6	89	mem	con	mod	mod	mod	tg	ht	wh/0888.bmp
258.48	0.72	350	1	8	46	mem	lib	low	low	mod	nt	ht	nh/0837_nh.bmp
259.20	0.72	351	1	7	61	per	con	mod	mod	mod	nt	cr	nh/0822_nh.bmp
259.92	0.72	352	2	5	6	mem	lib	mod	mod	low	tg	ht	wh/0248.bmp
260.64	0.72	353	2	7	33	mem	con	mod	mod	low	tg	ht	wh/0578.bmp
261.36	0.72	354	4	5	55	mem	con	mod	mod	low	tg	ht	wh/0863.bmp
262.08	0.72	355	1	8	92	per	con	mod	low	mod	tg	ms	wh/0051.bmp
262.80	0.72	356	3	6	72	per	con	mod	mod	mod	nt	cr	nh/0763_nh.bmp
263.52	0.72	357	4	7	85	per	lib	low	mod	low	tg	ms	wh/0023.bmp
264.24	0.72	358	3	6	89	mem	con	mod	mod	mod	tg	ht	wh/0888.bmp
264.96	0.72	359	2	6	47	per	con	low	mod	low	nt	cr	nh/0521_nh.bmp
265.68	0.72	360	2	5	7	mem	lib	mod	mod	low	nt	ht	nh/0453_nh.bmp
266.40	0.72	361	1	5	73	per	con	mod	low	mod	tg	ht	wh/0347.bmp
267.12	0.72	362	5	7	46	mem	con	mod	mod	low	tg	ms	wh/0374.bmp
267.84	0.72	363	4	6	73	per	con	mod	mod	mod	nt	cr	nh/0978_nh.bmp
268.56	0.72	364	2	7	61	per	con	mod	mod	mod	nt	cr	nh/0822_nh.bmp
269.28	0.72	365	1	8	73	per	lib	low	low	low	nt	cr	nh/0224_nh.bmp
270.00	0.72	366	3	6	114	mem	lib	mod	mod	mod	nt	ht	nh/0399_nh.bmp
270.72	0.72	367	5	6	87	mem	con	mod	mod	mod	nt	ms	nh/0546_nh.bmp
271.44	0.72	368	1	8	77	per	lib	low	low	low	tg	ms	wh/0219.bmp
272.16	0.72	369	4	5	51	mem	con	mod	mod	low	tg	ht	wh/0612.bmp
272.88	0.72	370	3	6	116	mem	lib	mod	mod	mod	nt	ms	nh/0778_nh.bmp
273.60	0.72	371	5	7	25	per	con	low	mod	low	tg	ms	wh/1014.bmp
274.32	0.72	372	3	5	1	mem	lib	mod	mod	low	tg	ht	wh/0814.bmp
275.04	0.72	373	2	7	52	per	con	mod	mod	mod	nt	cr	nh/0971_nh.bmp
275.76	0.72	374	3	6	5	per	lib	mod	mod	mod	nt	fa	nh/0275_nh.bmp
276.48	0.72	375	3	7	121	mem	lib	mod	mod	low	tg	ms	wh/1004.bmp
277.20	0.72	376	1	6	18	mem	lib	low	low	low	tg	ht	wh/0865.bmp
277.92	0.72	377	1	8	2	per	con	low	low	low	nt	cr	nh/0859_nh.bmp
278.64	0.72	378	3	7	124	mem	lib	mod	mod	low	tg	ht	wh/0241.bmp
279.36	0.72	379	2	8	126	mem	lib	mod	mod	mod	tg	ht	wh/0560.bmp
280.08	0.72	380	3	7	90	per	lib	low	mod	low	nt	fa	nh/0892_nh.bmp
280.80	0.72	381	6	7	25	per	con	low	mod	low	tg	ms	wh/1014.bmp
281.52	0.72	382	1	5	89	per	con	low	low	low	nt	cr	nh/0226_nh.bmp
282.24	0.72	383	4	8	122	mem	lib	mod	mod	mod	nt	ht	nh/0797_nh.bmp
282.96	0.72	384	1	6	23	mem	lib	low	low	low	tg	ht	wh/0468.bmp
283.68	0.72	385	5	8	58	mem	con	mod	mod	mod	nt	ht	nh/0269_nh.bmp
284.40	0.72	386	4	6	116	mem	lib	mod	mod	mod	nt	ms	nh/0778_nh.bmp
285.12	0.72	387	3	5	15	mem	lib	mod	mod	low	nt	n/a	nh/0401_nh.bmp
285.84	0.72	388	3	6	15	per	lib	mod	mod	mod	tg	ms	wh/0827.bmp
286.56	0.72	389	4	7	124	mem	lib	mod	mod	low	tg	ht	wh/0241.bmp
287.28	0.72	390	4	6	72	per	con	mod	mod	mod	nt	cr	nh/0763_nh.bmp
288.00	0.72	391	3	7	45	mem	con	mod	mod	low	tg	ms	wh/0165.bmp
288.72	0.72	392	3	7	97	per	lib	mod	mod	mod	nt	fa	nh/0694_nh.bmp
289.44	0.72	393	5	6	103	per	lib	low	mod	low	nt	fa	nh/0143_nh.bmp
290.16	0.72	394	1	5	41	mem	con	low	low	low	tg	ms	wh/0034.bmp
290.88	0.72	395	1	8	53	mem	con	mod	mod	mod	tg	ms	wh/0715.bmp
291.60	0.72	396	2	7	55	per	con	mod	mod	mod	tg	ht	wh/0629.bmp
292.32	0.72	397	4	6	36	per	con	low	mod	low	tg	ms	wh/0848.bmp
293.04	0.72	398	3	7	125	mem	lib	mod	mod	low	tg	ht	wh/0574.bmp
293.76	0.72	399	3	6	111	per	lib	low	mod	low	tg	ht	wh/0247.bmp
294.48	0.72	400	4	5	1	mem	lib	mod	mod	low	tg	ht	wh/0814.bmp
295.20	0.72	401	3	7	61	per	con	mod	mod	mod	nt	cr	nh/0822_nh.bmp
295.92	0.72	402	1	6	112	per	lib	low	mod	low	tg	ht	wh/0164.bmp
296.64	0.72	403	3	8	126	mem	lib	mod	mod	mod	tg	ht	wh/0560.bmp
297.36	0.72	404	1	6	95	mem	con	mod	mod	mod	tg	ms	wh/0294.bmp
298.08	0.72	405	2	7	31	per	con	low	mod	low	nt	fa	nh/0254_nh.bmp
298.80	0.72	406	5	7	124	mem	lib	mod	mod	low	tg	ht	wh/0241.bmp
299.52	0.72	407	3	7	18	per	con	low	mod	low	tg	ms	wh/0640.bmp
300.24	0.72	408	3	6	94	mem	con	mod	mod	mod	nt	ms	nh/0686_nh.bmp
300.96	0.72	409	1	8	76	per	lib	low	low	low	nt	fa	nh/0770_nh.bmp
301.68	0.72	410	4	8	123	mem	lib	mod	mod	mod	tg	ms	wh/0995.bmp
302.40	0.72	411	1	7	23	per	con	low	mod	low	tg	ms	wh/0111.bmp
303.12	0.72	412	3	7	52	per	con	mod	mod	mod	nt	cr	nh/0971_nh.bmp
303.84	0.72	413	2	8	57	mem	con	mod	mod	mod	tg	ms	wh/0764.bmp
304.56	0.72	414	4	5	11	mem	lib	mod	mod	low	nt	ht	nh/0394_nh.bmp
305.28	0.72	415	3	5	13	mem	lib	mod	mod	low	nt	ht	nh/0756_nh.bmp
306.00	0.72	416	2	8	114	mem	lib	mod	mod	mod	nt	ht	nh/0833_nh.bmp
306.72	0.72	417	1	5	26	mem	lib	low	low	mod	nt	ht	nh/0372_nh.bmp
307.44	0.72	418	3	6	47	per	con	low	mod	low	nt	cr	nh/0521_nh.bmp
308.16	0.72	419	5	7	63	per	con	mod	mod	mod	tg	ms	wh/0366.bmp
308.88	0.72	420	1	5	27	mem	lib	low	low	mod	nt	ht	nh/0305_nh.bmp
309.60	0.72	421	5	5	60	mem	con	mod	mod	low	nt	ms	nh/0297_nh.bmp
310.32	0.72	422	2	5	9	mem	lib	mod	mod	low	tg	ht	wh/0114.bmp
311.04	0.72	423	3	8	114	mem	lib	mod	mod	mod	nt	ht	nh/0833_nh.bmp
311.76	0.72	424	2	7	83	per	lib	low	mod	low	nt	fa	nh/0170_nh.bmp
312.48	0.72	425	4	7	86	per	lib	low	mod	low	nt	cr	nh/0986_nh.bmp
313.20	0.72	426	1	8	84	per	con	mod	low	mod	nt	cr	nh/0334_nh.bmp
313.92	0.72	427	3	5	6	mem	lib	mod	mod	low	tg	ht	wh/0248.bmp
314.64	0.72	428	1	7	12	mem	lib	low	low	low	tg	ht	wh/0260.bmp
315.36	0.72	429	3	7	27	per	con	low	mod	low	nt	fa	nh/0780_nh.bmp
316.08	0.72	430	1	5	37	mem	con	low	low	low	nt	ms	nh/0636_nh.bmp
316.80	0.72	431	4	6	79	per	con	mod	mod	mod	tg	ms	wh/0852.bmp
317.52	0.72	432	5	7	107	per	lib	mod	mod	mod	tg	ht	wh/0717.bmp
318.24	0.72	433	3	8	51	mem	con	mod	mod	mod	tg	ms	wh/0495.bmp
318.96	0.72	434	1	6	56	mem	con	low	low	mod	tg	ht	wh/0673.bmp
319.68	0.72	435	4	7	18	per	con	low	mod	low	tg	ms	wh/0640.bmp
320.40	0.72	436	3	5	61	mem	con	mod	mod	low	tg	ht	wh/0024.bmp
321.12	0.72	437	3	6	93	mem	con	mod	mod	mod	tg	ht	wh/0060.bmp
321.84	0.72	438	3	6	92	mem	con	mod	mod	mod	tg	ht	wh/0441.bmp
322.56	0.72	439	3	5	7	mem	lib	mod	mod	low	nt	ht	nh/0453_nh.bmp
323.28	0.72	440	4	8	51	mem	con	mod	mod	mod	tg	ms	wh/0495.bmp
324.00	0.72	441	3	7	102	per	lib	mod	mod	mod	tg	ms	wh/0020.bmp
324.72	0.72	442	4	6	122	mem	lib	mod	mod	mod	tg	ht	wh/0318.bmp
325.44	0.72	443	5	6	73	per	con	mod	mod	mod	nt	cr	nh/0978_nh.bmp
326.16	0.72	444	3	6	105	per	lib	low	mod	low	tg	ms	wh/0734.bmp
326.88	0.72	445	2	6	95	mem	con	mod	mod	mod	tg	ms	wh/0294.bmp
327.60	0.72	446	3	6	98	per	lib	low	mod	low	tg	ht	wh/0647.bmp
328.32	0.72	447	1	7	3	mem	lib	low	low	low	tg	ms	wh/0135.bmp
329.04	0.72	448	4	7	126	mem	lib	mod	mod	low	nt	ms	nh/0582_nh.bmp
329.76	0.72	449	2	7	23	per	con	low	mod	low	tg	ms	wh/0111.bmp
330.48	0.72	450	4	7	97	per	lib	mod	mod	mod	nt	fa	nh/0694_nh.bmp
331.20	0.72	451	5	8	122	mem	lib	mod	mod	mod	nt	ht	nh/0797_nh.bmp
331.92	0.72	452	3	7	123	mem	lib	mod	mod	low	nt	ht	nh/0073_nh.bmp
332.64	0.72	453	5	5	54	mem	con	mod	mod	low	nt	ht	nh/0883_nh.bmp
333.36	0.72	454	6	7	46	mem	con	mod	mod	low	tg	ms	wh/0374.bmp
334.08	0.72	455	5	5	53	mem	con	mod	mod	low	nt	ms	nh/0157_nh.bmp
334.80	0.72	456	4	6	93	mem	con	mod	mod	mod	tg	ht	wh/0060.bmp
335.52	0.72	457	3	5	9	mem	lib	mod	mod	low	tg	ht	wh/0114.bmp
336.24	0.72	458	1	8	99	mem	con	low	low	mod	tg	ms	wh/0668.bmp
336.96	0.72	459	5	5	51	mem	con	mod	mod	low	tg	ht	wh/0612.bmp
337.68	0.72	460	4	7	118	mem	lib	mod	mod	low	tg	n/a	wh/0875.bmp
338.40	0.72	461	3	7	31	per	con	low	mod	low	nt	fa	nh/0254_nh.bmp
339.12	0.72	462	3	6	6	per	lib	mod	mod	mod	nt	fa	nh/0821_nh.bmp
339.84	0.72	463	1	8	67	per	lib	low	low	low	nt	cr	nh/0181_nh.bmp
340.56	0.72	464	1	5	92	per	con	low	low	low	tg	ms	wh/0506.bmp
341.28	0.72	465	1	8	30	per	lib	mod	low	mod	nt	fa	nh/0093_nh.bmp
342.00	0.72	466	6	6	73	per	con	mod	mod	mod	nt	cr	nh/0978_nh.bmp
342.72	0.72	467	5	7	91	per	lib	low	mod	low	nt	fa	nh/1019_nh.bmp
343.44	0.72	468	2	6	76	per	con	mod	mod	mod	tg	ht	wh/0300.bmp
344.16	0.72	469	3	7	99	per	lib	mod	mod	mod	tg	ht	wh/0952.bmp
344.88	0.72	470	3	6	113	mem	lib	mod	mod	mod	tg	ht	wh/0086.bmp
345.60	0.72	471	3	7	47	mem	con	mod	mod	low	tg	ht	wh/0193.bmp
346.32	0.72	472	2	5	12	mem	lib	mod	mod	low	tg	ht	wh/0176.bmp
347.04	0.72	473	4	7	90	per	lib	low	mod	low	nt	fa	nh/0892_nh.bmp
347.76	0.72	474	2	7	20	per	con	low	mod	low	tg	ms	wh/0064.bmp
348.48	0.72	475	4	6	92	mem	con	mod	mod	mod	tg	ht	wh/0441.bmp
349.20	0.72	476	4	8	126	mem	lib	mod	mod	mod	tg	ht	wh/0560.bmp
349.92	0.72	477	4	7	31	per	con	low	mod	low	nt	fa	nh/0254_nh.bmp
350.64	0.72	478	4	5	61	mem	con	mod	mod	low	tg	ht	wh/0024.bmp
351.36	0.72	479	6	7	124	mem	lib	mod	mod	low	tg	ht	wh/0241.bmp
352.08	0.72	480	4	7	123	mem	lib	mod	mod	low	nt	ht	nh/0073_nh.bmp
352.80	0.72	481	2	8	50	mem	con	mod	mod	mod	nt	ms	nh/0602_nh.bmp
353.52	0.72	482	4	5	6	mem	lib	mod	mod	low	tg	ht	wh/0248.bmp
354.24	0.72	483	1	6	22	mem	lib	low	low	low	nt	ht	nh/0154_nh.bmp
354.96	0.72	484	3	7	55	per	con	mod	mod	mod	tg	ht	wh/0629.bmp
355.68	0.72	485	4	7	121	mem	lib	mod	mod	low	tg	ms	wh/1004.bmp
356.40	0.72	486	3	6	69	per	con	mod	mod	mod	tg	ht	wh/0832.bmp
357.12	0.72	487	3	7	105	per	lib	mod	mod	mod	nt	fa	nh/0239_nh.bmp
357.84	0.72	488	4	6	5	per	lib	mod	mod	mod	nt	fa	nh/0275_nh.bmp
358.56	0.72	489	5	7	90	per	lib	low	mod	low	nt	fa	nh/0892_nh.bmp
359.28	0.72	490	5	6	72	per	con	mod	mod	mod	nt	cr	nh/0763_nh.bmp
360.00	0.72	491	5	6	1	per	lib	mod	mod	mod	nt	cr	nh/0638_nh.bmp
360.72	0.72	492	4	6	6	per	lib	mod	mod	mod	nt	fa	nh/0821_nh.bmp
361.44	0.72	493	3	8	127	mem	lib	mod	mod	mod	nt	ht	nh/0408_nh.bmp
362.16	0.72	494	4	6	33	per	con	low	mod	low	tg	ms	wh/0042.bmp
362.88	0.72	495	4	6	109	per	lib	low	mod	low	nt	fa	nh/0249_nh.bmp
363.60	0.72	496	2	7	32	per	con	low	mod	low	nt	cr	nh/0139_nh.bmp
364.32	0.72	497	1	5	100	per	lib	low	low	low	tg	ms	wh/0041.bmp
365.04	0.72	498	4	6	111	per	lib	low	mod	low	tg	ht	wh/0247.bmp
365.76	0.72	499	1	5	77	per	con	mod	low	mod	tg	ms	wh/0921.bmp
366.48	0.72	500	5	6	33	per	con	low	mod	low	tg	ms	wh/0042.bmp
367.20	0.72	501	1	8	13	per	con	low	low	low	tg	ms	wh/0825.bmp
367.92	0.72	502	3	7	23	per	con	low	mod	low	tg	ms	wh/0111.bmp
368.64	0.72	503	3	6	48	per	con	low	mod	low	nt	cr	nh/0388_nh.bmp
369.36	0.72	504	1	5	79	per	con	mod	low	mod	tg	ms	wh/0227.bmp
370.08	0.72	505	4	6	47	per	con	low	mod	low	nt	cr	nh/0521_nh.bmp
370.80	0.72	506	3	6	106	per	lib	low	mod	low	nt	fa	nh/0262_nh.bmp
371.52	0.72	507	1	8	91	per	con	mod	low	mod	nt	cr	nh/1005_nh.bmp
372.24	0.72	508	3	6	76	per	con	mod	mod	mod	tg	ht	wh/0300.bmp
372.96	0.72	509	4	7	55	per	con	mod	mod	mod	tg	ht	wh/0629.bmp
373.68	0.72	510	4	8	117	mem	lib	mod	mod	mod	tg	ht	wh/0337.bmp
374.40	0.72	511	4	7	47	mem	con	mod	mod	low	tg	ht	wh/0193.bmp
375.12	0.72	512	5	6	92	mem	con	mod	mod	mod	tg	ht	wh/0441.bmp
375.84	0.72	513	2	7	82	per	lib	low	mod	low	tg	ms	wh/0618.bmp
376.56	0.72	514	2	7	56	per	con	mod	mod	mod	tg	ms	wh/0056.bmp
377.28	0.72	515	5	7	47	mem	con	mod	mod	low	tg	ht	wh/0193.bmp
378.00	0.72	516	5	6	125	mem	lib	mod	mod	mod	tg	ht	wh/0564.bmp
378.72	0.72	517	4	7	99	per	lib	mod	mod	mod	tg	ht	wh/0952.bmp
379.44	0.72	518	4	8	114	mem	lib	mod	mod	mod	nt	ht	nh/0833_nh.bmp
380.16	0.72	519	5	7	120	mem	lib	mod	mod	low	nt	ms	nh/0820_nh.bmp
380.88	0.72	520	4	6	43	per	con	low	mod	low	tg	ht	wh/0255.bmp
381.60	0.72	521	3	7	82	per	lib	low	mod	low	tg	ms	wh/0618.bmp
382.32	0.72	522	3	7	33	mem	con	mod	mod	low	tg	ht	wh/0578.bmp
383.04	0.72	523	3	7	32	per	con	low	mod	low	nt	cr	nh/0139_nh.bmp
383.76	0.72	524	3	7	20	per	con	low	mod	low	tg	ms	wh/0064.bmp
384.48	0.72	525	3	7	83	per	lib	low	mod	low	nt	fa	nh/0170_nh.bmp
385.20	0.72	526	5	7	55	per	con	mod	mod	mod	tg	ht	wh/0629.bmp
385.92	0.72	527	4	6	15	per	lib	mod	mod	mod	tg	ms	wh/0827.bmp
386.64	0.72	528	2	8	53	mem	con	mod	mod	mod	tg	ms	wh/0715.bmp
387.36	0.72	529	3	7	50	per	con	mod	mod	mod	nt	cr	nh/0436_nh.bmp
388.08	0.72	530	4	7	32	per	con	low	mod	low	nt	cr	nh/0139_nh.bmp
388.80	0.72	531	4	7	105	per	lib	mod	mod	mod	nt	fa	nh/0239_nh.bmp
389.52	0.72	532	4	6	102	per	lib	low	mod	low	nt	fa	nh/0108_nh.bmp
390.24	0.72	533	4	5	7	mem	lib	mod	mod	low	nt	ht	nh/0453_nh.bmp
390.96	0.72	534	5	8	63	mem	con	mod	mod	mod	nt	ms	nh/0609_nh.bmp
391.68	0.72	535	4	6	89	mem	con	mod	mod	mod	tg	ht	wh/0888.bmp
392.40	0.72	536	5	7	118	mem	lib	mod	mod	low	tg	n/a	wh/0875.bmp
393.12	0.72	537	4	7	109	per	lib	mod	mod	mod	tg	ht	wh/0378.bmp
393.84	0.72	538	4	6	106	per	lib	low	mod	low	nt	fa	nh/0262_nh.bmp
394.56	0.72	539	4	7	33	mem	con	mod	mod	low	tg	ht	wh/0578.bmp
395.28	0.72	540	6	5	53	mem	con	mod	mod	low	nt	ms	nh/0157_nh.bmp
396.00	0.72	541	4	7	101	per	lib	mod	mod	mod	nt	fa	nh/0556_nh.bmp
396.72	0.72	542	5	6	89	mem	con	mod	mod	mod	tg	ht	wh/0888.bmp
397.44	0.72	543	4	6	120	mem	lib	mod	mod	mod	nt	ht	nh/0735_nh.bmp
398.16	0.72	544	3	6	13	per	lib	mod	mod	mod	tg	ht	wh/0590.bmp
398.88	0.72	545	5	7	85	per	lib	low	mod	low	tg	ms	wh/0023.bmp
399.60	0.72	546	5	7	105	per	lib	mod	mod	mod	nt	fa	nh/0239_nh.bmp
400.32	0.72	547	5	6	93	mem	con	mod	mod	mod	tg	ht	wh/0060.bmp
401.04	0.72	548	2	6	44	per	con	low	mod	low	nt	cr	nh/0450_nh.bmp
401.76	0.72	549	6	6	89	mem	con	mod	mod	mod	tg	ht	wh/0888.bmp
402.48	0.72	550	3	7	56	per	con	mod	mod	mod	tg	ms	wh/0056.bmp
403.20	0.72	551	5	6	120	mem	lib	mod	mod	mod	nt	ht	nh/0735_nh.bmp
403.92	0.72	552	5	6	15	per	lib	mod	mod	mod	tg	ms	wh/0827.bmp
404.64	0.72	553	5	6	47	per	con	low	mod	low	nt	cr	nh/0521_nh.bmp
405.36	0.72	554	4	5	15	mem	lib	mod	mod	low	nt	n/a	nh/0401_nh.bmp
406.08	0.72	555	6	6	33	per	con	low	mod	low	tg	ms	wh/0042.bmp
406.80	0.72	556	5	5	7	mem	lib	mod	mod	low	nt	ht	nh/0453_nh.bmp
407.52	0.72	557	5	5	15	mem	lib	mod	mod	low	nt	n/a	nh/0401_nh.bmp
408.24	0.72	558	1	5	105	per	lib	low	low	low	nt	cr	nh/0990_nh.bmp
408.96	0.72	559	4	7	50	per	con	mod	mod	mod	nt	cr	nh/0436_nh.bmp
409.68	0.72	560	3	8	53	mem	con	mod	mod	mod	tg	ms	wh/0715.bmp
410.40	0.72	561	1	8	33	mem	lib	low	low	mod	tg	ms	wh/0907.bmp
411.12	0.72	562	1	7	48	mem	con	mod	mod	low	nt	ms	nh/0403_nh.bmp
411.84	0.72	563	6	7	91	per	lib	low	mod	low	nt	fa	nh/1019_nh.bmp
412.56	0.72	564	4	6	35	per	con	low	mod	low	nt	cr	nh/0172_nh.bmp
413.28	0.72	565	2	6	74	per	con	mod	mod	mod	nt	cr	nh/0552_nh.bmp
414.00	0.72	566	3	7	98	per	lib	mod	mod	mod	nt	cr	nh/0603_nh.bmp
414.72	0.72	567	1	5	125	per	lib	mod	low	mod	tg	ht	wh/0373.bmp
415.44	0.72	568	6	7	85	per	lib	low	mod	low	tg	ms	wh/0023.bmp
416.16	0.72	569	3	8	57	mem	con	mod	mod	mod	tg	ms	wh/0764.bmp
416.88	0.72	570	2	6	112	per	lib	low	mod	low	tg	ht	wh/0164.bmp
417.60	0.72	571	4	7	52	per	con	mod	mod	mod	nt	cr	nh/0971_nh.bmp
418.32	0.72	572	4	6	114	mem	lib	mod	mod	mod	nt	ht	nh/0399_nh.bmp
419.04	0.72	573	3	6	83	mem	con	mod	mod	mod	nt	ms	nh/0958_nh.bmp
419.76	0.72	574	5	6	114	mem	lib	mod	mod	mod	nt	ht	nh/0399_nh.bmp
420.48	0.72	575	6	7	90	per	lib	low	mod	low	nt	fa	nh/0892_nh.bmp
421.20	0.72	576	4	7	61	per	con	mod	mod	mod	nt	cr	nh/0822_nh.bmp
421.92	0.72	577	3	6	95	mem	con	mod	mod	mod	tg	ms	wh/0294.bmp
422.64	0.72	578	5	7	121	mem	lib	mod	mod	low	tg	ms	wh/1004.bmp
423.36	0.72	579	3	6	2	per	lib	mod	mod	mod	tg	ht	wh/0915.bmp
424.08	0.72	580	6	7	120	mem	lib	mod	mod	low	nt	ms	nh/0820_nh.bmp
424.80	0.72	581	4	8	124	mem	lib	mod	mod	mod	nt	ht	nh/0599_nh.bmp
425.52	0.72	582	4	7	20	per	con	low	mod	low	tg	ms	wh/0064.bmp
426.24	0.72	583	3	6	44	per	con	low	mod	low	nt	cr	nh/0450_nh.bmp
426.96	0.72	584	5	8	117	mem	lib	mod	mod	mod	tg	ht	wh/0337.bmp
427.68	0.72	585	3	6	74	per	con	mod	mod	mod	nt	cr	nh/0552_nh.bmp
428.40	0.72	586	2	7	48	mem	con	mod	mod	low	nt	ms	nh/0403_nh.bmp
429.12	0.72	587	4	8	59	mem	con	mod	mod	mod	nt	ms	nh/0871_nh.bmp
429.84	0.72	588	4	7	82	per	lib	low	mod	low	tg	ms	wh/0618.bmp
430.56	0.72	589	5	6	109	per	lib	low	mod	low	nt	fa	nh/0249_nh.bmp
431.28	0.72	590	5	7	62	per	con	mod	mod	mod	nt	cr	nh/0549_nh.bmp
432.00	0.72	591	5	8	51	mem	con	mod	mod	mod	tg	ms	wh/0495.bmp
432.72	0.72	592	3	7	48	mem	con	mod	mod	low	nt	ms	nh/0403_nh.bmp
433.44	0.72	593	2	6	37	per	con	low	mod	low	tg	ht	wh/0939.bmp
434.16	0.72	594	5	5	1	mem	lib	mod	mod	low	tg	ht	wh/0814.bmp
434.88	0.72	595	6	7	107	per	lib	mod	mod	mod	tg	ht	wh/0717.bmp
435.60	0.72	596	4	8	57	mem	con	mod	mod	mod	tg	ms	wh/0764.bmp
436.32	0.72	597	5	7	37	mem	con	mod	mod	low	nt	ht	nh/0746_nh.bmp
437.04	0.72	598	6	8	51	mem	con	mod	mod	mod	tg	ms	wh/0495.bmp
437.76	0.72	599	4	7	83	per	lib	low	mod	low	nt	fa	nh/0170_nh.bmp
438.48	0.72	600	6	6	109	per	lib	low	mod	low	nt	fa	nh/0249_nh.bmp
439.20	0.72	601	6	7	63	per	con	mod	mod	mod	tg	ms	wh/0366.bmp
439.92	0.72	602	1	8	87	per	con	mod	low	mod	nt	cr	nh/0475_nh.bmp
440.64	0.72	603	5	6	5	per	lib	mod	mod	mod	nt	fa	nh/0275_nh.bmp
441.36	0.72	604	4	6	113	mem	lib	mod	mod	mod	tg	ht	wh/0086.bmp
442.08	0.72	605	4	7	102	per	lib	mod	mod	mod	tg	ms	wh/0020.bmp
442.80	0.72	606	6	7	47	mem	con	mod	mod	low	tg	ht	wh/0193.bmp
443.52	0.72	607	4	7	48	mem	con	mod	mod	low	nt	ms	nh/0403_nh.bmp
444.24	0.72	608	1	8	108	mem	con	low	low	mod	nt	ms	nh/0631_nh.bmp
444.96	0.72	609	2	6	3	per	lib	mod	mod	mod	nt	fa	nh/0666_nh.bmp
445.68	0.72	610	5	7	61	per	con	mod	mod	mod	nt	cr	nh/0822_nh.bmp
446.40	0.72	611	3	8	50	mem	con	mod	mod	mod	nt	ms	nh/0602_nh.bmp
447.12	0.72	612	5	7	109	per	lib	mod	mod	mod	tg	ht	wh/0378.bmp
447.84	0.72	613	2	7	26	per	con	low	mod	low	nt	cr	nh/0012_nh.bmp
448.56	0.72	614	5	5	55	mem	con	mod	mod	low	tg	ht	wh/0863.bmp
449.28	0.72	615	6	8	117	mem	lib	mod	mod	mod	tg	ht	wh/0337.bmp
450.00	0.72	616	4	5	13	mem	lib	mod	mod	low	nt	ht	nh/0756_nh.bmp
450.72	0.72	617	4	8	60	mem	con	mod	mod	mod	tg	ms	wh/0851.bmp
451.44	0.72	618	4	5	9	mem	lib	mod	mod	low	tg	ht	wh/0114.bmp
452.16	0.72	619	4	7	27	per	con	low	mod	low	nt	fa	nh/0780_nh.bmp
452.88	0.72	620	3	5	12	mem	lib	mod	mod	low	tg	ht	wh/0176.bmp
453.60	0.72	621	5	8	128	mem	lib	mod	mod	mod	tg	ht	wh/0623.bmp
454.32	0.72	622	5	6	35	per	con	low	mod	low	nt	cr	nh/0172_nh.bmp
455.04	0.72	623	5	5	61	mem	con	mod	mod	low	tg	ht	wh/0024.bmp
455.76	0.72	624	5	7	35	mem	con	mod	mod	low	nt	ms	nh/0793_nh.bmp
456.48	0.72	625	4	8	53	mem	con	mod	mod	mod	tg	ms	wh/0715.bmp
457.20	0.72	626	5	6	106	per	lib	low	mod	low	nt	fa	nh/0262_nh.bmp
457.92	0.72	627	4	7	45	mem	con	mod	mod	low	tg	ms	wh/0165.bmp
458.64	0.72	628	5	7	45	mem	con	mod	mod	low	tg	ms	wh/0165.bmp
459.36	0.72	629	4	7	98	per	lib	mod	mod	mod	nt	cr	nh/0603_nh.bmp
460.08	0.72	630	1	5	109	per	lib	low	low	low	tg	ms	wh/0198.bmp
460.80	0.72	631	5	6	79	per	con	mod	mod	mod	tg	ms	wh/0852.bmp
461.52	0.72	632	5	7	83	per	lib	low	mod	low	nt	fa	nh/0170_nh.bmp
462.24	0.72	633	5	8	123	mem	lib	mod	mod	mod	tg	ms	wh/0995.bmp
462.96	0.72	634	3	5	62	mem	con	mod	mod	low	tg	ht	wh/0519.bmp
463.68	0.72	635	3	6	37	per	con	low	mod	low	tg	ht	wh/0939.bmp
464.40	0.72	636	1	8	36	mem	lib	low	low	mod	tg	ht	wh/0749.bmp
465.12	0.72	637	6	6	15	per	lib	mod	mod	mod	tg	ms	wh/0827.bmp
465.84	0.72	638	6	6	92	mem	con	mod	mod	mod	tg	ht	wh/0441.bmp
466.56	0.72	639	5	7	33	mem	con	mod	mod	low	tg	ht	wh/0578.bmp
467.28	0.72	640	6	7	45	mem	con	mod	mod	low	tg	ms	wh/0165.bmp
468.00	0.72	641	1	8	106	mem	con	low	low	mod	tg	ht	wh/1008.bmp
468.72	0.72	642	5	7	31	per	con	low	mod	low	nt	fa	nh/0254_nh.bmp
469.44	0.72	643	1	5	48	mem	con	low	low	low	tg	ms	wh/0043.bmp
470.16	0.72	644	5	5	13	mem	lib	mod	mod	low	nt	ht	nh/0756_nh.bmp
470.88	0.72	645	4	6	2	per	lib	mod	mod	mod	tg	ht	wh/0915.bmp
471.60	0.72	646	6	6	72	per	con	mod	mod	mod	nt	cr	nh/0763_nh.bmp
472.32	0.72	647	1	8	18	per	lib	mod	low	mod	nt	fa	nh/0951_nh.bmp
473.04	0.72	648	1	8	41	mem	lib	low	low	mod	tg	ht	wh/0180.bmp
473.76	0.72	649	4	7	56	per	con	mod	mod	mod	tg	ms	wh/0056.bmp
474.48	0.72	650	5	7	50	per	con	mod	mod	mod	nt	cr	nh/0436_nh.bmp
475.20	0.72	651	6	7	118	mem	lib	mod	mod	low	tg	n/a	wh/0875.bmp
475.92	0.72	652	1	5	103	per	lib	low	low	low	tg	ms	wh/0830.bmp
476.64	0.72	653	6	6	106	per	lib	low	mod	low	nt	fa	nh/0262_nh.bmp
477.36	0.72	654	3	6	3	per	lib	mod	mod	mod	nt	fa	nh/0666_nh.bmp
478.08	0.72	655	1	8	97	mem	con	low	low	mod	tg	ms	wh/0389.bmp
478.80	0.72	656	1	5	29	mem	lib	low	low	mod	tg	ht	wh/0395.bmp
479.52	0.72	657	4	7	38	mem	con	mod	mod	low	nt	ht	nh/0118_nh.bmp
480.24	0.72	658	5	8	126	mem	lib	mod	mod	mod	tg	ht	wh/0560.bmp
480.96	0.72	659	5	6	116	mem	lib	mod	mod	mod	nt	ms	nh/0778_nh.bmp
481.68	0.72	660	3	5	50	mem	con	mod	mod	low	nt	ms	nh/0253_nh.bmp
482.40	0.72	661	6	6	79	per	con	mod	mod	mod	tg	ms	wh/0852.bmp
483.12	0.72	662	6	8	63	mem	con	mod	mod	mod	nt	ms	nh/0609_nh.bmp
483.84	0.72	663	5	8	60	mem	con	mod	mod	mod	tg	ms	wh/0851.bmp
484.56	0.72	664	6	7	109	per	lib	mod	mod	mod	tg	ht	wh/0378.bmp
485.28	0.72	665	4	5	50	mem	con	mod	mod	low	nt	ms	nh/0253_nh.bmp
486.00	0.72	666	5	7	82	per	lib	low	mod	low	tg	ms	wh/0618.bmp
486.72	0.72	667	5	6	122	mem	lib	mod	mod	mod	tg	ht	wh/0318.bmp
487.44	0.72	668	1	5	116	per	lib	mod	low	mod	nt	fa	nh/0751_nh.bmp
488.16	0.72	669	6	7	50	per	con	mod	mod	mod	nt	cr	nh/0436_nh.bmp
488.88	0.72	670	4	6	37	per	con	low	mod	low	tg	ht	wh/0939.bmp
489.60	0.72	671	6	6	86	mem	con	mod	mod	mod	nt	ht	nh/0420_nh.bmp
490.32	0.72	672	5	6	2	per	lib	mod	mod	mod	tg	ht	wh/0915.bmp
491.04	0.72	673	3	6	112	per	lib	low	mod	low	tg	ht	wh/0164.bmp
491.76	0.72	674	1	8	5	per	con	low	low	low	nt	cr	nh/0842_nh.bmp
492.48	0.72	675	3	7	119	mem	lib	mod	mod	low	nt	ht	nh/0491_nh.bmp
493.20	0.72	676	5	7	20	per	con	low	mod	low	tg	ms	wh/0064.bmp
493.92	0.72	677	5	5	6	mem	lib	mod	mod	low	tg	ht	wh/0248.bmp
494.64	0.72	678	4	6	3	per	lib	mod	mod	mod	nt	fa	nh/0666_nh.bmp
495.36	0.72	679	4	6	74	per	con	mod	mod	mod	nt	cr	nh/0552_nh.bmp
496.08	0.72	680	6	7	37	mem	con	mod	mod	low	nt	ht	nh/0746_nh.bmp
496.80	0.72	681	4	6	83	mem	con	mod	mod	mod	nt	ms	nh/0958_nh.bmp
497.52	0.72	682	5	6	102	per	lib	low	mod	low	nt	fa	nh/0108_nh.bmp
498.24	0.72	683	1	7	11	mem	lib	low	low	low	tg	ms	wh/0268.bmp
498.96	0.72	684	6	8	123	mem	lib	mod	mod	mod	tg	ms	wh/0995.bmp
499.68	0.72	685	1	7	80	mem	con	low	low	low	nt	ms	nh/0617_nh.bmp
500.40	0.72	686	1	8	112	mem	con	low	low	mod	nt	ht	nh/0559_nh.bmp
501.12	0.72	687	4	6	105	per	lib	low	mod	low	tg	ms	wh/0734.bmp
501.84	0.72	688	6	5	55	mem	con	mod	mod	low	tg	ht	wh/0863.bmp
502.56	0.72	689	1	7	5	mem	lib	low	low	low	nt	ht	nh/0767_nh.bmp
503.28	0.72	690	5	7	32	per	con	low	mod	low	nt	cr	nh/0139_nh.bmp
504.00	0.72	691	1	8	88	per	con	mod	low	mod	tg	ms	wh/0625.bmp
504.72	0.72	692	5	6	111	per	lib	low	mod	low	tg	ht	wh/0247.bmp
505.44	0.72	693	6	5	61	mem	con	mod	mod	low	tg	ht	wh/0024.bmp
506.16	0.72	694	5	8	114	mem	lib	mod	mod	mod	nt	ht	nh/0833_nh.bmp
506.88	0.72	695	4	5	12	mem	lib	mod	mod	low	tg	ht	wh/0176.bmp
507.60	0.72	696	5	6	8	per	lib	mod	mod	mod	tg	ht	wh/0968.bmp
508.32	0.72	697	5	7	52	per	con	mod	mod	mod	nt	cr	nh/0971_nh.bmp
509.04	0.72	698	4	8	50	mem	con	mod	mod	mod	nt	ms	nh/0602_nh.bmp
509.76	0.72	699	6	6	114	mem	lib	mod	mod	mod	nt	ht	nh/0399_nh.bmp
510.48	0.72	700	6	6	93	mem	con	mod	mod	mod	tg	ht	wh/0060.bmp
511.20	0.72	701	5	7	18	per	con	low	mod	low	tg	ms	wh/0640.bmp
511.92	0.72	702	6	5	60	mem	con	mod	mod	low	nt	ms	nh/0297_nh.bmp
512.64	0.72	703	6	8	122	mem	lib	mod	mod	mod	nt	ht	nh/0797_nh.bmp
513.36	0.72	704	6	6	111	per	lib	low	mod	low	tg	ht	wh/0247.bmp
514.08	0.72	705	1	8	12	per	con	low	low	low	tg	ms	wh/0677.bmp
514.80	0.72	706	5	7	126	mem	lib	mod	mod	low	nt	ms	nh/0582_nh.bmp
515.52	0.72	707	5	5	50	mem	con	mod	mod	low	nt	ms	nh/0253_nh.bmp
516.24	0.72	708	4	6	95	mem	con	mod	mod	mod	tg	ms	wh/0294.bmp
516.96	0.72	709	5	7	99	per	lib	mod	mod	mod	tg	ht	wh/0952.bmp
517.68	0.72	710	4	7	49	per	con	mod	mod	mod	tg	ms	wh/0179.bmp
518.40	0.72	711	5	7	86	per	lib	low	mod	low	nt	cr	nh/0986_nh.bmp
519.12	0.72	712	4	6	98	per	lib	low	mod	low	tg	ht	wh/0647.bmp
519.84	0.72	713	6	7	55	per	con	mod	mod	mod	tg	ht	wh/0629.bmp
520.56	0.72	714	4	8	127	mem	lib	mod	mod	mod	nt	ht	nh/0408_nh.bmp
521.28	0.72	715	4	6	44	per	con	low	mod	low	nt	cr	nh/0450_nh.bmp
522.00	0.72	716	5	8	124	mem	lib	mod	mod	mod	nt	ht	nh/0599_nh.bmp
522.72	0.72	717	4	5	62	mem	con	mod	mod	low	tg	ht	wh/0519.bmp
523.44	0.72	718	5	7	38	mem	con	mod	mod	low	nt	ht	nh/0118_nh.bmp
524.16	0.72	719	6	6	103	per	lib	low	mod	low	nt	fa	nh/0143_nh.bmp
524.88	0.72	720	5	8	59	mem	con	mod	mod	mod	nt	ms	nh/0871_nh.bmp
525.60	0.72	721	1	5	34	mem	con	low	low	low	tg	ms	wh/0994.bmp
526.32	0.72	722	4	6	112	per	lib	low	mod	low	tg	ht	wh/0164.bmp
527.04	0.72	723	6	5	13	mem	lib	mod	mod	low	nt	ht	nh/0756_nh.bmp
527.76	0.72	724	6	6	87	mem	con	mod	mod	mod	nt	ms	nh/0546_nh.bmp
528.48	0.72	725	5	6	98	per	lib	low	mod	low	tg	ht	wh/0647.bmp
529.20	0.72	726	5	6	112	per	lib	low	mod	low	tg	ht	wh/0164.bmp
529.92	0.72	727	6	6	5	per	lib	mod	mod	mod	nt	fa	nh/0275_nh.bmp
530.64	0.72	728	4	6	94	mem	con	mod	mod	mod	nt	ms	nh/0686_nh.bmp
531.36	0.72	729	6	7	18	per	con	low	mod	low	tg	ms	wh/0640.bmp
532.08	0.72	730	4	6	69	per	con	mod	mod	mod	tg	ht	wh/0832.bmp
532.80	0.72	731	4	6	48	per	con	low	mod	low	nt	cr	nh/0388_nh.bmp
533.52	0.72	732	4	7	119	mem	lib	mod	mod	low	nt	ht	nh/0491_nh.bmp
534.24	0.72	733	5	5	9	mem	lib	mod	mod	low	tg	ht	wh/0114.bmp
534.96	0.72	734	6	5	6	mem	lib	mod	mod	low	tg	ht	wh/0248.bmp
535.68	0.72	735	1	8	102	mem	con	low	low	mod	tg	ms	wh/0840.bmp
536.40	0.72	736	6	7	35	mem	con	mod	mod	low	nt	ms	nh/0793_nh.bmp
537.12	0.72	737	4	7	23	per	con	low	mod	low	tg	ms	wh/0111.bmp
537.84	0.72	738	6	5	54	mem	con	mod	mod	low	nt	ht	nh/0883_nh.bmp
538.56	0.72	739	4	6	76	per	con	mod	mod	mod	tg	ht	wh/0300.bmp
539.28	0.72	740	6	5	50	mem	con	mod	mod	low	nt	ms	nh/0253_nh.bmp
540.00	0.72	741	6	6	1	per	lib	mod	mod	mod	nt	cr	nh/0638_nh.bmp
540.72	0.72	742	6	7	121	mem	lib	mod	mod	low	tg	ms	wh/1004.bmp
541.44	0.72	743	6	7	32	per	con	low	mod	low	nt	cr	nh/0139_nh.bmp
542.16	0.72	744	6	7	105	per	lib	mod	mod	mod	nt	fa	nh/0239_nh.bmp
542.88	0.72	745	6	8	59	mem	con	mod	mod	mod	nt	ms	nh/0871_nh.bmp
543.60	0.72	746	6	6	35	per	con	low	mod	low	nt	cr	nh/0172_nh.bmp
544.32	0.72	747	5	6	128	mem	lib	mod	mod	mod	nt	ht	nh/0385_nh.bmp
545.04	0.72	748	6	6	122	mem	lib	mod	mod	mod	tg	ht	wh/0318.bmp
545.76	0.72	749	5	8	57	mem	con	mod	mod	mod	tg	ms	wh/0764.bmp
546.48	0.72	750	6	6	47	per	con	low	mod	low	nt	cr	nh/0521_nh.bmp
547.20	0.72	751	1	8	37	mem	lib	low	low	mod	nt	ht	nh/0207_nh.bmp
547.92	0.72	752	5	5	12	mem	lib	mod	mod	low	tg	ht	wh/0176.bmp
548.64	0.72	753	5	7	102	per	lib	mod	mod	mod	tg	ms	wh/0020.bmp
549.36	0.72	754	5	6	66	per	con	mod	mod	mod	tg	ht	wh/0586.bmp
550.08	0.72	755	5	7	98	per	lib	mod	mod	mod	nt	cr	nh/0603_nh.bmp
550.80	0.72	756	6	5	12	mem	lib	mod	mod	low	tg	ht	wh/0176.bmp
551.52	0.72	757	5	6	37	per	con	low	mod	low	tg	ht	wh/0939.bmp
552.24	0.72	758	6	7	61	per	con	mod	mod	mod	nt	cr	nh/0822_nh.bmp
552.96	0.72	759	5	6	95	mem	con	mod	mod	mod	tg	ms	wh/0294.bmp
553.68	0.72	760	5	8	127	mem	lib	mod	mod	mod	nt	ht	nh/0408_nh.bmp
554.40	0.72	761	1	7	71	mem	con	low	low	low	nt	ms	nh/0244_nh.bmp
555.12	0.72	762	1	8	14	per	con	low	low	low	tg	ms	wh/0138.bmp
555.84	0.72	763	6	8	124	mem	lib	mod	mod	mod	nt	ht	nh/0599_nh.bmp
556.56	0.72	764	5	7	23	per	con	low	mod	low	tg	ms	wh/0111.bmp
557.28	0.72	765	5	6	113	mem	lib	mod	mod	mod	tg	ht	wh/0086.bmp
558.00	0.72	766	4	7	125	mem	lib	mod	mod	low	tg	ht	wh/0574.bmp
558.72	0.72	767	5	8	53	mem	con	mod	mod	mod	tg	ms	wh/0715.bmp
559.44	0.72	768	5	8	50	mem	con	mod	mod	mod	nt	ms	nh/0602_nh.bmp
560.16	0.72	769	1	8	3	per	con	low	low	low	tg	ms	wh/0175.bmp
560.88	0.72	770	1	8	94	per	con	mod	low	mod	nt	cr	nh/0037_nh.bmp
561.60	0.72	771	4	6	75	per	con	mod	mod	mod	nt	cr	nh/0544_nh.bmp
562.32	0.72	772	6	6	8	per	lib	mod	mod	mod	tg	ht	wh/0968.bmp
563.04	0.72	773	1	5	85	per	con	low	low	low	tg	n/a	wh/0147.bmp
563.76	0.72	774	6	8	114	mem	lib	mod	mod	mod	nt	ht	nh/0833_nh.bmp
564.48	0.72	775	5	7	27	per	con	low	mod	low	nt	fa	nh/0780_nh.bmp
565.20	0.72	776	5	6	3	per	lib	mod	mod	mod	nt	fa	nh/0666_nh.bmp
565.92	0.72	777	6	8	60	mem	con	mod	mod	mod	tg	ms	wh/0851.bmp
566.64	0.72	778	4	6	13	per	lib	mod	mod	mod	tg	ht	wh/0590.bmp
567.36	0.72	779	6	7	126	mem	lib	mod	mod	low	nt	ms	nh/0582_nh.bmp
568.08	0.72	780	6	6	125	mem	lib	mod	mod	mod	tg	ht	wh/0564.bmp
568.80	0.72	781	6	7	23	per	con	low	mod	low	tg	ms	wh/0111.bmp
569.52	0.72	782	6	7	98	per	lib	mod	mod	mod	nt	cr	nh/0603_nh.bmp
570.24	0.72	783	6	8	127	mem	lib	mod	mod	mod	nt	ht	nh/0408_nh.bmp
570.96	0.72	784	5	6	48	per	con	low	mod	low	nt	cr	nh/0388_nh.bmp
571.68	0.72	785	5	7	123	mem	lib	mod	mod	low	nt	ht	nh/0073_nh.bmp
572.40	0.72	786	6	6	116	mem	lib	mod	mod	mod	nt	ms	nh/0778_nh.bmp
573.12	0.72	787	5	7	97	per	lib	mod	mod	mod	nt	fa	nh/0694_nh.bmp
573.84	0.72	788	6	7	52	per	con	mod	mod	mod	nt	cr	nh/0971_nh.bmp
574.56	0.72	789	6	7	99	per	lib	mod	mod	mod	tg	ht	wh/0952.bmp
575.28	0.72	790	6	8	57	mem	con	mod	mod	mod	tg	ms	wh/0764.bmp
576.00	0.72	791	5	6	83	mem	con	mod	mod	mod	nt	ms	nh/0958_nh.bmp
576.72	0.72	792	1	7	77	mem	con	low	low	low	tg	ms	wh/0880.bmp
577.44	0.72	793	1	7	15	mem	lib	low	low	low	nt	ht	nh/0352_nh.bmp
578.16	0.72	794	6	6	66	per	con	mod	mod	mod	tg	ht	wh/0586.bmp
578.88	0.72	795	3	7	26	per	con	low	mod	low	nt	cr	nh/0012_nh.bmp
579.60	0.72	796	6	6	37	per	con	low	mod	low	tg	ht	wh/0939.bmp
580.32	0.72	797	1	6	55	mem	con	low	low	mod	nt	ms	nh/0342_nh.bmp
581.04	0.72	798	5	6	13	per	lib	mod	mod	mod	tg	ht	wh/0590.bmp
581.76	0.72	799	5	6	75	per	con	mod	mod	mod	nt	cr	nh/0544_nh.bmp
582.48	0.72	800	5	7	101	per	lib	mod	mod	mod	nt	fa	nh/0556_nh.bmp
583.20	0.72	801	5	7	119	mem	lib	mod	mod	low	nt	ht	nh/0491_nh.bmp
583.92	0.72	802	1	8	86	per	con	mod	low	mod	tg	ht	wh/0537.bmp
584.64	0.72	803	6	6	120	mem	lib	mod	mod	mod	nt	ht	nh/0735_nh.bmp
585.36	0.72	804	6	7	27	per	con	low	mod	low	nt	fa	nh/0780_nh.bmp
586.08	0.72	805	1	8	75	per	lib	low	low	low	nt	fa	nh/0240_nh.bmp
586.80	0.72	806	6	6	3	per	lib	mod	mod	mod	nt	fa	nh/0666_nh.bmp
587.52	0.72	807	5	6	44	per	con	low	mod	low	nt	cr	nh/0450_nh.bmp
588.24	0.72	808	5	6	76	per	con	mod	mod	mod	tg	ht	wh/0300.bmp
588.96	0.72	809	1	8	98	mem	con	low	low	mod	nt	ms	nh/0101_nh.bmp
589.68	0.72	810	6	6	83	mem	con	mod	mod	mod	nt	ms	nh/0958_nh.bmp
590.40	0.72	811	1	6	21	mem	lib	low	low	low	tg	ht	wh/0285.bmp
591.12	0.72	812	6	6	13	per	lib	mod	mod	mod	tg	ht	wh/0590.bmp
591.84	0.72	813	4	7	87	per	lib	low	mod	low	tg	ht	wh/0018.bmp
592.56	0.72	814	6	7	31	per	con	low	mod	low	nt	fa	nh/0254_nh.bmp
593.28	0.72	815	1	5	98	per	lib	low	low	low	nt	cr	nh/0516_nh.bmp
594.00	0.72	816	5	6	69	per	con	mod	mod	mod	tg	ht	wh/0832.bmp
594.72	0.72	817	6	7	119	mem	lib	mod	mod	low	nt	ht	nh/0491_nh.bmp
595.44	0.72	818	6	7	38	mem	con	mod	mod	low	nt	ht	nh/0118_nh.bmp
596.16	0.72	819	6	6	98	per	lib	low	mod	low	tg	ht	wh/0647.bmp
596.88	0.72	820	6	8	128	mem	lib	mod	mod	mod	tg	ht	wh/0623.bmp
597.60	0.72	821	5	7	56	per	con	mod	mod	mod	tg	ms	wh/0056.bmp
598.32	0.72	822	6	8	126	mem	lib	mod	mod	mod	tg	ht	wh/0560.bmp
599.04	0.72	823	6	6	118	mem	lib	mod	mod	mod	tg	ht	wh/0835.bmp
599.76	0.72	824	6	7	86	per	lib	low	mod	low	nt	cr	nh/0986_nh.bmp
600.48	0.72	825	5	6	74	per	con	mod	mod	mod	nt	cr	nh/0552_nh.bmp
601.20	0.72	826	6	8	53	mem	con	mod	mod	mod	tg	ms	wh/0715.bmp
601.92	0.72	827	5	7	49	per	con	mod	mod	mod	tg	ms	wh/0179.bmp
602.64	0.72	828	5	6	94	mem	con	mod	mod	mod	nt	ms	nh/0686_nh.bmp
603.36	0.72	829	6	5	1	mem	lib	mod	mod	low	tg	ht	wh/0814.bmp
604.08	0.72	830	1	5	82	per	con	low	low	low	nt	cr	nh/0202_nh.bmp
604.80	0.72	831	6	7	33	mem	con	mod	mod	low	tg	ht	wh/0578.bmp
605.52	0.72	832	6	6	48	per	con	low	mod	low	nt	cr	nh/0388_nh.bmp
606.24	0.72	833	1	7	70	mem	con	low	low	low	nt	ms	nh/0045_nh.bmp
606.96	0.72	834	5	7	87	per	lib	low	mod	low	tg	ht	wh/0018.bmp
607.68	0.72	835	1	5	44	mem	con	low	low	low	tg	ht	wh/0657.bmp
608.40	0.72	836	4	7	26	per	con	low	mod	low	nt	cr	nh/0012_nh.bmp
609.12	0.72	837	6	7	49	per	con	mod	mod	mod	tg	ms	wh/0179.bmp
609.84	0.72	838	6	7	83	per	lib	low	mod	low	nt	fa	nh/0170_nh.bmp
610.56	0.72	839	5	6	105	per	lib	low	mod	low	tg	ms	wh/0734.bmp
611.28	0.72	840	6	6	75	per	con	mod	mod	mod	nt	cr	nh/0544_nh.bmp
612.00	0.72	841	1	6	58	mem	con	low	low	mod	tg	ht	wh/0663.bmp
612.72	0.72	842	5	6	43	per	con	low	mod	low	tg	ht	wh/0255.bmp
613.44	0.72	843	6	6	43	per	con	low	mod	low	tg	ht	wh/0255.bmp
614.16	0.72	844	5	6	36	per	con	low	mod	low	tg	ms	wh/0848.bmp
614.88	0.72	845	1	6	64	mem	con	low	low	mod	tg	ht	wh/0924.bmp
615.60	0.72	846	1	8	47	mem	lib	low	low	mod	tg	ht	wh/0545.bmp
616.32	0.72	847	5	7	125	mem	lib	mod	mod	low	tg	ht	wh/0574.bmp
617.04	0.72	848	5	6	6	per	lib	mod	mod	mod	nt	fa	nh/0821_nh.bmp
617.76	0.72	849	6	6	105	per	lib	low	mod	low	tg	ms	wh/0734.bmp
618.48	0.72	850	6	6	76	per	con	mod	mod	mod	tg	ht	wh/0300.bmp
619.20	0.72	851	1	5	17	mem	lib	low	low	mod	tg	n/a	wh/0982.bmp
619.92	0.72	852	6	7	20	per	con	low	mod	low	tg	ms	wh/0064.bmp
620.64	0.72	853	5	7	48	mem	con	mod	mod	low	nt	ms	nh/0403_nh.bmp
621.36	0.72	854	1	8	22	per	lib	mod	low	mod	nt	cr	nh/0188_nh.bmp
622.08	0.72	855	5	5	62	mem	con	mod	mod	low	tg	ht	wh/0519.bmp
622.80	0.72	856	6	5	51	mem	con	mod	mod	low	tg	ht	wh/0612.bmp
623.52	0.72	857	6	6	112	per	lib	low	mod	low	tg	ht	wh/0164.bmp
624.24	0.72	858	6	6	44	per	con	low	mod	low	nt	cr	nh/0450_nh.bmp
624.96	0.72	859	6	7	101	per	lib	mod	mod	mod	nt	fa	nh/0556_nh.bmp
625.68	0.72	860	6	7	48	mem	con	mod	mod	low	nt	ms	nh/0403_nh.bmp
626.40	0.72	861	1	7	78	mem	con	low	low	low	nt	ms	nh/0063_nh.bmp
627.12	0.72	862	6	6	95	mem	con	mod	mod	mod	tg	ms	wh/0294.bmp
627.84	0.72	863	6	5	7	mem	lib	mod	mod	low	nt	ht	nh/0453_nh.bmp
628.56	0.72	864	1	8	16	per	con	low	low	low	nt	cr	nh/0676_nh.bmp
629.28	0.72	865	6	7	56	per	con	mod	mod	mod	tg	ms	wh/0056.bmp
630.00	0.72	866	5	7	26	per	con	low	mod	low	nt	cr	nh/0012_nh.bmp
630.72	0.72	867	6	7	26	per	con	low	mod	low	nt	cr	nh/0012_nh.bmp
631.44	0.72	868	6	6	102	per	lib	low	mod	low	nt	fa	nh/0108_nh.bmp
632.16	0.72	869	5	5	11	mem	lib	mod	mod	low	nt	ht	nh/0394_nh.bmp
632.88	0.72	870	6	7	97	per	lib	mod	mod	mod	nt	fa	nh/0694_nh.bmp
633.60	0.72	871	6	7	82	per	lib	low	mod	low	tg	ms	wh/0618.bmp
634.32	0.72	872	6	7	87	per	lib	low	mod	low	tg	ht	wh/0018.bmp
635.04	0.72	873	6	7	123	mem	lib	mod	mod	low	nt	ht	nh/0073_nh.bmp
635.76	0.72	874	6	5	62	mem	con	mod	mod	low	tg	ht	wh/0519.bmp
636.48	0.72	875	1	6	57	mem	con	low	low	mod	nt	ms	nh/0091_nh.bmp
637.20	0.72	876	6	6	74	per	con	mod	mod	mod	nt	cr	nh/0552_nh.bmp
637.92	0.72	877	6	6	128	mem	lib	mod	mod	mod	nt	ht	nh/0385_nh.bmp
638.64	0.72	878	6	6	2	per	lib	mod	mod	mod	tg	ht	wh/0915.bmp
639.36	0.72	879	6	6	94	mem	con	mod	mod	mod	nt	ms	nh/0686_nh.bmp
640.08	0.72	880	1	8	45	mem	lib	low	low	mod	nt	ht	nh/0016_nh.bmp
640.80	0.72	881	6	7	62	per	con	mod	mod	mod	nt	cr	nh/0549_nh.bmp
641.52	0.72	882	1	5	120	per	lib	mod	low	mod	nt	cr	nh/1016_nh.bmp
642.24	0.72	883	6	5	9	mem	lib	mod	mod	low	tg	ht	wh/0114.bmp
642.96	0.72	884	1	5	84	per	con	low	low	low	nt	cr	nh/1011_nh.bmp
643.68	0.72	885	6	6	36	per	con	low	mod	low	tg	ms	wh/0848.bmp
644.40	0.72	886	6	6	69	per	con	mod	mod	mod	tg	ht	wh/0832.bmp
645.12	0.72	887	6	8	58	mem	con	mod	mod	mod	nt	ht	nh/0269_nh.bmp
645.84	0.72	888	6	6	6	per	lib	mod	mod	mod	nt	fa	nh/0821_nh.bmp
646.56	0.72	889	6	5	11	mem	lib	mod	mod	low	nt	ht	nh/0394_nh.bmp
647.28	0.72	890	6	7	102	per	lib	mod	mod	mod	tg	ms	wh/0020.bmp
648.00	0.72	891	6	7	125	mem	lib	mod	mod	low	tg	ht	wh/0574.bmp
648.72	0.72	892	1	7	72	mem	con	low	low	low	tg	ms	wh/0570.bmp
649.44	0.72	893	6	6	113	mem	lib	mod	mod	mod	tg	ht	wh/0086.bmp
650.16	0.72	894	1	8	68	per	lib	low	low	low	tg	ht	wh/0005.bmp
650.88	0.72	895	6	5	15	mem	lib	mod	mod	low	nt	n/a	nh/0401_nh.bmp
651.60	0.72	896	6	8	50	mem	con	mod	mod	mod	nt	ms	nh/0602_nh.bmp
