onset	duration	trial	pres	ts_blk	ts_trl	task	crit	disc	mem_disc	per_disc	per_type	accuracy	stim_file
7.20	0.72	1	1	2	118	mem	lib	mod	mod	mod	tg	ht	wh/0775.bmp
7.92	0.72	2	1	4	123	mem	lib	mod	mod	mod	tg	ht	wh/0534.bmp
8.64	0.72	3	1	3	52	per	con	mod	mod	mod	nt	cr	nh/0580_nh.bmp
9.36	0.72	4	1	2	75	per	con	mod	mod	mod	nt	cr	nh/0600_nh.bmp
10.08	0.72	5	1	3	120	mem	lib	mod	mod	low	nt	ht	nh/0156_nh.bmp
10.80	0.72	6	1	1	51	mem	con	mod	mod	low	tg	ht	wh/0648.bmp
11.52	0.72	7	1	1	53	mem	con	mod	mod	low	nt	ms	nh/0897_nh.bmp
12.24	0.72	8	1	2	86	mem	con	mod	mod	mod	nt	ht	nh/0942_nh.bmp
12.96	0.72	9	1	4	117	mem	lib	mod	mod	mod	tg	ht	wh/0981.bmp
13.68	0.72	10	1	3	87	per	lib	low	mod	low	tg	ht	wh/0019.bmp
14.40	0.72	11	1	2	87	mem	con	mod	mod	mod	nt	ms	nh/0884_nh.bmp
15.12	0.72	12	1	3	49	per	con	mod	mod	mod	tg	ms	wh/0938.bmp
15.84	0.72	13	1	1	65	per	con	mod	low	mod	nt	cr	nh/0272_nh.bmp
16.56	0.72	14	1	3	109	per	lib	mod	mod	mod	tg	ht	wh/0642.bmp
17.28	0.72	15	1	2	74	per	con	mod	mod	mod	nt	cr	nh/0162_nh.bmp
18.00	0.72	16	1	1	60	mem	con	mod	mod	low	nt	ms	nh/0298_nh.bmp
18.72	0.72	17	1	4	122	mem	lib	mod	mod	mod	nt	ht	nh/0801_nh.bmp
19.44	0.72	18	1	2	73	per	con	mod	mod	mod	nt	cr	nh/0596_nh.bmp
20.16	0.72	19	1	3	75	mem	con	low	low	low	tg	ht	wh/0788.bmp
20.88	0.72	20	1	3	31	per	con	low	mod	low	nt	cr	nh/0733_nh.bmp
21.60	0.72	21	1	3	35	mem	con	mod	mod	low	nt	ht	nh/0472_nh.bmp
22.32	0.72	22	1	3	91	per	lib	low	mod	low	nt	fa	nh/0816_nh.bmp
23.04	0.72	23	2	4	117	mem	lib	mod	mod	mod	tg	ht	wh/0981.bmp
23.76	0.72	24	1	2	8	per	lib	mod	mod	mod	tg	ht	wh/0561.bmp
24.48	0.72	25	1	3	125	mem	lib	mod	mod	low	tg	ht	wh/0325.bmp
25.20	0.72	26	1	2	106	per	lib	low	mod	low	nt	fa	nh/0155_nh.bmp
25.92	0.72	27	2	3	35	mem	con	mod	mod	low	nt	ht	nh/0472_nh.bmp
26.64	0.72	28	1	1	122	per	lib	mod	low	mod	tg	ht	wh/0296.bmp
27.36	0.72	29	1	3	25	per	con	low	mod	low	tg	ms	wh/0177.bmp
28.08	0.72	30	1	1	113	per	lib	mod	low	mod	nt	fa	nh/0324_nh.bmp
28.80	0.72	31	2	2	75	per	con	mod	mod	mod	nt	cr	nh/0600_nh.bmp
29.52	0.72	32	1	2	3	per	lib	mod	mod	mod	nt	fa	nh/0698_nh.bmp
30.24	0.72	33	1	4	63	mem	con	mod	mod	mod	nt	ms	nh/0658_nh.bmp
30.96	0.72	34	1	2	102	per	lib	low	mod	low	nt	cr	nh/0515_nh.bmp
31.68	0.72	35	1	4	51	mem	con	mod	mod	mod	tg	ms	wh/0627.bmp
32.40	0.72	36	2	2	87	mem	con	mod	mod	mod	nt	ms	nh/0884_nh.bmp
33.12	0.72	37	1	1	87	per	con	low	low	low	tg	ms	wh/0979.bmp
33.84	0.72	38	1	3	119	mem	lib	mod	mod	low	nt	ms	nh/0766_nh.bmp
34.56	0.72	39	2	1	60	mem	con	mod	mod	low	nt	ms	nh/0298_nh.bmp
35.28	0.72	40	1	2	35	per	con	low	mod	low	nt	cr	nh/0649_nh.bmp
36.00	0.72	41	1	2	36	per	con	low	mod	low	tg	ms	wh/0741.bmp
36.72	0.72	42	1	3	85	per	lib	low	mod	low	tg	ms	wh/0597.bmp
37.44	0.72	43	1	4	60	mem	con	mod	mod	mod	tg	ms	wh/0429.bmp
38.16	0.72	44	1	3	7	mem	lib	low	low	low	nt	ht	nh/0065_nh.bmp
38.88	0.72	45	2	4	63	mem	con	mod	mod	mod	nt	ms	nh/0658_nh.bmp
39.60	0.72	46	1	2	128	mem	lib	mod	mod	mod	nt	ht	nh/0393_nh.bmp
40.32	0.72	47	1	2	33	per	con	low	mod	low	tg	ms	wh/0040.bmp
41.04	0.72	48	2	4	122	mem	lib	mod	mod	mod	nt	ht	nh/0801_nh.bmp
41.76	0.72	49	1	1	61	mem	con	mod	mod	low	tg	ht	wh/0265.bmp
42.48	0.72	50	1	2	83	mem	con	mod	mod	mod	nt	ht	nh/0637_nh.bmp
43.20	0.72	51	1	2	116	mem	lib	mod	mod	mod	nt	ht	nh/0959_nh.bmp
43.92	0.72	52	1	4	25	per	lib	mod	low	mod	tg	ht	wh/0866.bmp
44.64	0.72	53	1	2	79	per	con	mod	mod	mod	tg	ms	wh/0920.bmp
45.36	0.72	54	1	4	127	mem	lib	mod	mod	mod	nt	ms	nh/0605_nh.bmp
46.08	0.72	55	2	3	85	per	lib	low	mod	low	tg	ms	wh/0597.bmp
46.80	0.72	56	2	2	128	mem	lib	mod	mod	mod	nt	ht	nh/0393_nh.bmp
47.52	0.72	57	2	2	118	mem	lib	mod	mod	mod	tg	ht	wh/0775.bmp
48.24	0.72	58	1	3	46	mem	con	mod	mod	low	tg	ms	wh/0233.bmp
48.96	0.72	59	1	3	118	mem	lib	mod	mod	low	tg	ht	wh/0514.bmp
49.68	0.72	60	1	3	95	per	lib	low	mod	low	tg	ht	wh/0997.bmp
50.40	0.72	61	1	1	36	mem	con	low	low	low	nt	ms	nh/0015_nh.bmp
51.12	0.72	62	1	3	62	per	con	mod	mod	mod	nt	cr	nh/0847_nh.bmp
51.84	0.72	63	1	3	105	per	lib	mod	mod	mod	nt	cr	nh/0425_nh.bmp
52.56	0.72	64	1	2	76	per	con	mod	mod	mod	tg	ms	wh/0724.bmp
53.28	0.72	65	1	3	45	mem	con	mod	mod	low	tg	ms	wh/0836.bmp
54.00	0.72	66	1	1	11	mem	lib	mod	mod	low	nt	ms	nh/1021_nh.bmp
54.72	0.72	67	3	3	35	mem	con	mod	mod	low	nt	ht	nh/0472_nh.bmp
55.44	0.72	68	1	4	90	per	con	mod	low	mod	tg	ht	wh/1017.bmp
56.16	0.72	69	1	1	7	mem	lib	mod	mod	low	nt	ht	nh/0727_nh.bmp
56.88	0.72	70	1	2	43	per	con	low	mod	low	tg	ms	wh/0027.bmp
57.60	0.72	71	1	2	92	mem	con	mod	mod	mod	tg	ht	wh/0473.bmp
58.32	0.72	72	2	2	8	per	lib	mod	mod	mod	tg	ht	wh/0561.bmp
59.04	0.72	73	3	2	128	mem	lib	mod	mod	mod	nt	ht	nh/0393_nh.bmp
59.76	0.72	74	1	3	37	mem	con	mod	mod	low	nt	ht	nh/0769_nh.bmp
60.48	0.72	75	1	2	17	mem	lib	low	low	low	nt	ht	nh/0794_nh.bmp
61.20	0.72	76	2	3	91	per	lib	low	mod	low	nt	fa	nh/0816_nh.bmp
61.92	0.72	77	1	2	44	per	con	low	mod	low	nt	cr	nh/0926_nh.bmp
62.64	0.72	78	1	4	58	mem	con	mod	mod	mod	nt	ht	nh/0289_nh.bmp
63.36	0.72	79	4	3	35	mem	con	mod	mod	low	nt	ht	nh/0472_nh.bmp
64.08	0.72	80	1	3	82	per	lib	low	mod	low	tg	ht	wh/0377.bmp
64.80	0.72	81	1	2	66	per	con	mod	mod	mod	tg	ms	wh/0526.bmp
65.52	0.72	82	1	2	122	mem	lib	mod	mod	mod	tg	ht	wh/0189.bmp
66.24	0.72	83	2	2	86	mem	con	mod	mod	mod	nt	ht	nh/0942_nh.bmp
66.96	0.72	84	1	3	63	per	con	mod	mod	mod	tg	ms	wh/0919.bmp
67.68	0.72	85	1	4	128	mem	lib	mod	mod	mod	tg	ht	wh/0466.bmp
68.40	0.72	86	1	1	13	mem	lib	mod	mod	low	nt	ms	nh/0200_nh.bmp
69.12	0.72	87	2	3	95	per	lib	low	mod	low	tg	ht	wh/0997.bmp
69.84	0.72	88	1	1	54	mem	con	mod	mod	low	nt	ms	nh/0379_nh.bmp
70.56	0.72	89	1	1	50	mem	con	mod	mod	low	nt	ht	nh/0704_nh.bmp
71.28	0.72	90	2	3	105	per	lib	mod	mod	mod	nt	cr	nh/0425_nh.bmp
72.00	0.72	91	1	3	14	mem	lib	low	low	low	tg	ms	wh/0634.bmp
72.72	0.72	92	2	1	54	mem	con	mod	mod	low	nt	ms	nh/0379_nh.bmp
73.44	0.72	93	2	3	120	mem	lib	mod	mod	low	nt	ht	nh/0156_nh.bmp
74.16	0.72	94	1	2	50	mem	con	low	low	mod	nt	ms	nh/0910_nh.bmp
74.88	0.72	95	1	1	9	mem	lib	mod	mod	low	tg	ht	wh/0168.bmp
75.60	0.72	96	2	4	58	mem	con	mod	mod	mod	nt	ht	nh/0289_nh.bmp
76.32	0.72	97	1	3	86	per	lib	low	mod	low	nt	n/a	nh/0066_nh.bmp
77.04	0.72	98	2	3	62	per	con	mod	mod	mod	nt	cr	nh/0847_nh.bmp
77.76	0.72	99	1	3	47	mem	con	mod	mod	low	tg	ms	wh/0624.bmp
78.48	0.72	100	1	1	21	mem	lib	low	low	mod	tg	ms	wh/0922.bmp
79.20	0.72	101	3	1	60	mem	con	mod	mod	low	nt	ms	nh/0298_nh.bmp
79.92	0.72	102	2	3	37	mem	con	mod	mod	low	nt	ht	nh/0769_nh.bmp
80.64	0.72	103	2	1	53	mem	con	mod	mod	low	nt	ms	nh/0897_nh.bmp
81.36	0.72	104	1	2	15	per	lib	mod	mod	mod	tg	ht	wh/0204.bmp
82.08	0.72	105	3	2	8	per	lib	mod	mod	mod	tg	ht	wh/0561.bmp
82.80	0.72	106	1	4	50	mem	con	mod	mod	mod	nt	ms	nh/0899_nh.bmp
83.52	0.72	107	1	2	93	mem	con	mod	mod	mod	tg	ms	wh/0183.bmp
84.24	0.72	108	2	3	109	per	lib	mod	mod	mod	tg	ht	wh/0642.bmp
84.96	0.72	109	1	2	105	per	lib	low	mod	low	tg	ht	wh/0031.bmp
85.68	0.72	110	4	2	8	per	lib	mod	mod	mod	tg	ht	wh/0561.bmp
86.40	0.72	111	1	2	37	per	con	low	mod	low	tg	ms	wh/0115.bmp
87.12	0.72	112	1	3	107	per	lib	mod	mod	mod	tg	ht	wh/0935.bmp
87.84	0.72	113	1	3	102	per	lib	mod	mod	mod	tg	ht	wh/0896.bmp
88.56	0.72	114	1	4	126	mem	lib	mod	mod	mod	tg	ht	wh/0681.bmp
89.28	0.72	115	1	1	46	mem	con	low	low	low	nt	ht	nh/0141_nh.bmp
90.00	0.72	116	1	3	124	mem	lib	mod	mod	low	tg	ms	wh/0145.bmp
90.72	0.72	117	1	2	5	per	lib	mod	mod	mod	nt	cr	nh/0965_nh.bmp
91.44	0.72	118	1	4	124	mem	lib	mod	mod	mod	nt	ht	nh/0391_nh.bmp
92.16	0.72	119	1	3	121	mem	lib	mod	mod	low	tg	ht	wh/0231.bmp
92.88	0.72	120	2	2	35	per	con	low	mod	low	nt	cr	nh/0649_nh.bmp
93.60	0.72	121	1	1	15	mem	lib	mod	mod	low	nt	ht	nh/0116_nh.bmp
94.32	0.72	122	1	2	98	per	lib	low	mod	low	tg	ms	wh/0392.bmp
95.04	0.72	123	1	1	1	mem	lib	mod	mod	low	tg	ms	wh/0205.bmp
95.76	0.72	124	3	3	85	per	lib	low	mod	low	tg	ms	wh/0597.bmp
96.48	0.72	125	2	3	63	per	con	mod	mod	mod	tg	ms	wh/0919.bmp
97.20	0.72	126	1	2	31	mem	lib	low	low	low	nt	ms	nh/0423_nh.bmp
97.92	0.72	127	1	1	42	mem	con	low	low	low	nt	ht	nh/0432_nh.bmp
98.64	0.72	128	1	2	48	per	con	low	mod	low	nt	cr	nh/0178_nh.bmp
99.36	0.72	129	3	4	58	mem	con	mod	mod	mod	nt	ht	nh/0289_nh.bmp
100.08	0.72	130	1	2	72	per	con	mod	mod	mod	nt	cr	nh/0879_nh.bmp
100.80	0.72	131	3	3	95	per	lib	low	mod	low	tg	ht	wh/0997.bmp
101.52	0.72	132	1	2	13	per	lib	mod	mod	mod	tg	ht	wh/0841.bmp
102.24	0.72	133	1	2	2	per	lib	mod	mod	mod	tg	n/a	wh/0585.bmp
102.96	0.72	134	3	3	62	per	con	mod	mod	mod	nt	cr	nh/0847_nh.bmp
103.68	0.72	135	2	2	93	mem	con	mod	mod	mod	tg	ms	wh/0183.bmp
104.40	0.72	136	2	2	102	per	lib	low	mod	low	nt	cr	nh/0515_nh.bmp
105.12	0.72	137	2	4	127	mem	lib	mod	mod	mod	nt	ms	nh/0605_nh.bmp
105.84	0.72	138	2	2	122	mem	lib	mod	mod	mod	tg	ht	wh/0189.bmp
106.56	0.72	139	1	3	98	per	lib	mod	mod	mod	nt	cr	nh/0700_nh.bmp
107.28	0.72	140	3	1	54	mem	con	mod	mod	low	nt	ms	nh/0379_nh.bmp
108.00	0.72	141	2	3	49	per	con	mod	mod	mod	tg	ms	wh/0938.bmp
108.72	0.72	142	1	2	47	per	con	low	mod	low	nt	cr	nh/0014_nh.bmp
109.44	0.72	143	2	1	13	mem	lib	mod	mod	low	nt	ms	nh/0200_nh.bmp
110.16	0.72	144	2	4	60	mem	con	mod	mod	mod	tg	ms	wh/0429.bmp
110.88	0.72	145	3	3	91	per	lib	low	mod	low	nt	fa	nh/0816_nh.bmp
111.60	0.72	146	3	1	53	mem	con	mod	mod	low	nt	ms	nh/0897_nh.bmp
112.32	0.72	147	1	4	59	mem	con	mod	mod	mod	nt	ht	nh/0621_nh.bmp
113.04	0.72	148	2	2	36	per	con	low	mod	low	tg	ms	wh/0741.bmp
113.76	0.72	149	2	2	105	per	lib	low	mod	low	tg	ht	wh/0031.bmp
114.48	0.72	150	2	2	116	mem	lib	mod	mod	mod	nt	ht	nh/0959_nh.bmp
115.20	0.72	151	2	3	46	mem	con	mod	mod	low	tg	ms	wh/0233.bmp
115.92	0.72	152	1	2	1	per	lib	mod	mod	mod	nt	fa	nh/0463_nh.bmp
116.64	0.72	153	1	3	38	mem	con	mod	mod	low	nt	ms	nh/0853_nh.bmp
117.36	0.72	154	1	3	32	per	con	low	mod	low	nt	cr	nh/0421_nh.bmp
118.08	0.72	155	3	2	118	mem	lib	mod	mod	mod	tg	ht	wh/0775.bmp
118.80	0.72	156	1	1	101	per	lib	low	low	low	nt	cr	nh/0499_nh.bmp
119.52	0.72	157	2	4	124	mem	lib	mod	mod	mod	nt	ht	nh/0391_nh.bmp
120.24	0.72	158	1	1	19	mem	lib	low	low	mod	nt	ms	nh/0218_nh.bmp
120.96	0.72	159	2	4	128	mem	lib	mod	mod	mod	tg	ht	wh/0466.bmp
121.68	0.72	160	1	3	126	mem	lib	mod	mod	low	nt	ht	nh/0745_nh.bmp
122.40	0.72	161	3	4	117	mem	lib	mod	mod	mod	tg	ht	wh/0981.bmp
123.12	0.72	162	2	3	25	per	con	low	mod	low	tg	ms	wh/0177.bmp
123.84	0.72	163	2	3	118	mem	lib	mod	mod	low	tg	ht	wh/0514.bmp
124.56	0.72	164	1	2	32	mem	lib	low	low	low	nt	ht	nh/1012_nh.bmp
125.28	0.72	165	1	3	33	mem	con	mod	mod	low	tg	ms	wh/0251.bmp
126.00	0.72	166	1	3	97	per	lib	mod	mod	mod	nt	cr	nh/0955_nh.bmp
126.72	0.72	167	1	1	111	per	lib	low	low	low	nt	cr	nh/0651_nh.bmp
127.44	0.72	168	1	3	18	per	con	low	mod	low	tg	n/a	wh/0675.bmp
128.16	0.72	169	2	1	51	mem	con	mod	mod	low	tg	ht	wh/0648.bmp
128.88	0.72	170	1	4	21	per	lib	mod	low	mod	tg	ms	wh/0712.bmp
129.60	0.72	171	2	3	45	mem	con	mod	mod	low	tg	ms	wh/0836.bmp
130.32	0.72	172	1	1	124	per	lib	mod	low	mod	nt	cr	nh/0087_nh.bmp
131.04	0.72	173	2	3	126	mem	lib	mod	mod	low	nt	ht	nh/0745_nh.bmp
131.76	0.72	174	1	3	20	per	con	low	mod	low	tg	ms	wh/0217.bmp
132.48	0.72	175	2	3	97	per	lib	mod	mod	mod	nt	cr	nh/0955_nh.bmp
133.20	0.72	176	2	2	73	per	con	mod	mod	mod	nt	cr	nh/0596_nh.bmp
133.92	0.72	177	3	3	37	mem	con	mod	mod	low	nt	ht	nh/0769_nh.bmp
134.64	0.72	178	3	4	128	mem	lib	mod	mod	mod	tg	ht	wh/0466.bmp
135.36	0.72	179	1	1	32	mem	lib	low	low	mod	nt	ht	nh/0270_nh.bmp
136.08	0.72	180	1	1	104	per	lib	low	low	low	tg	ht	wh/0486.bmp
136.80	0.72	181	2	4	51	mem	con	mod	mod	mod	tg	ms	wh/0627.bmp
137.52	0.72	182	2	1	50	mem	con	mod	mod	low	nt	ht	nh/0704_nh.bmp
138.24	0.72	183	1	4	35	mem	lib	low	low	mod	nt	ms	nh/0367_nh.bmp
138.96	0.72	184	2	3	102	per	lib	mod	mod	mod	tg	ht	wh/0896.bmp
139.68	0.72	185	3	2	35	per	con	low	mod	low	nt	cr	nh/0649_nh.bmp
140.40	0.72	186	4	3	95	per	lib	low	mod	low	tg	ht	wh/0997.bmp
141.12	0.72	187	1	4	65	per	lib	low	low	low	tg	ht	wh/0140.bmp
141.84	0.72	188	3	2	87	mem	con	mod	mod	mod	nt	ms	nh/0884_nh.bmp
142.56	0.72	189	1	2	89	mem	con	mod	mod	mod	tg	ms	wh/0100.bmp
143.28	0.72	190	2	2	1	per	lib	mod	mod	mod	nt	fa	nh/0463_nh.bmp
144.00	0.72	191	3	1	51	mem	con	mod	mod	low	tg	ht	wh/0648.bmp
144.72	0.72	192	1	1	62	mem	con	mod	mod	low	tg	ms	wh/0932.bmp
145.44	0.72	193	1	2	94	mem	con	mod	mod	mod	nt	ht	nh/0679_nh.bmp
146.16	0.72	194	1	3	27	per	con	low	mod	low	nt	cr	nh/0868_nh.bmp
146.88	0.72	195	1	1	74	per	con	mod	low	mod	nt	cr	nh/0321_nh.bmp
147.60	0.72	196	4	2	87	mem	con	mod	mod	mod	nt	ms	nh/0884_nh.bmp
148.32	0.72	197	1	1	80	per	con	mod	low	mod	tg	ms	wh/0974.bmp
149.04	0.72	198	1	1	69	per	con	mod	low	mod	nt	cr	nh/0527_nh.bmp
149.76	0.72	199	1	3	99	per	lib	mod	mod	mod	tg	ht	wh/0984.bmp
150.48	0.72	200	1	1	55	mem	con	mod	mod	low	tg	ht	wh/0105.bmp
151.20	0.72	201	1	2	125	mem	lib	mod	mod	mod	tg	ht	wh/0405.bmp
151.92	0.72	202	2	2	43	per	con	low	mod	low	tg	ms	wh/0027.bmp
152.64	0.72	203	1	1	6	mem	lib	mod	mod	low	tg	ms	wh/0755.bmp
153.36	0.72	204	2	2	66	per	con	mod	mod	mod	tg	ms	wh/0526.bmp
154.08	0.72	205	2	3	38	mem	con	mod	mod	low	nt	ms	nh/0853_nh.bmp
154.80	0.72	206	1	3	90	per	lib	low	mod	low	nt	fa	nh/0529_nh.bmp
155.52	0.72	207	1	2	114	mem	lib	mod	mod	mod	nt	ht	nh/0975_nh.bmp
156.24	0.72	208	4	1	54	mem	con	mod	mod	low	nt	ms	nh/0379_nh.bmp
156.96	0.72	209	2	1	62	mem	con	mod	mod	low	tg	ms	wh/0932.bmp
157.68	0.72	210	3	2	1	per	lib	mod	mod	mod	nt	fa	nh/0463_nh.bmp
158.40	0.72	211	1	4	31	per	lib	mod	low	mod	nt	fa	nh/0850_nh.bmp
159.12	0.72	212	1	2	120	mem	lib	mod	mod	mod	nt	ht	nh/0017_nh.bmp
159.84	0.72	213	1	1	123	per	lib	mod	low	mod	tg	ht	wh/0286.bmp
160.56	0.72	214	3	2	36	per	con	low	mod	low	tg	ms	wh/0741.bmp
161.28	0.72	215	2	2	106	per	lib	low	mod	low	nt	fa	nh/0155_nh.bmp
162.00	0.72	216	3	2	122	mem	lib	mod	mod	mod	tg	ht	wh/0189.bmp
162.72	0.72	217	2	3	86	per	lib	low	mod	low	nt	n/a	nh/0066_nh.bmp
163.44	0.72	218	1	1	114	per	lib	mod	low	mod	tg	ht	wh/0752.bmp
164.16	0.72	219	1	2	113	mem	lib	mod	mod	mod	tg	ht	wh/0274.bmp
164.88	0.72	220	1	4	79	per	lib	low	low	low	tg	ht	wh/0054.bmp
165.60	0.72	221	2	2	120	mem	lib	mod	mod	mod	nt	ht	nh/0017_nh.bmp
166.32	0.72	222	2	2	94	mem	con	mod	mod	mod	nt	ht	nh/0679_nh.bmp
167.04	0.72	223	3	2	75	per	con	mod	mod	mod	nt	cr	nh/0600_nh.bmp
167.76	0.72	224	2	3	124	mem	lib	mod	mod	low	tg	ms	wh/0145.bmp
168.48	0.72	225	2	1	61	mem	con	mod	mod	low	tg	ht	wh/0265.bmp
169.20	0.72	226	2	1	1	mem	lib	mod	mod	low	tg	ms	wh/0205.bmp
169.92	0.72	227	3	3	109	per	lib	mod	mod	mod	tg	ht	wh/0642.bmp
170.64	0.72	228	1	4	109	mem	con	low	low	mod	nt	ms	nh/0687_nh.bmp
171.36	0.72	229	1	2	103	per	lib	low	mod	low	nt	fa	nh/0133_nh.bmp
172.08	0.72	230	2	1	11	mem	lib	mod	mod	low	nt	ms	nh/1021_nh.bmp
172.80	0.72	231	2	3	87	per	lib	low	mod	low	tg	ht	wh/0019.bmp
173.52	0.72	232	2	2	103	per	lib	low	mod	low	nt	fa	nh/0133_nh.bmp
174.24	0.72	233	2	4	123	mem	lib	mod	mod	mod	tg	ht	wh/0534.bmp
174.96	0.72	234	3	3	120	mem	lib	mod	mod	low	nt	ht	nh/0156_nh.bmp
175.68	0.72	235	4	3	37	mem	con	mod	mod	low	nt	ht	nh/0769_nh.bmp
176.40	0.72	236	1	3	101	per	lib	mod	mod	mod	nt	fa	nh/0001_nh.bmp
177.12	0.72	237	2	2	125	mem	lib	mod	mod	mod	tg	ht	wh/0405.bmp
177.84	0.72	238	3	4	63	mem	con	mod	mod	mod	nt	ms	nh/0658_nh.bmp
178.56	0.72	239	2	3	107	per	lib	mod	mod	mod	tg	ht	wh/0935.bmp
179.28	0.72	240	4	3	120	mem	lib	mod	mod	low	nt	ht	nh/0156_nh.bmp
180.00	0.72	241	3	3	25	per	con	low	mod	low	tg	ms	wh/0177.bmp
180.72	0.72	242	1	2	69	per	con	mod	mod	mod	tg	ht	wh/0002.bmp
181.44	0.72	243	1	2	109	per	lib	low	mod	low	nt	fa	nh/0435_nh.bmp
182.16	0.72	244	3	3	107	per	lib	mod	mod	mod	tg	ht	wh/0935.bmp
182.88	0.72	245	2	4	59	mem	con	mod	mod	mod	nt	ht	nh/0621_nh.bmp
183.60	0.72	246	2	3	125	mem	lib	mod	mod	low	tg	ht	wh/0325.bmp
184.32	0.72	247	1	1	12	mem	lib	mod	mod	low	tg	ht	wh/0455.bmp
185.04	0.72	248	2	2	2	per	lib	mod	mod	mod	tg	n/a	wh/0585.bmp
185.76	0.72	249	1	1	95	per	con	low	low	low	tg	ms	wh/0008.bmp
186.48	0.72	250	2	3	18	per	con	low	mod	low	tg	n/a	wh/0675.bmp
187.20	0.72	251	2	2	109	per	lib	low	mod	low	nt	fa	nh/0435_nh.bmp
187.92	0.72	252	2	3	98	per	lib	mod	mod	mod	nt	cr	nh/0700_nh.bmp
188.64	0.72	253	4	3	25	per	con	low	mod	low	tg	ms	wh/0177.bmp
189.36	0.72	254	2	3	47	mem	con	mod	mod	low	tg	ms	wh/0624.bmp
190.08	0.72	255	4	4	128	mem	lib	mod	mod	mod	tg	ht	wh/0466.bmp
190.80	0.72	256	2	2	92	mem	con	mod	mod	mod	tg	ht	wh/0473.bmp
191.52	0.72	257	1	3	1	mem	lib	low	low	low	nt	ht	nh/0307_nh.bmp
192.24	0.72	258	3	4	122	mem	lib	mod	mod	mod	nt	ht	nh/0801_nh.bmp
192.96	0.72	259	2	3	101	per	lib	mod	mod	mod	nt	fa	nh/0001_nh.bmp
193.68	0.72	260	1	3	65	mem	con	low	low	low	tg	ms	wh/0122.bmp
194.40	0.72	261	3	3	126	mem	lib	mod	mod	low	nt	ht	nh/0745_nh.bmp
195.12	0.72	262	2	1	55	mem	con	mod	mod	low	tg	ht	wh/0105.bmp
195.84	0.72	263	2	2	79	per	con	mod	mod	mod	tg	ms	wh/0920.bmp
196.56	0.72	264	3	2	103	per	lib	low	mod	low	nt	fa	nh/0133_nh.bmp
197.28	0.72	265	3	3	63	per	con	mod	mod	mod	tg	ms	wh/0919.bmp
198.00	0.72	266	1	2	111	per	lib	low	mod	low	tg	ms	wh/0163.bmp
198.72	0.72	267	5	3	95	per	lib	low	mod	low	tg	ht	wh/0997.bmp
199.44	0.72	268	3	2	125	mem	lib	mod	mod	mod	tg	ht	wh/0405.bmp
200.16	0.72	269	1	2	59	mem	con	low	low	mod	nt	ht	nh/0009_nh.bmp
200.88	0.72	270	3	2	120	mem	lib	mod	mod	mod	nt	ht	nh/0017_nh.bmp
201.60	0.72	271	3	2	102	per	lib	low	mod	low	nt	cr	nh/0515_nh.bmp
202.32	0.72	272	4	3	91	per	lib	low	mod	low	nt	fa	nh/0816_nh.bmp
203.04	0.72	273	4	2	128	mem	lib	mod	mod	mod	nt	ht	nh/0393_nh.bmp
203.76	0.72	274	1	2	30	mem	lib	low	low	low	tg	ht	wh/0656.bmp
204.48	0.72	275	1	1	30	mem	lib	low	low	mod	tg	ms	wh/0776.bmp
205.20	0.72	276	2	2	48	per	con	low	mod	low	nt	cr	nh/0178_nh.bmp
205.92	0.72	277	3	4	59	mem	con	mod	mod	mod	nt	ht	nh/0621_nh.bmp
206.64	0.72	278	3	4	124	mem	lib	mod	mod	mod	nt	ht	nh/0391_nh.bmp
207.36	0.72	279	1	4	23	per	lib	mod	low	mod	tg	ms	wh/0740.bmp
208.08	0.72	280	4	3	63	per	con	mod	mod	mod	tg	ms	wh/0919.bmp
208.80	0.72	281	3	3	87	per	lib	low	mod	low	tg	ht	wh/0019.bmp
209.52	0.72	282	3	4	123	mem	lib	mod	mod	mod	tg	ht	wh/0534.bmp
210.24	0.72	283	1	3	56	per	con	mod	mod	mod	tg	ms	wh/0070.bmp
210.96	0.72	284	3	1	55	mem	con	mod	mod	low	tg	ht	wh/0105.bmp
211.68	0.72	285	4	1	60	mem	con	mod	mod	low	nt	ms	nh/0298_nh.bmp
212.40	0.72	286	1	3	26	per	con	low	mod	low	nt	cr	nh/0341_nh.bmp
213.12	0.72	287	3	2	86	mem	con	mod	mod	mod	nt	ht	nh/0942_nh.bmp
213.84	0.72	288	2	1	15	mem	lib	mod	mod	low	nt	ht	nh/0116_nh.bmp
214.56	0.72	289	2	2	72	per	con	mod	mod	mod	nt	cr	nh/0879_nh.bmp
215.28	0.72	290	1	3	83	per	lib	low	mod	low	nt	cr	nh/0128_nh.bmp
216.00	0.72	291	1	3	50	per	con	mod	mod	mod	nt	cr	nh/0287_nh.bmp
216.72	0.72	292	2	2	114	mem	lib	mod	mod	mod	nt	ht	nh/0975_nh.bmp
217.44	0.72	293	2	2	13	per	lib	mod	mod	mod	tg	ht	wh/0841.bmp
218.16	0.72	294	1	4	19	per	lib	mod	low	mod	tg	ht	wh/0303.bmp
218.88	0.72	295	2	2	83	mem	con	mod	mod	mod	nt	ht	nh/0637_nh.bmp
219.60	0.72	296	4	4	58	mem	con	mod	mod	mod	nt	ht	nh/0289_nh.bmp
220.32	0.72	297	3	2	109	per	lib	low	mod	low	nt	fa	nh/0435_nh.bmp
221.04	0.72	298	2	3	121	mem	lib	mod	mod	low	tg	ht	wh/0231.bmp
221.76	0.72	299	3	3	101	per	lib	mod	mod	mod	nt	fa	nh/0001_nh.bmp
222.48	0.72	300	4	2	118	mem	lib	mod	mod	mod	tg	ht	wh/0775.bmp
223.20	0.72	301	1	4	57	mem	con	mod	mod	mod	tg	ms	wh/0692.bmp
223.92	0.72	302	2	2	69	per	con	mod	mod	mod	tg	ht	wh/0002.bmp
224.64	0.72	303	2	2	5	per	lib	mod	mod	mod	nt	cr	nh/0965_nh.bmp
225.36	0.72	304	2	2	33	per	con	low	mod	low	tg	ms	wh/0040.bmp
226.08	0.72	305	4	3	107	per	lib	mod	mod	mod	tg	ht	wh/0935.bmp
226.80	0.72	306	2	3	119	mem	lib	mod	mod	low	nt	ms	nh/0766_nh.bmp
227.52	0.72	307	3	4	60	mem	con	mod	mod	mod	tg	ms	wh/0429.bmp
228.24	0.72	308	4	4	63	mem	con	mod	mod	mod	nt	ms	nh/0658_nh.bmp
228.96	0.72	309	4	2	1	per	lib	mod	mod	mod	nt	fa	nh/0463_nh.bmp
229.68	0.72	310	3	2	73	per	con	mod	mod	mod	nt	cr	nh/0596_nh.bmp
230.40	0.72	311	2	2	15	per	lib	mod	mod	mod	tg	ht	wh/0204.bmp
231.12	0.72	312	2	3	27	per	con	low	mod	low	nt	cr	nh/0868_nh.bmp
231.84	0.72	313	3	2	43	per	con	low	mod	low	tg	ms	wh/0027.bmp
232.56	0.72	314	1	2	6	per	lib	mod	mod	mod	nt	cr	nh/0785_nh.bmp
233.28	0.72	315	1	3	123	mem	lib	mod	mod	low	nt	ht	nh/0387_nh.bmp
234.00	0.72	316	2	2	111	per	lib	low	mod	low	tg	ms	wh/0163.bmp
234.72	0.72	317	3	2	33	per	con	low	mod	low	tg	ms	wh/0040.bmp
235.44	0.72	318	3	3	118	mem	lib	mod	mod	low	tg	ht	wh/0514.bmp
236.16	0.72	319	5	2	118	mem	lib	mod	mod	mod	tg	ht	wh/0775.bmp
236.88	0.72	320	2	2	113	mem	lib	mod	mod	mod	tg	ht	wh/0274.bmp
237.60	0.72	321	4	3	62	per	con	mod	mod	mod	nt	cr	nh/0847_nh.bmp
238.32	0.72	322	3	3	46	mem	con	mod	mod	low	tg	ms	wh/0233.bmp
239.04	0.72	323	3	1	11	mem	lib	mod	mod	low	nt	ms	nh/1021_nh.bmp
239.76	0.72	324	3	3	38	mem	con	mod	mod	low	nt	ms	nh/0853_nh.bmp
240.48	0.72	325	4	1	53	mem	con	mod	mod	low	nt	ms	nh/0897_nh.bmp
241.20	0.72	326	4	2	86	mem	con	mod	mod	mod	nt	ht	nh/0942_nh.bmp
241.92	0.72	327	1	1	94	per	con	low	low	low	nt	cr	nh/0996_nh.bmp
242.64	0.72	328	1	4	114	mem	lib	mod	mod	mod	nt	ms	nh/0414_nh.bmp
243.36	0.72	329	2	2	98	per	lib	low	mod	low	tg	ms	wh/0392.bmp
244.08	0.72	330	3	3	49	per	con	mod	mod	mod	tg	ms	wh/0938.bmp
244.80	0.72	331	4	2	103	per	lib	low	mod	low	nt	fa	nh/0133_nh.bmp
245.52	0.72	332	2	3	50	per	con	mod	mod	mod	nt	cr	nh/0287_nh.bmp
246.24	0.72	333	3	2	66	per	con	mod	mod	mod	tg	ms	wh/0526.bmp
246.96	0.72	334	2	3	90	per	lib	low	mod	low	nt	fa	nh/0529_nh.bmp
247.68	0.72	335	3	3	86	per	lib	low	mod	low	nt	n/a	nh/0066_nh.bmp
248.40	0.72	336	2	2	6	per	lib	mod	mod	mod	nt	cr	nh/0785_nh.bmp
249.12	0.72	337	5	2	86	mem	con	mod	mod	mod	nt	ht	nh/0942_nh.bmp
249.84	0.72	338	4	3	46	mem	con	mod	mod	low	tg	ms	wh/0233.bmp
250.56	0.72	339	2	3	99	per	lib	mod	mod	mod	tg	ht	wh/0984.bmp
251.28	0.72	340	4	2	66	per	con	mod	mod	mod	tg	ms	wh/0526.bmp
252.00	0.72	341	2	3	123	mem	lib	mod	mod	low	nt	ht	nh/0387_nh.bmp
252.72	0.72	342	3	2	79	per	con	mod	mod	mod	tg	ms	wh/0920.bmp
253.44	0.72	343	1	2	62	mem	con	low	low	mod	tg	ms	wh/0449.bmp
254.16	0.72	344	4	2	125	mem	lib	mod	mod	mod	tg	ht	wh/0405.bmp
254.88	0.72	345	1	1	67	per	con	mod	low	mod	nt	cr	nh/0696_nh.bmp
255.60	0.72	346	6	3	95	per	lib	low	mod	low	tg	ht	wh/0997.bmp
256.32	0.72	347	1	3	55	per	con	mod	mod	mod	tg	ms	wh/0857.bmp
257.04	0.72	348	1	4	9	per	con	low	low	low	nt	cr	nh/0028_nh.bmp
257.76	0.72	349	2	2	89	mem	con	mod	mod	mod	tg	ms	wh/0100.bmp
258.48	0.72	350	1	4	46	mem	lib	low	low	mod	nt	ht	nh/0103_nh.bmp
259.20	0.72	351	1	3	61	per	con	mod	mod	mod	nt	cr	nh/0878_nh.bmp
259.92	0.72	352	2	1	6	mem	lib	mod	mod	low	tg	ms	wh/0755.bmp
260.64	0.72	353	2	3	33	mem	con	mod	mod	low	tg	ms	wh/0251.bmp
261.36	0.72	354	4	1	55	mem	con	mod	mod	low	tg	ht	wh/0105.bmp
262.08	0.72	355	1	4	92	per	con	mod	low	mod	tg	ms	wh/0541.bmp
262.80	0.72	356	3	2	72	per	con	mod	mod	mod	nt	cr	nh/0879_nh.bmp
263.52	0.72	357	4	3	85	per	lib	low	mod	low	tg	ms	wh/0597.bmp
264.24	0.72	358	3	2	89	mem	con	mod	mod	mod	tg	ms	wh/0100.bmp
264.96	0.72	359	2	2	47	per	con	low	mod	low	nt	cr	nh/0014_nh.bmp
265.68	0.72	360	2	1	7	mem	lib	mod	mod	low	nt	ht	nh/0727_nh.bmp
266.40	0.72	361	1	1	73	per	con	mod	low	mod	tg	ht	wh/0322.bmp
267.12	0.72	362	5	3	46	mem	con	mod	mod	low	tg	ms	wh/0233.bmp
267.84	0.72	363	4	2	73	per	con	mod	mod	mod	nt	cr	nh/0596_nh.bmp
268.56	0.72	364	2	3	61	per	con	mod	mod	mod	nt	cr	nh/0878_nh.bmp
269.28	0.72	365	1	4	73	per	lib	low	low	low	nt	fa	nh/0522_nh.bmp
270.00	0.72	366	3	2	114	mem	lib	mod	mod	mod	nt	ht	nh/0975_nh.bmp
270.72	0.72	367	5	2	87	mem	con	mod	mod	mod	nt	ms	nh/0884_nh.bmp
271.44	0.72	368	1	4	77	per	lib	low	low	low	tg	ht	wh/0685.bmp
272.16	0.72	369	4	1	51	mem	con	mod	mod	low	tg	ht	wh/0648.bmp
272.88	0.72	370	3	2	116	mem	lib	mod	mod	mod	nt	ht	nh/0959_nh.bmp
273.60	0.72	371	5	3	25	per	con	low	mod	low	tg	ms	wh/0177.bmp
274.32	0.72	372	3	1	1	mem	lib	mod	mod	low	tg	ms	wh/0205.bmp
275.04	0.72	373	2	3	52	per	con	mod	mod	mod	nt	cr	nh/0580_nh.bmp
275.76	0.72	374	3	2	5	per	lib	mod	mod	mod	nt	cr	nh/0965_nh.bmp
276.48	0.72	375	3	3	121	mem	lib	mod	mod	low	tg	ht	wh/0231.bmp
277.20	0.72	376	1	2	18	mem	lib	low	low	low	tg	ht	wh/1022.bmp
277.92	0.72	377	1	4	2	per	con	low	low	low	nt	cr	nh/0142_nh.bmp
278.64	0.72	378	3	3	124	mem	lib	mod	mod	low	tg	ms	wh/0145.bmp
279.36	0.72	379	2	4	126	mem	lib	mod	mod	mod	tg	ht	wh/0681.bmp
280.08	0.72	380	3	3	90	per	lib	low	mod	low	nt	fa	nh/0529_nh.bmp
280.80	0.72	381	6	3	25	per	con	low	mod	low	tg	ms	wh/0177.bmp
281.52	0.72	382	1	1	89	per	con	low	low	low	nt	cr	nh/0119_nh.bmp
282.24	0.72	383	4	4	122	mem	lib	mod	mod	mod	nt	ht	nh/0801_nh.bmp
282.96	0.72	384	1	2	23	mem	lib	low	low	low	tg	ms	wh/0817.bmp
283.68	0.72	385	5	4	58	mem	con	mod	mod	mod	nt	ht	nh/0289_nh.bmp
284.40	0.72	386	4	2	116	mem	lib	mod	mod	mod	nt	ht	nh/0959_nh.bmp
285.12	0.72	387	3	1	15	mem	lib	mod	mod	low	nt	ht	nh/0116_nh.bmp
285.84	0.72	388	3	2	15	per	lib	mod	mod	mod	tg	ht	wh/0204.bmp
286.56	0.72	389	4	3	124	mem	lib	mod	mod	low	tg	ms	wh/0145.bmp
287.28	0.72	390	4	2	72	per	con	mod	mod	mod	nt	cr	nh/0879_nh.bmp
288.00	0.72	391	3	3	45	mem	con	mod	mod	low	tg	ms	wh/0836.bmp
288.72	0.72	392	3	3	97	per	lib	mod	mod	mod	nt	cr	nh/0955_nh.bmp
289.44	0.72	393	5	2	103	per	lib	low	mod	low	nt	fa	nh/0133_nh.bmp
290.16	0.72	394	1	1	41	mem	con	low	low	low	tg	ms	wh/0790.bmp
290.88	0.72	395	1	4	53	mem	con	mod	mod	mod	tg	ms	wh/0098.bmp
291.60	0.72	396	2	3	55	per	con	mod	mod	mod	tg	ms	wh/0857.bmp
292.32	0.72	397	4	2	36	per	con	low	mod	low	tg	ms	wh/0741.bmp
293.04	0.72	398	3	3	125	mem	lib	mod	mod	low	tg	ht	wh/0325.bmp
293.76	0.72	399	3	2	111	per	lib	low	mod	low	tg	ms	wh/0163.bmp
294.48	0.72	400	4	1	1	mem	lib	mod	mod	low	tg	ms	wh/0205.bmp
295.20	0.72	401	3	3	61	per	con	mod	mod	mod	nt	cr	nh/0878_nh.bmp
295.92	0.72	402	1	2	112	per	lib	low	mod	low	tg	ms	wh/0353.bmp
296.64	0.72	403	3	4	126	mem	lib	mod	mod	mod	tg	ht	wh/0681.bmp
297.36	0.72	404	1	2	95	mem	con	mod	mod	mod	tg	ht	wh/0750.bmp
298.08	0.72	405	2	3	31	per	con	low	mod	low	nt	cr	nh/0733_nh.bmp
298.80	0.72	406	5	3	124	mem	lib	mod	mod	low	tg	ms	wh/0145.bmp
299.52	0.72	407	3	3	18	per	con	low	mod	low	tg	n/a	wh/0675.bmp
300.24	0.72	408	3	2	94	mem	con	mod	mod	mod	nt	ht	nh/0679_nh.bmp
300.96	0.72	409	1	4	76	per	lib	low	low	low	nt	fa	nh/1001_nh.bmp
301.68	0.72	410	4	4	123	mem	lib	mod	mod	mod	tg	ht	wh/0534.bmp
302.40	0.72	411	1	3	23	per	con	low	mod	low	tg	ht	wh/0739.bmp
303.12	0.72	412	3	3	52	per	con	mod	mod	mod	nt	cr	nh/0580_nh.bmp
303.84	0.72	413	2	4	57	mem	con	mod	mod	mod	tg	ms	wh/0692.bmp
304.56	0.72	414	4	1	11	mem	lib	mod	mod	low	nt	ms	nh/1021_nh.bmp
305.28	0.72	415	3	1	13	mem	lib	mod	mod	low	nt	ms	nh/0200_nh.bmp
306.00	0.72	416	2	4	114	mem	lib	mod	mod	mod	nt	ms	nh/0414_nh.bmp
306.72	0.72	417	1	1	26	mem	lib	low	low	mod	nt	ms	nh/0918_nh.bmp
307.44	0.72	418	3	2	47	per	con	low	mod	low	nt	cr	nh/0014_nh.bmp
308.16	0.72	419	5	3	63	per	con	mod	mod	mod	tg	ms	wh/0919.bmp
308.88	0.72	420	1	1	27	mem	lib	low	low	mod	nt	ms	nh/0856_nh.bmp
309.60	0.72	421	5	1	60	mem	con	mod	mod	low	nt	ms	nh/0298_nh.bmp
310.32	0.72	422	2	1	9	mem	lib	mod	mod	low	tg	ht	wh/0168.bmp
311.04	0.72	423	3	4	114	mem	lib	mod	mod	mod	nt	ms	nh/0414_nh.bmp
311.76	0.72	424	2	3	83	per	lib	low	mod	low	nt	cr	nh/0128_nh.bmp
312.48	0.72	425	4	3	86	per	lib	low	mod	low	nt	n/a	nh/0066_nh.bmp
313.20	0.72	426	1	4	84	per	con	mod	low	mod	nt	cr	nh/0326_nh.bmp
313.92	0.72	427	3	1	6	mem	lib	mod	mod	low	tg	ms	wh/0755.bmp
314.64	0.72	428	1	3	12	mem	lib	low	low	low	tg	ht	wh/0889.bmp
315.36	0.72	429	3	3	27	per	con	low	mod	low	nt	cr	nh/0868_nh.bmp
316.08	0.72	430	1	1	37	mem	con	low	low	low	nt	ms	nh/0006_nh.bmp
316.80	0.72	431	4	2	79	per	con	mod	mod	mod	tg	ms	wh/0920.bmp
317.52	0.72	432	5	3	107	per	lib	mod	mod	mod	tg	ht	wh/0935.bmp
318.24	0.72	433	3	4	51	mem	con	mod	mod	mod	tg	ms	wh/0627.bmp
318.96	0.72	434	1	2	56	mem	con	low	low	mod	tg	ms	wh/0228.bmp
319.68	0.72	435	4	3	18	per	con	low	mod	low	tg	n/a	wh/0675.bmp
320.40	0.72	436	3	1	61	mem	con	mod	mod	low	tg	ht	wh/0265.bmp
321.12	0.72	437	3	2	93	mem	con	mod	mod	mod	tg	ms	wh/0183.bmp
321.84	0.72	438	3	2	92	mem	con	mod	mod	mod	tg	ht	wh/0473.bmp
322.56	0.72	439	3	1	7	mem	lib	mod	mod	low	nt	ht	nh/0727_nh.bmp
323.28	0.72	440	4	4	51	mem	con	mod	mod	mod	tg	ms	wh/0627.bmp
324.00	0.72	441	3	3	102	per	lib	mod	mod	mod	tg	ht	wh/0896.bmp
324.72	0.72	442	4	2	122	mem	lib	mod	mod	mod	tg	ht	wh/0189.bmp
325.44	0.72	443	5	2	73	per	con	mod	mod	mod	nt	cr	nh/0596_nh.bmp
326.16	0.72	444	3	2	105	per	lib	low	mod	low	tg	ht	wh/0031.bmp
326.88	0.72	445	2	2	95	mem	con	mod	mod	mod	tg	ht	wh/0750.bmp
327.60	0.72	446	3	2	98	per	lib	low	mod	low	tg	ms	wh/0392.bmp
328.32	0.72	447	1	3	3	mem	lib	low	low	low	tg	ht	wh/0464.bmp
329.04	0.72	448	4	3	126	mem	lib	mod	mod	low	nt	ht	nh/0745_nh.bmp
329.76	0.72	449	2	3	23	per	con	low	mod	low	tg	ht	wh/0739.bmp
330.48	0.72	450	4	3	97	per	lib	mod	mod	mod	nt	cr	nh/0955_nh.bmp
331.20	0.72	451	5	4	122	mem	lib	mod	mod	mod	nt	ht	nh/0801_nh.bmp
331.92	0.72	452	3	3	123	mem	lib	mod	mod	low	nt	ht	nh/0387_nh.bmp
332.64	0.72	453	5	1	54	mem	con	mod	mod	low	nt	ms	nh/0379_nh.bmp
333.36	0.72	454	6	3	46	mem	con	mod	mod	low	tg	ms	wh/0233.bmp
334.08	0.72	455	5	1	53	mem	con	mod	mod	low	nt	ms	nh/0897_nh.bmp
334.80	0.72	456	4	2	93	mem	con	mod	mod	mod	tg	ms	wh/0183.bmp
335.52	0.72	457	3	1	9	mem	lib	mod	mod	low	tg	ht	wh/0168.bmp
336.24	0.72	458	1	4	99	mem	con	low	low	mod	tg	ms	wh/0725.bmp
336.96	0.72	459	5	1	51	mem	con	mod	mod	low	tg	ht	wh/0648.bmp
337.68	0.72	460	4	3	118	mem	lib	mod	mod	low	tg	ht	wh/0514.bmp
338.40	0.72	461	3	3	31	per	con	low	mod	low	nt	cr	nh/0733_nh.bmp
339.12	0.72	462	3	2	6	per	lib	mod	mod	mod	nt	cr	nh/0785_nh.bmp
339.84	0.72	463	1	4	67	per	lib	low	low	low	nt	cr	nh/0456_nh.bmp
340.56	0.72	464	1	1	92	per	con	low	low	low	tg	ms	wh/0485.bmp
341.28	0.72	465	1	4	30	per	lib	mod	low	mod	nt	fa	nh/0213_nh.bmp
342.00	0.72	466	6	2	73	per	con	mod	mod	mod	nt	cr	nh/0596_nh.bmp
342.72	0.72	467	5	3	91	per	lib	low	mod	low	nt	fa	nh/0816_nh.bmp
343.44	0.72	468	2	2	76	per	con	mod	mod	mod	tg	ms	wh/0724.bmp
344.16	0.72	469	3	3	99	per	lib	mod	mod	mod	tg	ht	wh/0984.bmp
344.88	0.72	470	3	2	113	mem	lib	mod	mod	mod	tg	ht	wh/0274.bmp
345.60	0.72	471	3	3	47	mem	con	mod	mod	low	tg	ms	wh/0624.bmp
346.32	0.72	472	2	1	12	mem	lib	mod	mod	low	tg	ht	wh/0455.bmp
347.04	0.72	473	4	3	90	per	lib	low	mod	low	nt	fa	nh/0529_nh.bmp
347.76	0.72	474	2	3	20	per	con	low	mod	low	tg	ms	wh/0217.bmp
348.48	0.72	475	4	2	92	mem	con	mod	mod	mod	tg	ht	wh/0473.bmp
349.20	0.72	476	4	4	126	mem	lib	mod	mod	mod	tg	ht	wh/0681.bmp
349.92	0.72	477	4	3	31	per	con	low	mod	low	nt	cr	nh/0733_nh.bmp
350.64	0.72	478	4	1	61	mem	con	mod	mod	low	tg	ht	wh/0265.bmp
351.36	0.72	479	6	3	124	mem	lib	mod	mod	low	tg	ms	wh/0145.bmp
352.08	0.72	480	4	3	123	mem	lib	mod	mod	low	nt	ht	nh/0387_nh.bmp
352.80	0.72	481	2	4	50	mem	con	mod	mod	mod	nt	ms	nh/0899_nh.bmp
353.52	0.72	482	4	1	6	mem	lib	mod	mod	low	tg	ms	wh/0755.bmp
354.24	0.72	483	1	2	22	mem	lib	low	low	low	nt	ht	nh/0126_nh.bmp
354.96	0.72	484	3	3	55	per	con	mod	mod	mod	tg	ms	wh/0857.bmp
355.68	0.72	485	4	3	121	mem	lib	mod	mod	low	tg	ht	wh/0231.bmp
356.40	0.72	486	3	2	69	per	con	mod	mod	mod	tg	ht	wh/0002.bmp
357.12	0.72	487	3	3	105	per	lib	mod	mod	mod	nt	cr	nh/0425_nh.bmp
357.84	0.72	488	4	2	5	per	lib	mod	mod	mod	nt	cr	nh/0965_nh.bmp
358.56	0.72	489	5	3	90	per	lib	low	mod	low	nt	fa	nh/0529_nh.bmp
359.28	0.72	490	5	2	72	per	con	mod	mod	mod	nt	cr	nh/0879_nh.bmp
360.00	0.72	491	5	2	1	per	lib	mod	mod	mod	nt	fa	nh/0463_nh.bmp
360.72	0.72	492	4	2	6	per	lib	mod	mod	mod	nt	cr	nh/0785_nh.bmp
361.44	0.72	493	3	4	127	mem	lib	mod	mod	mod	nt	ms	nh/0605_nh.bmp
362.16	0.72	494	4	2	33	per	con	low	mod	low	tg	ms	wh/0040.bmp
362.88	0.72	495	4	2	109	per	lib	low	mod	low	nt	fa	nh/0435_nh.bmp
363.60	0.72	496	2	3	32	per	con	low	mod	low	nt	cr	nh/0421_nh.bmp
364.32	0.72	497	1	1	100	per	lib	low	low	low	tg	ht	wh/0411.bmp
365.04	0.72	498	4	2	111	per	lib	low	mod	low	tg	ms	wh/0163.bmp
365.76	0.72	499	1	1	77	per	con	mod	low	mod	tg	ht	wh/0887.bmp
366.48	0.72	500	5	2	33	per	con	low	mod	low	tg	ms	wh/0040.bmp
367.20	0.72	501	1	4	13	per	con	low	low	low	tg	ms	wh/0057.bmp
367.92	0.72	502	3	3	23	per	con	low	mod	low	tg	ht	wh/0739.bmp
368.64	0.72	503	3	2	48	per	con	low	mod	low	nt	cr	nh/0178_nh.bmp
369.36	0.72	504	1	1	79	per	con	mod	low	mod	tg	ms	wh/0476.bmp
370.08	0.72	505	4	2	47	per	con	low	mod	low	nt	cr	nh/0014_nh.bmp
370.80	0.72	506	3	2	106	per	lib	low	mod	low	nt	fa	nh/0155_nh.bmp
371.52	0.72	507	1	4	91	per	con	mod	low	mod	nt	cr	nh/0905_nh.bmp
372.24	0.72	508	3	2	76	per	con	mod	mod	mod	tg	ms	wh/0724.bmp
372.96	0.72	509	4	3	55	per	con	mod	mod	mod	tg	ms	wh/0857.bmp
373.68	0.72	510	4	4	117	mem	lib	mod	mod	mod	tg	ht	wh/0981.bmp
374.40	0.72	511	4	3	47	mem	con	mod	mod	low	tg	ms	wh/0624.bmp
375.12	0.72	512	5	2	92	mem	con	mod	mod	mod	tg	ht	wh/0473.bmp
375.84	0.72	513	2	3	82	per	lib	low	mod	low	tg	ht	wh/0377.bmp
376.56	0.72	514	2	3	56	per	con	mod	mod	mod	tg	ms	wh/0070.bmp
377.28	0.72	515	5	3	47	mem	con	mod	mod	low	tg	ms	wh/0624.bmp
378.00	0.72	516	5	2	125	mem	lib	mod	mod	mod	tg	ht	wh/0405.bmp
378.72	0.72	517	4	3	99	per	lib	mod	mod	mod	tg	ht	wh/0984.bmp
379.44	0.72	518	4	4	114	mem	lib	mod	mod	mod	nt	ms	nh/0414_nh.bmp
380.16	0.72	519	5	3	120	mem	lib	mod	mod	low	nt	ht	nh/0156_nh.bmp
380.88	0.72	520	4	2	43	per	con	low	mod	low	tg	ms	wh/0027.bmp
381.60	0.72	521	3	3	82	per	lib	low	mod	low	tg	ht	wh/0377.bmp
382.32	0.72	522	3	3	33	mem	con	mod	mod	low	tg	ms	wh/0251.bmp
383.04	0.72	523	3	3	32	per	con	low	mod	low	nt	cr	nh/0421_nh.bmp
383.76	0.72	524	3	3	20	per	con	low	mod	low	tg	ms	wh/0217.bmp
384.48	0.72	525	3	3	83	per	lib	low	mod	low	nt	cr	nh/0128_nh.bmp
385.20	0.72	526	5	3	55	per	con	mod	mod	mod	tg	ms	wh/0857.bmp
385.92	0.72	527	4	2	15	per	lib	mod	mod	mod	tg	ht	wh/0204.bmp
386.64	0.72	528	2	4	53	mem	con	mod	mod	mod	tg	ms	wh/0098.bmp
387.36	0.72	529	3	3	50	per	con	mod	mod	mod	nt	cr	nh/0287_nh.bmp
388.08	0.72	530	4	3	32	per	con	low	mod	low	nt	cr	nh/0421_nh.bmp
388.80	0.72	531	4	3	105	per	lib	mod	mod	mod	nt	cr	nh/0425_nh.bmp
389.52	0.72	532	4	2	102	per	lib	low	mod	low	nt	cr	nh/0515_nh.bmp
390.24	0.72	533	4	1	7	mem	lib	mod	mod	low	nt	ht	nh/0727_nh.bmp
390.96	0.72	534	5	4	63	mem	con	mod	mod	mod	nt	ms	nh/0658_nh.bmp
391.68	0.72	535	4	2	89	mem	con	mod	mod	mod	tg	ms	wh/0100.bmp
392.40	0.72	536	5	3	118	mem	lib	mod	mod	low	tg	ht	wh/0514.bmp
393.12	0.72	537	4	3	109	per	lib	mod	mod	mod	tg	ht	wh/0642.bmp
393.84	0.72	538	4	2	106	per	lib	low	mod	low	nt	fa	nh/0155_nh.bmp
394.56	0.72	539	4	3	33	mem	con	mod	mod	low	tg	ms	wh/0251.bmp
395.28	0.72	540	6	1	53	mem	con	mod	mod	low	nt	ms	nh/0897_nh.bmp
396.00	0.72	541	4	3	101	per	lib	mod	mod	mod	nt	fa	nh/0001_nh.bmp
396.72	0.72	542	5	2	89	mem	con	mod	mod	mod	tg	ms	wh/0100.bmp
397.44	0.72	543	4	2	120	mem	lib	mod	mod	mod	nt	ht	nh/0017_nh.bmp
398.16	0.72	544	3	2	13	per	lib	mod	mod	mod	tg	ht	wh/0841.bmp
398.88	0.72	545	5	3	85	per	lib	low	mod	low	tg	ms	wh/0597.bmp
399.60	0.72	546	5	3	105	per	lib	mod	mod	mod	nt	cr	nh/0425_nh.bmp
400.32	0.72	547	5	2	93	mem	con	mod	mod	mod	tg	ms	wh/0183.bmp
401.04	0.72	548	2	2	44	per	con	low	mod	low	nt	cr	nh/0926_nh.bmp
401.76	0.72	549	6	2	89	mem	con	mod	mod	mod	tg	ms	wh/0100.bmp
402.48	0.72	550	3	3	56	per	con	mod	mod	mod	tg	ms	wh/0070.bmp
403.20	0.72	551	5	2	120	mem	lib	mod	mod	mod	nt	ht	nh/0017_nh.bmp
403.92	0.72	552	5	2	15	per	lib	mod	mod	mod	tg	ht	wh/0204.bmp
404.64	0.72	553	5	2	47	per	con	low	mod	low	nt	cr	nh/0014_nh.bmp
405.36	0.72	554	4	1	15	mem	lib	mod	mod	low	nt	ht	nh/0116_nh.bmp
406.08	0.72	555	6	2	33	per	con	low	mod	low	tg	ms	wh/0040.bmp
406.80	0.72	556	5	1	7	mem	lib	mod	mod	low	nt	ht	nh/0727_nh.bmp
407.52	0.72	557	5	1	15	mem	lib	mod	mod	low	nt	ht	nh/0116_nh.bmp
408.24	0.72	558	1	1	105	per	lib	low	low	low	nt	cr	nh/0152_nh.bmp
408.96	0.72	559	4	3	50	per	con	mod	mod	mod	nt	cr	nh/0287_nh.bmp
409.68	0.72	560	3	4	53	mem	con	mod	mod	mod	tg	ms	wh/0098.bmp
410.40	0.72	561	1	4	33	mem	lib	low	low	mod	tg	ht	wh/0873.bmp
411.12	0.72	562	1	3	48	mem	con	mod	mod	low	nt	ht	nh/0573_nh.bmp
411.84	0.72	563	6	3	91	per	lib	low	mod	low	nt	fa	nh/0816_nh.bmp
412.56	0.72	564	4	2	35	per	con	low	mod	low	nt	cr	nh/0649_nh.bmp
413.28	0.72	565	2	2	74	per	con	mod	mod	mod	nt	cr	nh/0162_nh.bmp
414.00	0.72	566	3	3	98	per	lib	mod	mod	mod	nt	cr	nh/0700_nh.bmp
414.72	0.72	567	1	1	125	per	lib	mod	low	mod	tg	ht	wh/0553.bmp
415.44	0.72	568	6	3	85	per	lib	low	mod	low	tg	ms	wh/0597.bmp
416.16	0.72	569	3	4	57	mem	con	mod	mod	mod	tg	ms	wh/0692.bmp
416.88	0.72	570	2	2	112	per	lib	low	mod	low	tg	ms	wh/0353.bmp
417.60	0.72	571	4	3	52	per	con	mod	mod	mod	nt	cr	nh/0580_nh.bmp
418.32	0.72	572	4	2	114	mem	lib	mod	mod	mod	nt	ht	nh/0975_nh.bmp
419.04	0.72	573	3	2	83	mem	con	mod	mod	mod	nt	ht	nh/0637_nh.bmp
419.76	0.72	574	5	2	114	mem	lib	mod	mod	mod	nt	ht	nh/0975_nh.bmp
420.48	0.72	575	6	3	90	per	lib	low	mod	low	nt	fa	nh/0529_nh.bmp
421.20	0.72	576	4	3	61	per	con	mod	mod	mod	nt	cr	nh/0878_nh.bmp
421.92	0.72	577	3	2	95	mem	con	mod	mod	mod	tg	ht	wh/0750.bmp
422.64	0.72	578	5	3	121	mem	lib	mod	mod	low	tg	ht	wh/0231.bmp
423.36	0.72	579	3	2	2	per	lib	mod	mod	mod	tg	n/a	wh/0585.bmp
424.08	0.72	580	6	3	120	mem	lib	mod	mod	low	nt	ht	nh/0156_nh.bmp
424.80	0.72	581	4	4	124	mem	lib	mod	mod	mod	nt	ht	nh/0391_nh.bmp
425.52	0.72	582	4	3	20	per	con	low	mod	low	tg	ms	wh/0217.bmp
426.24	0.72	583	3	2	44	per	con	low	mod	low	nt	cr	nh/0926_nh.bmp
426.96	0.72	584	5	4	117	mem	lib	mod	mod	mod	tg	ht	wh/0981.bmp
427.68	0.72	585	3	2	74	per	con	mod	mod	mod	nt	cr	nh/0162_nh.bmp
428.40	0.72	586	2	3	48	mem	con	mod	mod	low	nt	ht	nh/0573_nh.bmp
429.12	0.72	587	4	4	59	mem	con	mod	mod	mod	nt	ht	nh/0621_nh.bmp
429.84	0.72	588	4	3	82	per	lib	low	mod	low	tg	ht	wh/0377.bmp
430.56	0.72	589	5	2	109	per	lib	low	mod	low	nt	fa	nh/0435_nh.bmp
431.28	0.72	590	5	3	62	per	con	mod	mod	mod	nt	cr	nh/0847_nh.bmp
432.00	0.72	591	5	4	51	mem	con	mod	mod	mod	tg	ms	wh/0627.bmp
432.72	0.72	592	3	3	48	mem	con	mod	mod	low	nt	ht	nh/0573_nh.bmp
433.44	0.72	593	2	2	37	per	con	low	mod	low	tg	ms	wh/0115.bmp
434.16	0.72	594	5	1	1	mem	lib	mod	mod	low	tg	ms	wh/0205.bmp
434.88	0.72	595	6	3	107	per	lib	mod	mod	mod	tg	ht	wh/0935.bmp
435.60	0.72	596	4	4	57	mem	con	mod	mod	mod	tg	ms	wh/0692.bmp
436.32	0.72	597	5	3	37	mem	con	mod	mod	low	nt	ht	nh/0769_nh.bmp
437.04	0.72	598	6	4	51	mem	con	mod	mod	mod	tg	ms	wh/0627.bmp
437.76	0.72	599	4	3	83	per	lib	low	mod	low	nt	cr	nh/0128_nh.bmp
438.48	0.72	600	6	2	109	per	lib	low	mod	low	nt	fa	nh/0435_nh.bmp
439.20	0.72	601	6	3	63	per	con	mod	mod	mod	tg	ms	wh/0919.bmp
439.92	0.72	602	1	4	87	per	con	mod	low	mod	nt	cr	nh/0478_nh.bmp
440.64	0.72	603	5	2	5	per	lib	mod	mod	mod	nt	cr	nh/0965_nh.bmp
441.36	0.72	604	4	2	113	mem	lib	mod	mod	mod	tg	ht	wh/0274.bmp
442.08	0.72	605	4	3	102	per	lib	mod	mod	mod	tg	ht	wh/0896.bmp
442.80	0.72	606	6	3	47	mem	con	mod	mod	low	tg	ms	wh/0624.bmp
443.52	0.72	607	4	3	48	mem	con	mod	mod	low	nt	ht	nh/0573_nh.bmp
444.24	0.72	608	1	4	108	mem	con	low	low	mod	nt	ms	nh/0332_nh.bmp
444.96	0.72	609	2	2	3	per	lib	mod	mod	mod	nt	fa	nh/0698_nh.bmp
445.68	0.72	610	5	3	61	per	con	mod	mod	mod	nt	cr	nh/0878_nh.bmp
446.40	0.72	611	3	4	50	mem	con	mod	mod	mod	nt	ms	nh/0899_nh.bmp
447.12	0.72	612	5	3	109	per	lib	mod	mod	mod	tg	ht	wh/0642.bmp
447.84	0.72	613	2	3	26	per	con	low	mod	low	nt	cr	nh/0341_nh.bmp
448.56	0.72	614	5	1	55	mem	con	mod	mod	low	tg	ht	wh/0105.bmp
449.28	0.72	615	6	4	117	mem	lib	mod	mod	mod	tg	ht	wh/0981.bmp
450.00	0.72	616	4	1	13	mem	lib	mod	mod	low	nt	ms	nh/0200_nh.bmp
450.72	0.72	617	4	4	60	mem	con	mod	mod	mod	tg	ms	wh/0429.bmp
451.44	0.72	618	4	1	9	mem	lib	mod	mod	low	tg	ht	wh/0168.bmp
452.16	0.72	619	4	3	27	per	con	low	mod	low	nt	cr	nh/0868_nh.bmp
452.88	0.72	620	3	1	12	mem	lib	mod	mod	low	tg	ht	wh/0455.bmp
453.60	0.72	621	5	4	128	mem	lib	mod	mod	mod	tg	ht	wh/0466.bmp
454.32	0.72	622	5	2	35	per	con	low	mod	low	nt	cr	nh/0649_nh.bmp
455.04	0.72	623	5	1	61	mem	con	mod	mod	low	tg	ht	wh/0265.bmp
455.76	0.72	624	5	3	35	mem	con	mod	mod	low	nt	ht	nh/0472_nh.bmp
456.48	0.72	625	4	4	53	mem	con	mod	mod	mod	tg	ms	wh/0098.bmp
457.20	0.72	626	5	2	106	per	lib	low	mod	low	nt	fa	nh/0155_nh.bmp
457.92	0.72	627	4	3	45	mem	con	mod	mod	low	tg	ms	wh/0836.bmp
458.64	0.72	628	5	3	45	mem	con	mod	mod	low	tg	ms	wh/0836.bmp
459.36	0.72	629	4	3	98	per	lib	mod	mod	mod	nt	cr	nh/0700_nh.bmp
460.08	0.72	630	1	1	109	per	lib	low	low	low	tg	ht	wh/0481.bmp
460.80	0.72	631	5	2	79	per	con	mod	mod	mod	tg	ms	wh/0920.bmp
461.52	0.72	632	5	3	83	per	lib	low	mod	low	nt	cr	nh/0128_nh.bmp
462.24	0.72	633	5	4	123	mem	lib	mod	mod	mod	tg	ht	wh/0534.bmp
462.96	0.72	634	3	1	62	mem	con	mod	mod	low	tg	ms	wh/0932.bmp
463.68	0.72	635	3	2	37	per	con	low	mod	low	tg	ms	wh/0115.bmp
464.40	0.72	636	1	4	36	mem	lib	low	low	mod	tg	ht	wh/0083.bmp
465.12	0.72	637	6	2	15	per	lib	mod	mod	mod	tg	ht	wh/0204.bmp
465.84	0.72	638	6	2	92	mem	con	mod	mod	mod	tg	ht	wh/0473.bmp
466.56	0.72	639	5	3	33	mem	con	mod	mod	low	tg	ms	wh/0251.bmp
467.28	0.72	640	6	3	45	mem	con	mod	mod	low	tg	ms	wh/0836.bmp
468.00	0.72	641	1	4	106	mem	con	low	low	mod	tg	ms	wh/0844.bmp
468.72	0.72	642	5	3	31	per	con	low	mod	low	nt	cr	nh/0733_nh.bmp
469.44	0.72	643	1	1	48	mem	con	low	low	low	tg	ms	wh/0786.bmp
470.16	0.72	644	5	1	13	mem	lib	mod	mod	low	nt	ms	nh/0200_nh.bmp
470.88	0.72	645	4	2	2	per	lib	mod	mod	mod	tg	n/a	wh/0585.bmp
471.60	0.72	646	6	2	72	per	con	mod	mod	mod	nt	cr	nh/0879_nh.bmp
472.32	0.72	647	1	4	18	per	lib	mod	low	mod	nt	cr	nh/0702_nh.bmp
473.04	0.72	648	1	4	41	mem	lib	low	low	mod	tg	ms	wh/0972.bmp
473.76	0.72	649	4	3	56	per	con	mod	mod	mod	tg	ms	wh/0070.bmp
474.48	0.72	650	5	3	50	per	con	mod	mod	mod	nt	cr	nh/0287_nh.bmp
475.20	0.72	651	6	3	118	mem	lib	mod	mod	low	tg	ht	wh/0514.bmp
475.92	0.72	652	1	1	103	per	lib	low	low	low	tg	ht	wh/0109.bmp
476.64	0.72	653	6	2	106	per	lib	low	mod	low	nt	fa	nh/0155_nh.bmp
477.36	0.72	654	3	2	3	per	lib	mod	mod	mod	nt	fa	nh/0698_nh.bmp
478.08	0.72	655	1	4	97	mem	con	low	low	mod	tg	ms	wh/0960.bmp
478.80	0.72	656	1	1	29	mem	lib	low	low	mod	tg	ms	wh/0149.bmp
479.52	0.72	657	4	3	38	mem	con	mod	mod	low	nt	ms	nh/0853_nh.bmp
480.24	0.72	658	5	4	126	mem	lib	mod	mod	mod	tg	ht	wh/0681.bmp
480.96	0.72	659	5	2	116	mem	lib	mod	mod	mod	nt	ht	nh/0959_nh.bmp
481.68	0.72	660	3	1	50	mem	con	mod	mod	low	nt	ht	nh/0704_nh.bmp
482.40	0.72	661	6	2	79	per	con	mod	mod	mod	tg	ms	wh/0920.bmp
483.12	0.72	662	6	4	63	mem	con	mod	mod	mod	nt	ms	nh/0658_nh.bmp
483.84	0.72	663	5	4	60	mem	con	mod	mod	mod	tg	ms	wh/0429.bmp
484.56	0.72	664	6	3	109	per	lib	mod	mod	mod	tg	ht	wh/0642.bmp
485.28	0.72	665	4	1	50	mem	con	mod	mod	low	nt	ht	nh/0704_nh.bmp
486.00	0.72	666	5	3	82	per	lib	low	mod	low	tg	ht	wh/0377.bmp
486.72	0.72	667	5	2	122	mem	lib	mod	mod	mod	tg	ht	wh/0189.bmp
487.44	0.72	668	1	1	116	per	lib	mod	low	mod	nt	fa	nh/0551_nh.bmp
488.16	0.72	669	6	3	50	per	con	mod	mod	mod	nt	cr	nh/0287_nh.bmp
488.88	0.72	670	4	2	37	per	con	low	mod	low	tg	ms	wh/0115.bmp
489.60	0.72	671	6	2	86	mem	con	mod	mod	mod	nt	ht	nh/0942_nh.bmp
490.32	0.72	672	5	2	2	per	lib	mod	mod	mod	tg	n/a	wh/0585.bmp
491.04	0.72	673	3	2	112	per	lib	low	mod	low	tg	ms	wh/0353.bmp
491.76	0.72	674	1	4	5	per	con	low	low	low	nt	cr	nh/0771_nh.bmp
492.48	0.72	675	3	3	119	mem	lib	mod	mod	low	nt	ms	nh/0766_nh.bmp
493.20	0.72	676	5	3	20	per	con	low	mod	low	tg	ms	wh/0217.bmp
493.92	0.72	677	5	1	6	mem	lib	mod	mod	low	tg	ms	wh/0755.bmp
494.64	0.72	678	4	2	3	per	lib	mod	mod	mod	nt	fa	nh/0698_nh.bmp
495.36	0.72	679	4	2	74	per	con	mod	mod	mod	nt	cr	nh/0162_nh.bmp
496.08	0.72	680	6	3	37	mem	con	mod	mod	low	nt	ht	nh/0769_nh.bmp
496.80	0.72	681	4	2	83	mem	con	mod	mod	mod	nt	ht	nh/0637_nh.bmp
497.52	0.72	682	5	2	102	per	lib	low	mod	low	nt	cr	nh/0515_nh.bmp
498.24	0.72	683	1	3	11	mem	lib	low	low	low	tg	ht	wh/0800.bmp
498.96	0.72	684	6	4	123	mem	lib	mod	mod	mod	tg	ht	wh/0534.bmp
499.68	0.72	685	1	3	80	mem	con	low	low	low	nt	ms	nh/0654_nh.bmp
500.40	0.72	686	1	4	112	mem	con	low	low	mod	nt	ms	nh/0235_nh.bmp
501.12	0.72	687	4	2	105	per	lib	low	mod	low	tg	ht	wh/0031.bmp
501.84	0.72	688	6	1	55	mem	con	mod	mod	low	tg	ht	wh/0105.bmp
502.56	0.72	689	1	3	5	mem	lib	low	low	low	nt	ht	nh/0210_nh.bmp
503.28	0.72	690	5	3	32	per	con	low	mod	low	nt	cr	nh/0421_nh.bmp
504.00	0.72	691	1	4	88	per	con	mod	low	mod	tg	ht	wh/0912.bmp
504.72	0.72	692	5	2	111	per	lib	low	mod	low	tg	ms	wh/0163.bmp
505.44	0.72	693	6	1	61	mem	con	mod	mod	low	tg	ht	wh/0265.bmp
506.16	0.72	694	5	4	114	mem	lib	mod	mod	mod	nt	ms	nh/0414_nh.bmp
506.88	0.72	695	4	1	12	mem	lib	mod	mod	low	tg	ht	wh/0455.bmp
507.60	0.72	696	5	2	8	per	lib	mod	mod	mod	tg	ht	wh/0561.bmp
508.32	0.72	697	5	3	52	per	con	mod	mod	mod	nt	cr	nh/0580_nh.bmp
509.04	0.72	698	4	4	50	mem	con	mod	mod	mod	nt	ms	nh/0899_nh.bmp
509.76	0.72	699	6	2	114	mem	lib	mod	mod	mod	nt	ht	nh/0975_nh.bmp
510.48	0.72	700	6	2	93	mem	con	mod	mod	mod	tg	ms	wh/0183.bmp
511.20	0.72	701	5	3	18	per	con	low	mod	low	tg	n/a	wh/0675.bmp
511.92	0.72	702	6	1	60	mem	con	mod	mod	low	nt	ms	nh/0298_nh.bmp
512.64	0.72	703	6	4	122	mem	lib	mod	mod	mod	nt	ht	nh/0801_nh.bmp
513.36	0.72	704	6	2	111	per	lib	low	mod	low	tg	ms	wh/0163.bmp
514.08	0.72	705	1	4	12	per	con	low	low	low	tg	ms	wh/0709.bmp
514.80	0.72	706	5	3	126	mem	lib	mod	mod	low	nt	ht	nh/0745_nh.bmp
515.52	0.72	707	5	1	50	mem	con	mod	mod	low	nt	ht	nh/0704_nh.bmp
516.24	0.72	708	4	2	95	mem	con	mod	mod	mod	tg	ht	wh/0750.bmp
516.96	0.72	709	5	3	99	per	lib	mod	mod	mod	tg	ht	wh/0984.bmp
517.68	0.72	710	4	3	49	per	con	mod	mod	mod	tg	ms	wh/0938.bmp
518.40	0.72	711	5	3	86	per	lib	low	mod	low	nt	n/a	nh/0066_nh.bmp
519.12	0.72	712	4	2	98	per	lib	low	mod	low	tg	ms	wh/0392.bmp
519.84	0.72	713	6	3	55	per	con	mod	mod	mod	tg	ms	wh/0857.bmp
520.56	0.72	714	4	4	127	mem	lib	mod	mod	mod	nt	ms	nh/0605_nh.bmp
521.28	0.72	715	4	2	44	per	con	low	mod	low	nt	cr	nh/0926_nh.bmp
522.00	0.72	716	5	4	124	mem	lib	mod	mod	mod	nt	ht	nh/0391_nh.bmp
522.72	0.72	717	4	1	62	mem	con	mod	mod	low	tg	ms	wh/0932.bmp
523.44	0.72	718	5	3	38	mem	con	mod	mod	low	nt	ms	nh/0853_nh.bmp
524.16	0.72	719	6	2	103	per	lib	low	mod	low	nt	fa	nh/0133_nh.bmp
524.88	0.72	720	5	4	59	mem	con	mod	mod	mod	nt	ht	nh/0621_nh.bmp
525.60	0.72	721	1	1	34	mem	con	low	low	low	tg	ms	wh/0533.bmp
526.32	0.72	722	4	2	112	per	lib	low	mod	low	tg	ms	wh/0353.bmp
527.04	0.72	723	6	1	13	mem	lib	mod	mod	low	nt	ms	nh/0200_nh.bmp
527.76	0.72	724	6	2	87	mem	con	mod	mod	mod	nt	ms	nh/0884_nh.bmp
528.48	0.72	725	5	2	98	per	lib	low	mod	low	tg	ms	wh/0392.bmp
529.20	0.72	726	5	2	112	per	lib	low	mod	low	tg	ms	wh/0353.bmp
529.92	0.72	727	6	2	5	per	lib	mod	mod	mod	nt	cr	nh/0965_nh.bmp
530.64	0.72	728	4	2	94	mem	con	mod	mod	mod	nt	ht	nh/0679_nh.bmp
531.36	0.72	729	6	3	18	per	con	low	mod	low	tg	n/a	wh/0675.bmp
532.08	0.72	730	4	2	69	per	con	mod	mod	mod	tg	ht	wh/0002.bmp
532.80	0.72	731	4	2	48	per	con	low	mod	low	nt	cr	nh/0178_nh.bmp
533.52	0.72	732	4	3	119	mem	lib	mod	mod	low	nt	ms	nh/0766_nh.bmp
534.24	0.72	733	5	1	9	mem	lib	mod	mod	low	tg	ht	wh/0168.bmp
534.96	0.72	734	6	1	6	mem	lib	mod	mod	low	tg	ms	wh/0755.bmp
535.68	0.72	735	1	4	102	mem	con	low	low	mod	tg	ms	wh/0898.bmp
536.40	0.72	736	6	3	35	mem	con	mod	mod	low	nt	ht	nh/0472_nh.bmp
537.12	0.72	737	4	3	23	per	con	low	mod	low	tg	ht	wh/0739.bmp
537.84	0.72	738	6	1	54	mem	con	mod	mod	low	nt	ms	nh/0379_nh.bmp
538.56	0.72	739	4	2	76	per	con	mod	mod	mod	tg	ms	wh/0724.bmp
539.28	0.72	740	6	1	50	mem	con	mod	mod	low	nt	ht	nh/0704_nh.bmp
540.00	0.72	741	6	2	1	per	lib	mod	mod	mod	nt	fa	nh/0463_nh.bmp
540.72	0.72	742	6	3	121	mem	lib	mod	mod	low	tg	ht	wh/0231.bmp
541.44	0.72	743	6	3	32	per	con	low	mod	low	nt	cr	nh/0421_nh.bmp
542.16	0.72	744	6	3	105	per	lib	mod	mod	mod	nt	cr	nh/0425_nh.bmp
542.88	0.72	745	6	4	59	mem	con	mod	mod	mod	nt	ht	nh/0621_nh.bmp
543.60	0.72	746	6	2	35	per	con	low	mod	low	nt	cr	nh/0649_nh.bmp
544.32	0.72	747	5	2	128	mem	lib	mod	mod	mod	nt	ht	nh/0393_nh.bmp
545.04	0.72	748	6	2	122	mem	lib	mod	mod	mod	tg	ht	wh/0189.bmp
545.76	0.72	749	5	4	57	mem	con	mod	mod	mod	tg	ms	wh/0692.bmp
546.48	0.72	750	6	2	47	per	con	low	mod	low	nt	cr	nh/0014_nh.bmp
547.20	0.72	751	1	4	37	mem	lib	low	low	mod	nt	ht	nh/0288_nh.bmp
547.92	0.72	752	5	1	12	mem	lib	mod	mod	low	tg	ht	wh/0455.bmp
548.64	0.72	753	5	3	102	per	lib	mod	mod	mod	tg	ht	wh/0896.bmp
549.36	0.72	754	5	2	66	per	con	mod	mod	mod	tg	ms	wh/0526.bmp
550.08	0.72	755	5	3	98	per	lib	mod	mod	mod	nt	cr	nh/0700_nh.bmp
550.80	0.72	756	6	1	12	mem	lib	mod	mod	low	tg	ht	wh/0455.bmp
551.52	0.72	757	5	2	37	per	con	low	mod	low	tg	ms	wh/0115.bmp
552.24	0.72	758	6	3	61	per	con	mod	mod	mod	nt	cr	nh/0878_nh.bmp
552.96	0.72	759	5	2	95	mem	con	mod	mod	mod	tg	ht	wh/0750.bmp
553.68	0.72	760	5	4	127	mem	lib	mod	mod	mod	nt	ms	nh/0605_nh.bmp
554.40	0.72	761	1	3	71	mem	con	low	low	low	nt	ms	nh/0191_nh.bmp
555.12	0.72	762	1	4	14	per	con	low	low	low	tg	ms	wh/0614.bmp
555.84	0.72	763	6	4	124	mem	lib	mod	mod	mod	nt	ht	nh/0391_nh.bmp
556.56	0.72	764	5	3	23	per	con	low	mod	low	tg	ht	wh/0739.bmp
557.28	0.72	765	5	2	113	mem	lib	mod	mod	mod	tg	ht	wh/0274.bmp
558.00	0.72	766	4	3	125	mem	lib	mod	mod	low	tg	ht	wh/0325.bmp
558.72	0.72	767	5	4	53	mem	con	mod	mod	mod	tg	ms	wh/0098.bmp
559.44	0.72	768	5	4	50	mem	con	mod	mod	mod	nt	ms	nh/0899_nh.bmp
560.16	0.72	769	1	4	3	per	con	low	low	low	tg	ms	wh/0682.bmp
560.88	0.72	770	1	4	94	per	con	mod	low	mod	nt	cr	nh/0501_nh.bmp
561.60	0.72	771	4	2	75	per	con	mod	mod	mod	nt	cr	nh/0600_nh.bmp
562.32	0.72	772	6	2	8	per	lib	mod	mod	mod	tg	ht	wh/0561.bmp
563.04	0.72	773	1	1	85	per	con	low	low	low	tg	ms	wh/0159.bmp
563.76	0.72	774	6	4	114	mem	lib	mod	mod	mod	nt	ms	nh/0414_nh.bmp
564.48	0.72	775	5	3	27	per	con	low	mod	low	nt	cr	nh/0868_nh.bmp
565.20	0.72	776	5	2	3	per	lib	mod	mod	mod	nt	fa	nh/0698_nh.bmp
565.92	0.72	777	6	4	60	mem	con	mod	mod	mod	tg	ms	wh/0429.bmp
566.64	0.72	778	4	2	13	per	lib	mod	mod	mod	tg	ht	wh/0841.bmp
567.36	0.72	779	6	3	126	mem	lib	mod	mod	low	nt	ht	nh/0745_nh.bmp
568.08	0.72	780	6	2	125	mem	lib	mod	mod	mod	tg	ht	wh/0405.bmp
568.80	0.72	781	6	3	23	per	con	low	mod	low	tg	ht	wh/0739.bmp
569.52	0.72	782	6	3	98	per	lib	mod	mod	mod	nt	cr	nh/0700_nh.bmp
570.24	0.72	783	6	4	127	mem	lib	mod	mod	mod	nt	ms	nh/0605_nh.bmp
570.96	0.72	784	5	2	48	per	con	low	mod	low	nt	cr	nh/0178_nh.bmp
571.68	0.72	785	5	3	123	mem	lib	mod	mod	low	nt	ht	nh/0387_nh.bmp
572.40	0.72	786	6	2	116	mem	lib	mod	mod	mod	nt	ht	nh/0959_nh.bmp
573.12	0.72	787	5	3	97	per	lib	mod	mod	mod	nt	cr	nh/0955_nh.bmp
573.84	0.72	788	6	3	52	per	con	mod	mod	mod	nt	cr	nh/0580_nh.bmp
574.56	0.72	789	6	3	99	per	lib	mod	mod	mod	tg	ht	wh/0984.bmp
575.28	0.72	790	6	4	57	mem	con	mod	mod	mod	tg	ms	wh/0692.bmp
576.00	0.72	791	5	2	83	mem	con	mod	mod	mod	nt	ht	nh/0637_nh.bmp
576.72	0.72	792	1	3	77	mem	con	low	low	low	tg	ht	wh/0662.bmp
577.44	0.72	793	1	3	15	mem	lib	low	low	low	nt	ht	nh/0407_nh.bmp
578.16	0.72	794	6	2	66	per	con	mod	mod	mod	tg	ms	wh/0526.bmp
578.88	0.72	795	3	3	26	per	con	low	mod	low	nt	cr	nh/0341_nh.bmp
579.60	0.72	796	6	2	37	per	con	low	mod	low	tg	ms	wh/0115.bmp
580.32	0.72	797	1	2	55	mem	con	low	low	mod	nt	ms	nh/0406_nh.bmp
581.04	0.72	798	5	2	13	per	lib	mod	mod	mod	tg	ht	wh/0841.bmp
581.76	0.72	799	5	2	75	per	con	mod	mod	mod	nt	cr	nh/0600_nh.bmp
582.48	0.72	800	5	3	101	per	lib	mod	mod	mod	nt	fa	nh/0001_nh.bmp
583.20	0.72	801	5	3	119	mem	lib	mod	mod	low	nt	ms	nh/0766_nh.bmp
583.92	0.72	802	1	4	86	per	con	mod	low	mod	tg	ht	wh/0977.bmp
584.64	0.72	803	6	2	120	mem	lib	mod	mod	mod	nt	ht	nh/0017_nh.bmp
585.36	0.72	804	6	3	27	per	con	low	mod	low	nt	cr	nh/0868_nh.bmp
586.08	0.72	805	1	4	75	per	lib	low	low	low	nt	fa	nh/0354_nh.bmp
586.80	0.72	806	6	2	3	per	lib	mod	mod	mod	nt	fa	nh/0698_nh.bmp
587.52	0.72	807	5	2	44	per	con	low	mod	low	nt	cr	nh/0926_nh.bmp
588.24	0.72	808	5	2	76	per	con	mod	mod	mod	tg	ms	wh/0724.bmp
588.96	0.72	809	1	4	98	mem	con	low	low	mod	nt	ms	nh/0047_nh.bmp
589.68	0.72	810	6	2	83	mem	con	mod	mod	mod	nt	ht	nh/0637_nh.bmp
590.40	0.72	811	1	2	21	mem	lib	low	low	low	tg	ht	wh/0121.bmp
591.12	0.72	812	6	2	13	per	lib	mod	mod	mod	tg	ht	wh/0841.bmp
591.84	0.72	813	4	3	87	per	lib	low	mod	low	tg	ht	wh/0019.bmp
592.56	0.72	814	6	3	31	per	con	low	mod	low	nt	cr	nh/0733_nh.bmp
593.28	0.72	815	1	1	98	per	lib	low	low	low	nt	fa	nh/0903_nh.bmp
594.00	0.72	816	5	2	69	per	con	mod	mod	mod	tg	ht	wh/0002.bmp
594.72	0.72	817	6	3	119	mem	lib	mod	mod	low	nt	ms	nh/0766_nh.bmp
595.44	0.72	818	6	3	38	mem	con	mod	mod	low	nt	ms	nh/0853_nh.bmp
596.16	0.72	819	6	2	98	per	lib	low	mod	low	tg	ms	wh/0392.bmp
596.88	0.72	820	6	4	128	mem	lib	mod	mod	mod	tg	ht	wh/0466.bmp
597.60	0.72	821	5	3	56	per	con	mod	mod	mod	tg	ms	wh/0070.bmp
598.32	0.72	822	6	4	126	mem	lib	mod	mod	mod	tg	ht	wh/0681.bmp
599.04	0.72	823	6	2	118	mem	lib	mod	mod	mod	tg	ht	wh/0775.bmp
599.76	0.72	824	6	3	86	per	lib	low	mod	low	nt	n/a	nh/0066_nh.bmp
600.48	0.72	825	5	2	74	per	con	mod	mod	mod	nt	cr	nh/0162_nh.bmp
601.20	0.72	826	6	4	53	mem	con	mod	mod	mod	tg	ms	wh/0098.bmp
601.92	0.72	827	5	3	49	per	con	mod	mod	mod	tg	ms	wh/0938.bmp
602.64	0.72	828	5	2	94	mem	con	mod	mod	mod	nt	ht	nh/0679_nh.bmp
603.36	0.72	829	6	1	1	mem	lib	mod	mod	low	tg	ms	wh/0205.bmp
604.08	0.72	830	1	1	82	per	con	low	low	low	nt	cr	nh/0747_nh.bmp
604.80	0.72	831	6	3	33	mem	con	mod	mod	low	tg	ms	wh/0251.bmp
605.52	0.72	832	6	2	48	per	con	low	mod	low	nt	cr	nh/0178_nh.bmp
606.24	0.72	833	1	3	70	mem	con	low	low	low	nt	ht	nh/0257_nh.bmp
606.96	0.72	834	5	3	87	per	lib	low	mod	low	tg	ht	wh/0019.bmp
607.68	0.72	835	1	1	44	mem	con	low	low	low	tg	ms	wh/0076.bmp
608.40	0.72	836	4	3	26	per	con	low	mod	low	nt	cr	nh/0341_nh.bmp
609.12	0.72	837	6	3	49	per	con	mod	mod	mod	tg	ms	wh/0938.bmp
609.84	0.72	838	6	3	83	per	lib	low	mod	low	nt	cr	nh/0128_nh.bmp
610.56	0.72	839	5	2	105	per	lib	low	mod	low	tg	ht	wh/0031.bmp
611.28	0.72	840	6	2	75	per	con	mod	mod	mod	nt	cr	nh/0600_nh.bmp
612.00	0.72	841	1	2	58	mem	con	low	low	mod	tg	ht	wh/0885.bmp
612.72	0.72	842	5	2	43	per	con	low	mod	low	tg	ms	wh/0027.bmp
613.44	0.72	843	6	2	43	per	con	low	mod	low	tg	ms	wh/0027.bmp
614.16	0.72	844	5	2	36	per	con	low	mod	low	tg	ms	wh/0741.bmp
614.88	0.72	845	1	2	64	mem	con	low	low	mod	tg	ms	wh/0829.bmp
615.60	0.72	846	1	4	47	mem	lib	low	low	mod	tg	ht	wh/0906.bmp
616.32	0.72	847	5	3	125	mem	lib	mod	mod	low	tg	ht	wh/0325.bmp
617.04	0.72	848	5	2	6	per	lib	mod	mod	mod	nt	cr	nh/0785_nh.bmp
617.76	0.72	849	6	2	105	per	lib	low	mod	low	tg	ht	wh/0031.bmp
618.48	0.72	850	6	2	76	per	con	mod	mod	mod	tg	ms	wh/0724.bmp
619.20	0.72	851	1	1	17	mem	lib	low	low	mod	tg	ht	wh/0589.bmp
619.92	0.72	852	6	3	20	per	con	low	mod	low	tg	ms	wh/0217.bmp
620.64	0.72	853	5	3	48	mem	con	mod	mod	low	nt	ht	nh/0573_nh.bmp
621.36	0.72	854	1	4	22	per	lib	mod	low	mod	nt	fa	nh/0601_nh.bmp
622.08	0.72	855	5	1	62	mem	con	mod	mod	low	tg	ms	wh/0932.bmp
622.80	0.72	856	6	1	51	mem	con	mod	mod	low	tg	ht	wh/0648.bmp
623.52	0.72	857	6	2	112	per	lib	low	mod	low	tg	ms	wh/0353.bmp
624.24	0.72	858	6	2	44	per	con	low	mod	low	nt	cr	nh/0926_nh.bmp
624.96	0.72	859	6	3	101	per	lib	mod	mod	mod	nt	fa	nh/0001_nh.bmp
625.68	0.72	860	6	3	48	mem	con	mod	mod	low	nt	ht	nh/0573_nh.bmp
626.40	0.72	861	1	3	78	mem	con	low	low	low	nt	ms	nh/0722_nh.bmp
627.12	0.72	862	6	2	95	mem	con	mod	mod	mod	tg	ht	wh/0750.bmp
627.84	0.72	863	6	1	7	mem	lib	mod	mod	low	nt	ht	nh/0727_nh.bmp
628.56	0.72	864	1	4	16	per	con	low	low	low	nt	cr	nh/0862_nh.bmp
629.28	0.72	865	6	3	56	per	con	mod	mod	mod	tg	ms	wh/0070.bmp
630.00	0.72	866	5	3	26	per	con	low	mod	low	nt	cr	nh/0341_nh.bmp
630.72	0.72	867	6	3	26	per	con	low	mod	low	nt	cr	nh/0341_nh.bmp
631.44	0.72	868	6	2	102	per	lib	low	mod	low	nt	cr	nh/0515_nh.bmp
632.16	0.72	869	5	1	11	mem	lib	mod	mod	low	nt	ms	nh/1021_nh.bmp
632.88	0.72	870	6	3	97	per	lib	mod	mod	mod	nt	cr	nh/0955_nh.bmp
633.60	0.72	871	6	3	82	per	lib	low	mod	low	tg	ht	wh/0377.bmp
634.32	0.72	872	6	3	87	per	lib	low	mod	low	tg	ht	wh/0019.bmp
635.04	0.72	873	6	3	123	mem	lib	mod	mod	low	nt	ht	nh/0387_nh.bmp
635.76	0.72	874	6	1	62	mem	con	mod	mod	low	tg	ms	wh/0932.bmp
636.48	0.72	875	1	2	57	mem	con	low	low	mod	nt	ms	nh/0550_nh.bmp
637.20	0.72	876	6	2	74	per	con	mod	mod	mod	nt	cr	nh/0162_nh.bmp
637.92	0.72	877	6	2	128	mem	lib	mod	mod	mod	nt	ht	nh/0393_nh.bmp
638.64	0.72	878	6	2	2	per	lib	mod	mod	mod	tg	n/a	wh/0585.bmp
639.36	0.72	879	6	2	94	mem	con	mod	mod	mod	nt	ht	nh/0679_nh.bmp
640.08	0.72	880	1	4	45	mem	lib	low	low	mod	nt	ht	nh/0311_nh.bmp
640.80	0.72	881	6	3	62	per	con	mod	mod	mod	nt	cr	nh/0847_nh.bmp
641.52	0.72	882	1	1	120	per	lib	mod	low	mod	nt	cr	nh/0659_nh.bmp
642.24	0.72	883	6	1	9	mem	lib	mod	mod	low	tg	ht	wh/0168.bmp
642.96	0.72	884	1	1	84	per	con	low	low	low	nt	cr	nh/0330_nh.bmp
643.68	0.72	885	6	2	36	per	con	low	mod	low	tg	ms	wh/0741.bmp
644.40	0.72	886	6	2	69	per	con	mod	mod	mod	tg	ht	wh/0002.bmp
645.12	0.72	887	6	4	58	mem	con	mod	mod	mod	nt	ht	nh/0289_nh.bmp
645.84	0.72	888	6	2	6	per	lib	mod	mod	mod	nt	cr	nh/0785_nh.bmp
646.56	0.72	889	6	1	11	mem	lib	mod	mod	low	nt	ms	nh/1021_nh.bmp
647.28	0.72	890	6	3	102	per	lib	mod	mod	mod	tg	ht	wh/0896.bmp
648.00	0.72	891	6	3	125	mem	lib	mod	mod	low	tg	ht	wh/0325.bmp
648.72	0.72	892	1	3	72	mem	con	low	low	low	tg	ms	wh/0777.bmp
649.44	0.72	893	6	2	113	mem	lib	mod	mod	mod	tg	ht	wh/0274.bmp
650.16	0.72	894	1	4	68	per	lib	low	low	low	tg	ht	wh/0362.bmp
650.88	0.72	895	6	1	15	mem	lib	mod	mod	low	nt	ht	nh/0116_nh.bmp
651.60	0.72	896	6	4	50	mem	con	mod	mod	mod	nt	ms	nh/0899_nh.bmp
