onset	duration	trial	pres	ts_blk	ts_trl	task	crit	disc	mem_disc	per_disc	per_type	accuracy	stim_file
7.20	0.72	1	1	2	70	per	lib	mod	mod	mod	tg	ht	wh/0935.bmp
7.92	0.72	2	1	1	5	per	con	mod	mod	mod	nt	cr	nh/0847_nh.bmp
8.64	0.72	3	1	1	24	per	con	low	mod	low	nt	cr	nh/0341_nh.bmp
9.36	0.72	4	1	4	94	mem	lib	mod	mod	mod	nt	ht	nh/0393_nh.bmp
10.08	0.72	5	1	3	67	per	lib	mod	mod	mod	tg	ht	wh/0561.bmp
10.80	0.72	6	1	1	114	mem	con	mod	mod	low	nt	ht	nh/0769_nh.bmp
11.52	0.72	7	1	4	47	per	con	mod	mod	mod	tg	ms	wh/0724.bmp
12.24	0.72	8	1	1	22	per	con	low	mod	low	tg	ms	wh/0675.bmp
12.96	0.72	9	1	3	39	mem	con	mod	mod	mod	nt	ht	nh/0637_nh.bmp
13.68	0.72	10	1	1	123	mem	con	mod	mod	low	nt	ht	nh/0573_nh.bmp
14.40	0.72	11	1	2	116	per	lib	low	mod	low	nt	cr	nh/0066_nh.bmp
15.12	0.72	12	1	3	118	per	lib	low	low	low	tg	ht	wh/0486.bmp
15.84	0.72	13	1	3	104	per	con	mod	low	mod	nt	cr	nh/0527_nh.bmp
16.56	0.72	14	1	2	44	mem	con	mod	mod	mod	nt	ht	nh/0621_nh.bmp
17.28	0.72	15	1	1	77	mem	lib	mod	mod	mod	nt	ht	nh/0414_nh.bmp
18.00	0.72	16	1	2	78	per	lib	mod	mod	mod	tg	ht	wh/0642.bmp
18.72	0.72	17	1	3	30	mem	lib	mod	mod	low	nt	ht	nh/1021_nh.bmp
19.44	0.72	18	1	2	93	per	con	low	low	low	tg	ms	wh/0709.bmp
20.16	0.72	19	1	3	23	mem	lib	mod	mod	low	tg	ht	wh/0168.bmp
20.88	0.72	20	1	3	65	per	lib	mod	mod	mod	nt	cr	nh/0965_nh.bmp
21.60	0.72	21	1	1	71	mem	lib	mod	mod	mod	tg	ht	wh/0981.bmp
22.32	0.72	22	1	4	116	mem	con	low	low	low	nt	ht	nh/0141_nh.bmp
23.04	0.72	23	1	3	36	mem	con	mod	mod	mod	tg	ht	wh/0473.bmp
23.76	0.72	24	1	2	118	per	lib	low	mod	low	tg	ms	wh/0377.bmp
24.48	0.72	25	1	3	47	mem	con	mod	mod	mod	tg	ht	wh/0750.bmp
25.20	0.72	26	1	2	41	mem	con	mod	mod	mod	tg	ht	wh/0692.bmp
25.92	0.72	27	1	3	73	per	lib	mod	mod	mod	nt	fa	nh/0698_nh.bmp
26.64	0.72	28	2	3	39	mem	con	mod	mod	mod	nt	ht	nh/0637_nh.bmp
27.36	0.72	29	1	4	85	mem	lib	mod	mod	mod	nt	ht	nh/0975_nh.bmp
28.08	0.72	30	1	3	48	mem	con	mod	mod	mod	nt	ht	nh/0942_nh.bmp
28.80	0.72	31	1	4	44	per	con	mod	mod	mod	nt	cr	nh/0879_nh.bmp
29.52	0.72	32	2	2	78	per	lib	mod	mod	mod	tg	ht	wh/0642.bmp
30.24	0.72	33	1	1	31	per	con	low	mod	low	tg	ms	wh/0739.bmp
30.96	0.72	34	1	4	8	mem	con	mod	mod	low	tg	ms	wh/0105.bmp
31.68	0.72	35	1	2	69	per	lib	mod	mod	mod	nt	cr	nh/0700_nh.bmp
32.40	0.72	36	1	1	67	mem	lib	mod	mod	mod	nt	ht	nh/0391_nh.bmp
33.12	0.72	37	2	2	116	per	lib	low	mod	low	nt	cr	nh/0066_nh.bmp
33.84	0.72	38	1	2	53	mem	lib	mod	mod	low	nt	ht	nh/0387_nh.bmp
34.56	0.72	39	1	2	61	mem	lib	mod	mod	low	tg	ht	wh/0325.bmp
35.28	0.72	40	1	3	22	mem	lib	mod	mod	low	nt	ht	nh/0727_nh.bmp
36.00	0.72	41	1	4	63	per	lib	low	mod	low	nt	fa	nh/0435_nh.bmp
36.72	0.72	42	2	2	61	mem	lib	mod	mod	low	tg	ht	wh/0325.bmp
37.44	0.72	43	2	1	31	per	con	low	mod	low	tg	ms	wh/0739.bmp
38.16	0.72	44	2	1	24	per	con	low	mod	low	nt	cr	nh/0341_nh.bmp
38.88	0.72	45	2	3	47	mem	con	mod	mod	mod	tg	ht	wh/0750.bmp
39.60	0.72	46	2	4	8	mem	con	mod	mod	low	tg	ms	wh/0105.bmp
40.32	0.72	47	3	1	24	per	con	low	mod	low	nt	cr	nh/0341_nh.bmp
41.04	0.72	48	1	1	115	mem	con	mod	mod	low	tg	ht	wh/0251.bmp
41.76	0.72	49	1	2	62	mem	lib	mod	mod	low	tg	ht	wh/0145.bmp
42.48	0.72	50	1	2	33	mem	con	mod	mod	mod	tg	ms	wh/0627.bmp
43.20	0.72	51	2	3	65	per	lib	mod	mod	mod	nt	cr	nh/0965_nh.bmp
43.92	0.72	52	1	2	124	per	lib	low	mod	low	tg	ms	wh/0597.bmp
44.64	0.72	53	1	3	7	per	con	low	mod	low	tg	ms	wh/0115.bmp
45.36	0.72	54	1	4	114	mem	con	low	low	low	tg	ht	wh/0786.bmp
46.08	0.72	55	1	1	3	per	con	mod	mod	mod	tg	ms	wh/0070.bmp
46.80	0.72	56	1	3	79	per	lib	mod	mod	mod	nt	cr	nh/0463_nh.bmp
47.52	0.72	57	1	4	81	mem	lib	mod	mod	mod	tg	ht	wh/0189.bmp
48.24	0.72	58	2	1	3	per	con	mod	mod	mod	tg	ms	wh/0070.bmp
48.96	0.72	59	1	2	86	per	con	low	low	low	nt	cr	nh/0028_nh.bmp
49.68	0.72	60	1	4	38	per	con	mod	mod	mod	tg	ms	wh/0920.bmp
50.40	0.72	61	1	4	45	per	con	mod	mod	mod	tg	ht	wh/0002.bmp
51.12	0.72	62	2	1	22	per	con	low	mod	low	tg	ms	wh/0675.bmp
51.84	0.72	63	1	1	13	per	con	mod	mod	mod	tg	ms	wh/0919.bmp
52.56	0.72	64	2	4	47	per	con	mod	mod	mod	tg	ms	wh/0724.bmp
53.28	0.72	65	3	2	61	mem	lib	mod	mod	low	tg	ht	wh/0325.bmp
54.00	0.72	66	3	3	65	per	lib	mod	mod	mod	nt	cr	nh/0965_nh.bmp
54.72	0.72	67	1	3	99	per	con	mod	low	mod	nt	cr	nh/0696_nh.bmp
55.44	0.72	68	3	1	31	per	con	low	mod	low	tg	ms	wh/0739.bmp
56.16	0.72	69	1	4	88	mem	lib	mod	mod	mod	tg	ht	wh/0274.bmp
56.88	0.72	70	1	4	53	per	lib	low	mod	low	nt	fa	nh/0155_nh.bmp
57.60	0.72	71	2	3	23	mem	lib	mod	mod	low	tg	ht	wh/0168.bmp
58.32	0.72	72	1	1	80	mem	lib	mod	mod	mod	tg	ht	wh/0534.bmp
59.04	0.72	73	1	2	37	mem	con	mod	mod	mod	tg	ht	wh/0098.bmp
59.76	0.72	74	1	1	125	mem	con	mod	mod	low	nt	ht	nh/0472_nh.bmp
60.48	0.72	75	2	2	69	per	lib	mod	mod	mod	nt	cr	nh/0700_nh.bmp
61.20	0.72	76	2	1	115	mem	con	mod	mod	low	tg	ht	wh/0251.bmp
61.92	0.72	77	1	2	18	per	con	mod	low	mod	tg	ht	wh/1017.bmp
62.64	0.72	78	2	2	37	mem	con	mod	mod	mod	tg	ht	wh/0098.bmp
63.36	0.72	79	2	4	45	per	con	mod	mod	mod	tg	ht	wh/0002.bmp
64.08	0.72	80	1	2	28	per	con	mod	low	mod	tg	ms	wh/0912.bmp
64.80	0.72	81	1	2	76	per	lib	mod	mod	mod	nt	cr	nh/0001_nh.bmp
65.52	0.72	82	1	3	8	per	con	low	mod	low	tg	ms	wh/0040.bmp
66.24	0.72	83	1	3	37	mem	con	mod	mod	mod	tg	ht	wh/0100.bmp
66.96	0.72	84	1	2	50	mem	lib	mod	mod	low	nt	ht	nh/0766_nh.bmp
67.68	0.72	85	1	2	117	per	lib	low	mod	low	tg	ht	wh/0019.bmp
68.40	0.72	86	1	4	49	per	lib	low	mod	low	tg	ht	wh/0353.bmp
69.12	0.72	87	2	4	94	mem	lib	mod	mod	mod	nt	ht	nh/0393_nh.bmp
69.84	0.72	88	1	4	35	per	con	mod	mod	mod	nt	cr	nh/0600_nh.bmp
70.56	0.72	89	1	4	9	mem	con	mod	mod	low	nt	ms	nh/0379_nh.bmp
71.28	0.72	90	3	3	23	mem	lib	mod	mod	low	tg	ht	wh/0168.bmp
72.00	0.72	91	2	2	50	mem	lib	mod	mod	low	nt	ht	nh/0766_nh.bmp
72.72	0.72	92	1	1	76	mem	lib	mod	mod	mod	nt	ht	nh/0801_nh.bmp
73.44	0.72	93	1	1	10	per	con	mod	mod	mod	tg	ms	wh/0857.bmp
74.16	0.72	94	1	1	4	per	con	mod	mod	mod	nt	cr	nh/0878_nh.bmp
74.88	0.72	95	1	2	63	mem	lib	mod	mod	low	tg	ht	wh/0231.bmp
75.60	0.72	96	1	2	80	per	lib	mod	mod	mod	nt	cr	nh/0425_nh.bmp
76.32	0.72	97	3	4	8	mem	con	mod	mod	low	tg	ms	wh/0105.bmp
77.04	0.72	98	1	3	17	mem	lib	mod	mod	low	tg	ht	wh/0205.bmp
77.76	0.72	99	3	4	45	per	con	mod	mod	mod	tg	ht	wh/0002.bmp
78.48	0.72	100	1	2	57	mem	lib	mod	mod	low	nt	ht	nh/0745_nh.bmp
79.20	0.72	101	1	2	40	mem	con	mod	mod	mod	nt	ht	nh/0658_nh.bmp
79.92	0.72	102	2	1	5	per	con	mod	mod	mod	nt	cr	nh/0847_nh.bmp
80.64	0.72	103	2	1	76	mem	lib	mod	mod	mod	nt	ht	nh/0801_nh.bmp
81.36	0.72	104	1	1	126	mem	con	mod	mod	low	tg	ht	wh/0836.bmp
82.08	0.72	105	2	2	63	mem	lib	mod	mod	low	tg	ht	wh/0231.bmp
82.80	0.72	106	1	1	12	per	con	mod	mod	mod	tg	ms	wh/0938.bmp
83.52	0.72	107	1	4	41	per	con	mod	mod	mod	tg	ms	wh/0526.bmp
84.24	0.72	108	3	3	47	mem	con	mod	mod	mod	tg	ht	wh/0750.bmp
84.96	0.72	109	2	1	125	mem	con	mod	mod	low	nt	ht	nh/0472_nh.bmp
85.68	0.72	110	1	3	24	mem	lib	mod	mod	low	nt	ht	nh/0116_nh.bmp
86.40	0.72	111	2	1	13	per	con	mod	mod	mod	tg	ms	wh/0919.bmp
87.12	0.72	112	1	4	5	mem	con	mod	mod	low	tg	ht	wh/0648.bmp
87.84	0.72	113	1	1	14	per	con	mod	mod	mod	nt	fa	nh/0580_nh.bmp
88.56	0.72	114	2	4	53	per	lib	low	mod	low	nt	fa	nh/0155_nh.bmp
89.28	0.72	115	3	4	47	per	con	mod	mod	mod	tg	ms	wh/0724.bmp
90.00	0.72	116	1	3	27	mem	lib	mod	mod	low	tg	ht	wh/0755.bmp
90.72	0.72	117	2	3	22	mem	lib	mod	mod	low	nt	ht	nh/0727_nh.bmp
91.44	0.72	118	3	1	125	mem	con	mod	mod	low	nt	ht	nh/0472_nh.bmp
92.16	0.72	119	2	4	81	mem	lib	mod	mod	mod	tg	ht	wh/0189.bmp
92.88	0.72	120	2	2	57	mem	lib	mod	mod	low	nt	ht	nh/0745_nh.bmp
93.60	0.72	121	1	3	40	mem	con	mod	mod	mod	nt	ht	nh/0679_nh.bmp
94.32	0.72	122	1	2	106	mem	lib	low	low	low	nt	ht	nh/0407_nh.bmp
95.04	0.72	123	4	3	23	mem	lib	mod	mod	low	tg	ht	wh/0168.bmp
95.76	0.72	124	1	1	55	per	lib	low	low	low	nt	cr	nh/0456_nh.bmp
96.48	0.72	125	3	3	22	mem	lib	mod	mod	low	nt	ht	nh/0727_nh.bmp
97.20	0.72	126	2	2	117	per	lib	low	mod	low	tg	ht	wh/0019.bmp
97.92	0.72	127	1	1	2	per	con	mod	mod	mod	nt	cr	nh/0287_nh.bmp
98.64	0.72	128	2	3	67	per	lib	mod	mod	mod	tg	ht	wh/0561.bmp
99.36	0.72	129	1	1	75	mem	lib	mod	mod	mod	tg	ht	wh/0681.bmp
100.08	0.72	130	1	2	115	per	lib	low	mod	low	nt	cr	nh/0816_nh.bmp
100.80	0.72	131	1	2	48	mem	con	mod	mod	mod	nt	ht	nh/0289_nh.bmp
101.52	0.72	132	2	2	62	mem	lib	mod	mod	low	tg	ht	wh/0145.bmp
102.24	0.72	133	2	1	67	mem	lib	mod	mod	mod	nt	ht	nh/0391_nh.bmp
102.96	0.72	134	2	2	41	mem	con	mod	mod	mod	tg	ht	wh/0692.bmp
103.68	0.72	135	1	4	10	mem	con	mod	mod	low	tg	ht	wh/0265.bmp
104.40	0.72	136	1	4	93	mem	lib	mod	mod	mod	nt	ht	nh/0017_nh.bmp
105.12	0.72	137	2	1	123	mem	con	mod	mod	low	nt	ht	nh/0573_nh.bmp
105.84	0.72	138	1	4	42	per	con	mod	mod	mod	nt	cr	nh/0596_nh.bmp
106.56	0.72	139	2	1	75	mem	lib	mod	mod	mod	tg	ht	wh/0681.bmp
107.28	0.72	140	1	3	1	per	con	low	mod	low	nt	cr	nh/0014_nh.bmp
108.00	0.72	141	2	4	88	mem	lib	mod	mod	mod	tg	ht	wh/0274.bmp
108.72	0.72	142	1	3	61	mem	lib	low	low	mod	nt	ht	nh/0270_nh.bmp
109.44	0.72	143	2	1	4	per	con	mod	mod	mod	nt	cr	nh/0878_nh.bmp
110.16	0.72	144	2	2	33	mem	con	mod	mod	mod	tg	ms	wh/0627.bmp
110.88	0.72	145	1	4	61	per	lib	low	mod	low	tg	ht	wh/0392.bmp
111.60	0.72	146	1	2	60	mem	lib	mod	mod	low	tg	ht	wh/0514.bmp
112.32	0.72	147	1	3	75	per	lib	mod	mod	mod	tg	ht	wh/0841.bmp
113.04	0.72	148	2	3	40	mem	con	mod	mod	mod	nt	ht	nh/0679_nh.bmp
113.76	0.72	149	2	3	75	per	lib	mod	mod	mod	tg	ht	wh/0841.bmp
114.48	0.72	150	1	3	9	per	con	low	mod	low	tg	ms	wh/0027.bmp
115.20	0.72	151	2	4	93	mem	lib	mod	mod	mod	nt	ht	nh/0017_nh.bmp
115.92	0.72	152	2	2	118	per	lib	low	mod	low	tg	ms	wh/0377.bmp
116.64	0.72	153	2	2	70	per	lib	mod	mod	mod	tg	ht	wh/0935.bmp
117.36	0.72	154	2	2	48	mem	con	mod	mod	mod	nt	ht	nh/0289_nh.bmp
118.08	0.72	155	2	4	41	per	con	mod	mod	mod	tg	ms	wh/0526.bmp
118.80	0.72	156	2	1	126	mem	con	mod	mod	low	tg	ht	wh/0836.bmp
119.52	0.72	157	3	4	93	mem	lib	mod	mod	mod	nt	ht	nh/0017_nh.bmp
120.24	0.72	158	3	2	57	mem	lib	mod	mod	low	nt	ht	nh/0745_nh.bmp
120.96	0.72	159	3	1	75	mem	lib	mod	mod	mod	tg	ht	wh/0681.bmp
121.68	0.72	160	1	2	15	mem	con	low	low	low	tg	ht	wh/0122.bmp
122.40	0.72	161	1	3	2	per	con	low	mod	low	nt	cr	nh/0649_nh.bmp
123.12	0.72	162	1	2	126	per	lib	low	mod	low	nt	cr	nh/0529_nh.bmp
123.84	0.72	163	2	3	73	per	lib	mod	mod	mod	nt	fa	nh/0698_nh.bmp
124.56	0.72	164	2	2	124	per	lib	low	mod	low	tg	ms	wh/0597.bmp
125.28	0.72	165	3	1	13	per	con	mod	mod	mod	tg	ms	wh/0919.bmp
126.00	0.72	166	1	4	20	per	lib	mod	low	mod	nt	fa	nh/0324_nh.bmp
126.72	0.72	167	2	4	61	per	lib	low	mod	low	tg	ht	wh/0392.bmp
127.44	0.72	168	2	1	2	per	con	mod	mod	mod	nt	cr	nh/0287_nh.bmp
128.16	0.72	169	2	3	8	per	con	low	mod	low	tg	ms	wh/0040.bmp
128.88	0.72	170	1	3	46	mem	con	mod	mod	mod	tg	ms	wh/0183.bmp
129.60	0.72	171	1	4	52	per	lib	low	mod	low	tg	ht	wh/0031.bmp
130.32	0.72	172	2	3	1	per	con	low	mod	low	nt	cr	nh/0014_nh.bmp
131.04	0.72	173	2	1	14	per	con	mod	mod	mod	nt	fa	nh/0580_nh.bmp
131.76	0.72	174	2	4	44	per	con	mod	mod	mod	nt	cr	nh/0879_nh.bmp
132.48	0.72	175	1	4	89	mem	lib	mod	mod	mod	nt	ht	nh/0959_nh.bmp
133.20	0.72	176	2	2	115	per	lib	low	mod	low	nt	cr	nh/0816_nh.bmp
133.92	0.72	177	2	2	76	per	lib	mod	mod	mod	nt	cr	nh/0001_nh.bmp
134.64	0.72	178	2	3	37	mem	con	mod	mod	mod	tg	ht	wh/0100.bmp
135.36	0.72	179	3	1	123	mem	con	mod	mod	low	nt	ht	nh/0573_nh.bmp
136.08	0.72	180	2	3	36	mem	con	mod	mod	mod	tg	ht	wh/0473.bmp
136.80	0.72	181	2	1	71	mem	lib	mod	mod	mod	tg	ht	wh/0981.bmp
137.52	0.72	182	2	4	85	mem	lib	mod	mod	mod	nt	ht	nh/0975_nh.bmp
138.24	0.72	183	2	4	35	per	con	mod	mod	mod	nt	cr	nh/0600_nh.bmp
138.96	0.72	184	3	2	33	mem	con	mod	mod	mod	tg	ms	wh/0627.bmp
139.68	0.72	185	3	2	37	mem	con	mod	mod	mod	tg	ht	wh/0098.bmp
140.40	0.72	186	3	3	8	per	con	low	mod	low	tg	ms	wh/0040.bmp
141.12	0.72	187	3	2	41	mem	con	mod	mod	mod	tg	ht	wh/0692.bmp
141.84	0.72	188	4	1	31	per	con	low	mod	low	tg	ms	wh/0739.bmp
142.56	0.72	189	1	3	96	mem	con	low	low	mod	tg	ht	wh/0449.bmp
143.28	0.72	190	1	1	69	mem	lib	mod	mod	mod	nt	ht	nh/0605_nh.bmp
144.00	0.72	191	1	3	21	mem	lib	mod	mod	low	tg	ht	wh/0455.bmp
144.72	0.72	192	1	2	101	mem	lib	low	low	low	nt	ms	nh/0065_nh.bmp
145.44	0.72	193	2	4	63	per	lib	low	mod	low	nt	fa	nh/0435_nh.bmp
146.16	0.72	194	1	3	113	per	lib	low	low	low	nt	fa	nh/0499_nh.bmp
146.88	0.72	195	1	3	14	per	con	low	mod	low	nt	cr	nh/0926_nh.bmp
147.60	0.72	196	1	4	73	mem	lib	low	low	low	nt	ht	nh/0126_nh.bmp
148.32	0.72	197	1	2	123	per	lib	low	mod	low	tg	ht	wh/0997.bmp
149.04	0.72	198	3	4	53	per	lib	low	mod	low	nt	fa	nh/0155_nh.bmp
149.76	0.72	199	1	3	127	per	lib	low	low	low	nt	cr	nh/0651_nh.bmp
150.48	0.72	200	4	1	24	per	con	low	mod	low	nt	cr	nh/0341_nh.bmp
151.20	0.72	201	3	4	81	mem	lib	mod	mod	mod	tg	ht	wh/0189.bmp
151.92	0.72	202	3	3	75	per	lib	mod	mod	mod	tg	ht	wh/0841.bmp
152.64	0.72	203	5	1	24	per	con	low	mod	low	nt	cr	nh/0341_nh.bmp
153.36	0.72	204	3	3	36	mem	con	mod	mod	mod	tg	ht	wh/0473.bmp
154.08	0.72	205	3	4	61	per	lib	low	mod	low	tg	ht	wh/0392.bmp
154.80	0.72	206	2	1	10	per	con	mod	mod	mod	tg	ms	wh/0857.bmp
155.52	0.72	207	1	2	71	per	lib	mod	mod	mod	nt	cr	nh/0955_nh.bmp
156.24	0.72	208	2	2	40	mem	con	mod	mod	mod	nt	ht	nh/0658_nh.bmp
156.96	0.72	209	3	2	63	mem	lib	mod	mod	low	tg	ht	wh/0231.bmp
157.68	0.72	210	3	2	115	per	lib	low	mod	low	nt	cr	nh/0816_nh.bmp
158.40	0.72	211	1	1	127	mem	con	mod	mod	low	tg	ht	wh/0624.bmp
159.12	0.72	212	1	2	13	mem	con	low	low	low	nt	ht	nh/0654_nh.bmp
159.84	0.72	213	3	1	76	mem	lib	mod	mod	mod	nt	ht	nh/0801_nh.bmp
160.56	0.72	214	1	4	69	mem	lib	low	low	low	tg	ht	wh/0656.bmp
161.28	0.72	215	2	3	79	per	lib	mod	mod	mod	nt	cr	nh/0463_nh.bmp
162.00	0.72	216	2	1	127	mem	con	mod	mod	low	tg	ht	wh/0624.bmp
162.72	0.72	217	4	2	41	mem	con	mod	mod	mod	tg	ht	wh/0692.bmp
163.44	0.72	218	2	4	10	mem	con	mod	mod	low	tg	ht	wh/0265.bmp
164.16	0.72	219	2	2	44	mem	con	mod	mod	mod	nt	ht	nh/0621_nh.bmp
164.88	0.72	220	1	1	94	mem	lib	low	low	mod	tg	ht	wh/0906.bmp
165.60	0.72	221	3	2	69	per	lib	mod	mod	mod	nt	cr	nh/0700_nh.bmp
166.32	0.72	222	1	4	58	per	lib	low	mod	low	tg	ms	wh/0163.bmp
167.04	0.72	223	1	3	12	per	con	low	mod	low	nt	cr	nh/0178_nh.bmp
167.76	0.72	224	1	2	89	per	con	low	low	low	tg	ms	wh/0057.bmp
168.48	0.72	225	1	1	18	per	con	low	mod	low	nt	cr	nh/0421_nh.bmp
169.20	0.72	226	2	3	24	mem	lib	mod	mod	low	nt	ht	nh/0116_nh.bmp
169.92	0.72	227	4	1	125	mem	con	mod	mod	low	nt	ht	nh/0472_nh.bmp
170.64	0.72	228	3	3	39	mem	con	mod	mod	mod	nt	ht	nh/0637_nh.bmp
171.36	0.72	229	1	4	91	mem	lib	mod	mod	mod	tg	ht	wh/0405.bmp
172.08	0.72	230	1	1	120	mem	con	mod	mod	low	tg	ht	wh/0233.bmp
172.80	0.72	231	4	3	22	mem	lib	mod	mod	low	nt	ht	nh/0727_nh.bmp
173.52	0.72	232	1	1	73	mem	lib	mod	mod	mod	tg	ms	wh/0466.bmp
174.24	0.72	233	3	1	3	per	con	mod	mod	mod	tg	ms	wh/0070.bmp
174.96	0.72	234	3	2	40	mem	con	mod	mod	mod	nt	ht	nh/0658_nh.bmp
175.68	0.72	235	2	1	12	per	con	mod	mod	mod	tg	ms	wh/0938.bmp
176.40	0.72	236	3	4	10	mem	con	mod	mod	low	tg	ht	wh/0265.bmp
177.12	0.72	237	3	1	2	per	con	mod	mod	mod	nt	cr	nh/0287_nh.bmp
177.84	0.72	238	1	1	59	per	lib	low	low	low	tg	ms	wh/0362.bmp
178.56	0.72	239	1	3	49	mem	lib	low	low	mod	tg	ht	wh/0149.bmp
179.28	0.72	240	4	2	69	per	lib	mod	mod	mod	nt	cr	nh/0700_nh.bmp
180.00	0.72	241	4	4	45	per	con	mod	mod	mod	tg	ht	wh/0002.bmp
180.72	0.72	242	2	4	52	per	lib	low	mod	low	tg	ht	wh/0031.bmp
181.44	0.72	243	1	1	25	per	con	low	mod	low	nt	cr	nh/0733_nh.bmp
182.16	0.72	244	2	3	17	mem	lib	mod	mod	low	tg	ht	wh/0205.bmp
182.88	0.72	245	3	3	24	mem	lib	mod	mod	low	nt	ht	nh/0116_nh.bmp
183.60	0.72	246	4	1	76	mem	lib	mod	mod	mod	nt	ht	nh/0801_nh.bmp
184.32	0.72	247	3	2	124	per	lib	low	mod	low	tg	ms	wh/0597.bmp
185.04	0.72	248	1	4	37	per	con	mod	mod	mod	nt	cr	nh/0162_nh.bmp
185.76	0.72	249	2	3	7	per	con	low	mod	low	tg	ms	wh/0115.bmp
186.48	0.72	250	1	4	1	mem	con	mod	mod	low	nt	ms	nh/0298_nh.bmp
187.20	0.72	251	4	2	124	per	lib	low	mod	low	tg	ms	wh/0597.bmp
187.92	0.72	252	1	4	125	mem	con	low	low	low	nt	ms	nh/0432_nh.bmp
188.64	0.72	253	2	4	58	per	lib	low	mod	low	tg	ms	wh/0163.bmp
189.36	0.72	254	1	2	65	per	lib	mod	mod	mod	tg	ht	wh/0896.bmp
190.08	0.72	255	1	2	109	mem	lib	low	low	low	tg	ht	wh/0889.bmp
190.80	0.72	256	1	2	20	per	con	mod	low	mod	tg	ht	wh/0541.bmp
191.52	0.72	257	1	3	87	mem	con	low	low	mod	tg	ms	wh/0228.bmp
192.24	0.72	258	2	2	71	per	lib	mod	mod	mod	nt	cr	nh/0955_nh.bmp
192.96	0.72	259	1	3	72	per	lib	mod	mod	mod	tg	ht	wh/0204.bmp
193.68	0.72	260	3	4	94	mem	lib	mod	mod	mod	nt	ht	nh/0393_nh.bmp
194.40	0.72	261	3	3	17	mem	lib	mod	mod	low	tg	ht	wh/0205.bmp
195.12	0.72	262	4	2	63	mem	lib	mod	mod	low	tg	ht	wh/0231.bmp
195.84	0.72	263	1	2	34	mem	con	mod	mod	mod	nt	ht	nh/0899_nh.bmp
196.56	0.72	264	1	3	5	per	con	low	mod	low	tg	ms	wh/0741.bmp
197.28	0.72	265	2	4	1	mem	con	mod	mod	low	nt	ms	nh/0298_nh.bmp
198.00	0.72	266	2	1	69	mem	lib	mod	mod	mod	nt	ht	nh/0605_nh.bmp
198.72	0.72	267	2	2	53	mem	lib	mod	mod	low	nt	ht	nh/0387_nh.bmp
199.44	0.72	268	2	2	80	per	lib	mod	mod	mod	nt	cr	nh/0425_nh.bmp
200.16	0.72	269	3	1	69	mem	lib	mod	mod	mod	nt	ht	nh/0605_nh.bmp
200.88	0.72	270	2	4	5	mem	con	mod	mod	low	tg	ht	wh/0648.bmp
201.60	0.72	271	1	3	91	mem	con	low	low	mod	tg	ms	wh/0829.bmp
202.32	0.72	272	2	4	89	mem	lib	mod	mod	mod	nt	ht	nh/0959_nh.bmp
203.04	0.72	273	1	1	43	mem	con	low	low	mod	tg	ms	wh/0898.bmp
203.76	0.72	274	3	1	12	per	con	mod	mod	mod	tg	ms	wh/0938.bmp
204.48	0.72	275	1	4	122	mem	con	low	low	low	nt	ms	nh/0006_nh.bmp
205.20	0.72	276	2	4	49	per	lib	low	mod	low	tg	ht	wh/0353.bmp
205.92	0.72	277	2	3	2	per	con	low	mod	low	nt	cr	nh/0649_nh.bmp
206.64	0.72	278	2	3	21	mem	lib	mod	mod	low	tg	ht	wh/0455.bmp
207.36	0.72	279	1	1	62	per	lib	low	low	low	tg	ms	wh/0054.bmp
208.08	0.72	280	3	3	7	per	con	low	mod	low	tg	ms	wh/0115.bmp
208.80	0.72	281	4	3	7	per	con	low	mod	low	tg	ms	wh/0115.bmp
209.52	0.72	282	1	4	70	mem	lib	low	low	low	tg	ht	wh/0817.bmp
210.24	0.72	283	1	3	92	mem	con	low	low	mod	nt	ms	nh/0406_nh.bmp
210.96	0.72	284	1	4	28	per	lib	mod	low	mod	nt	cr	nh/0551_nh.bmp
211.68	0.72	285	3	4	1	mem	con	mod	mod	low	nt	ms	nh/0298_nh.bmp
212.40	0.72	286	1	2	26	per	con	mod	low	mod	nt	cr	nh/0501_nh.bmp
213.12	0.72	287	2	3	46	mem	con	mod	mod	mod	tg	ms	wh/0183.bmp
213.84	0.72	288	2	2	65	per	lib	mod	mod	mod	tg	ht	wh/0896.bmp
214.56	0.72	289	2	3	72	per	lib	mod	mod	mod	tg	ht	wh/0204.bmp
215.28	0.72	290	3	4	49	per	lib	low	mod	low	tg	ht	wh/0353.bmp
216.00	0.72	291	3	3	37	mem	con	mod	mod	mod	tg	ht	wh/0100.bmp
216.72	0.72	292	3	1	14	per	con	mod	mod	mod	nt	fa	nh/0580_nh.bmp
217.44	0.72	293	4	2	57	mem	lib	mod	mod	low	nt	ht	nh/0745_nh.bmp
218.16	0.72	294	1	3	103	per	con	mod	low	mod	tg	ht	wh/0322.bmp
218.88	0.72	295	4	3	36	mem	con	mod	mod	mod	tg	ht	wh/0473.bmp
219.60	0.72	296	3	4	85	mem	lib	mod	mod	mod	nt	ht	nh/0975_nh.bmp
220.32	0.72	297	2	1	77	mem	lib	mod	mod	mod	nt	ht	nh/0414_nh.bmp
221.04	0.72	298	1	4	15	mem	con	mod	mod	low	nt	ht	nh/0897_nh.bmp
221.76	0.72	299	1	1	50	per	lib	low	low	low	tg	ms	wh/0140.bmp
222.48	0.72	300	3	3	79	per	lib	mod	mod	mod	nt	cr	nh/0463_nh.bmp
223.20	0.72	301	3	1	5	per	con	mod	mod	mod	nt	cr	nh/0847_nh.bmp
223.92	0.72	302	4	2	115	per	lib	low	mod	low	nt	cr	nh/0816_nh.bmp
224.64	0.72	303	1	2	110	mem	lib	low	low	low	nt	ht	nh/0307_nh.bmp
225.36	0.72	304	1	4	60	per	lib	low	mod	low	nt	cr	nh/0515_nh.bmp
226.08	0.72	305	1	1	56	per	lib	low	low	low	tg	ht	wh/0685.bmp
226.80	0.72	306	2	4	15	mem	con	mod	mod	low	nt	ht	nh/0897_nh.bmp
227.52	0.72	307	3	1	22	per	con	low	mod	low	tg	ms	wh/0675.bmp
228.24	0.72	308	3	1	126	mem	con	mod	mod	low	tg	ht	wh/0836.bmp
228.96	0.72	309	5	2	115	per	lib	low	mod	low	nt	cr	nh/0816_nh.bmp
229.68	0.72	310	3	3	67	per	lib	mod	mod	mod	tg	ht	wh/0561.bmp
230.40	0.72	311	3	4	89	mem	lib	mod	mod	mod	nt	ht	nh/0959_nh.bmp
231.12	0.72	312	3	4	63	per	lib	low	mod	low	nt	fa	nh/0435_nh.bmp
231.84	0.72	313	4	4	81	mem	lib	mod	mod	mod	tg	ht	wh/0189.bmp
232.56	0.72	314	1	4	11	mem	con	mod	mod	low	nt	ms	nh/0704_nh.bmp
233.28	0.72	315	3	2	71	per	lib	mod	mod	mod	nt	cr	nh/0955_nh.bmp
234.00	0.72	316	3	2	62	mem	lib	mod	mod	low	tg	ht	wh/0145.bmp
234.72	0.72	317	3	1	71	mem	lib	mod	mod	mod	tg	ht	wh/0981.bmp
235.44	0.72	318	1	1	117	mem	con	mod	mod	low	nt	ms	nh/0853_nh.bmp
236.16	0.72	319	1	3	31	mem	lib	mod	mod	low	nt	ht	nh/0200_nh.bmp
236.88	0.72	320	3	4	88	mem	lib	mod	mod	mod	tg	ht	wh/0274.bmp
237.60	0.72	321	3	1	10	per	con	mod	mod	mod	tg	ms	wh/0857.bmp
238.32	0.72	322	1	4	12	mem	con	mod	mod	low	tg	ht	wh/0932.bmp
239.04	0.72	323	1	2	25	per	con	mod	low	mod	nt	cr	nh/0326_nh.bmp
239.76	0.72	324	2	4	9	mem	con	mod	mod	low	nt	ms	nh/0379_nh.bmp
240.48	0.72	325	1	3	53	mem	lib	low	low	mod	nt	ht	nh/0918_nh.bmp
241.20	0.72	326	2	1	80	mem	lib	mod	mod	mod	tg	ht	wh/0534.bmp
241.92	0.72	327	1	2	6	mem	con	low	low	low	tg	ms	wh/0777.bmp
242.64	0.72	328	1	3	74	per	lib	mod	mod	mod	nt	cr	nh/0785_nh.bmp
243.36	0.72	329	2	1	117	mem	con	mod	mod	low	nt	ms	nh/0853_nh.bmp
244.08	0.72	330	4	2	61	mem	lib	mod	mod	low	tg	ht	wh/0325.bmp
244.80	0.72	331	2	3	5	per	con	low	mod	low	tg	ms	wh/0741.bmp
245.52	0.72	332	3	2	70	per	lib	mod	mod	mod	tg	ht	wh/0935.bmp
246.24	0.72	333	1	1	53	per	lib	low	low	low	nt	cr	nh/0354_nh.bmp
246.96	0.72	334	5	1	76	mem	lib	mod	mod	mod	nt	ht	nh/0801_nh.bmp
247.68	0.72	335	1	4	50	per	lib	low	mod	low	nt	fa	nh/0133_nh.bmp
248.40	0.72	336	2	3	9	per	con	low	mod	low	tg	ms	wh/0027.bmp
249.12	0.72	337	3	2	80	per	lib	mod	mod	mod	nt	cr	nh/0425_nh.bmp
249.84	0.72	338	4	4	88	mem	lib	mod	mod	mod	tg	ht	wh/0274.bmp
250.56	0.72	339	3	2	116	per	lib	low	mod	low	nt	cr	nh/0066_nh.bmp
251.28	0.72	340	6	1	24	per	con	low	mod	low	nt	cr	nh/0341_nh.bmp
252.00	0.72	341	5	1	125	mem	con	mod	mod	low	nt	ht	nh/0472_nh.bmp
252.72	0.72	342	4	4	89	mem	lib	mod	mod	mod	nt	ht	nh/0959_nh.bmp
253.44	0.72	343	4	4	1	mem	con	mod	mod	low	nt	ms	nh/0298_nh.bmp
254.16	0.72	344	4	3	47	mem	con	mod	mod	mod	tg	ht	wh/0750.bmp
254.88	0.72	345	5	2	57	mem	lib	mod	mod	low	nt	ht	nh/0745_nh.bmp
255.60	0.72	346	4	1	12	per	con	mod	mod	mod	tg	ms	wh/0938.bmp
256.32	0.72	347	4	3	75	per	lib	mod	mod	mod	tg	ht	wh/0841.bmp
257.04	0.72	348	4	4	61	per	lib	low	mod	low	tg	ht	wh/0392.bmp
257.76	0.72	349	4	3	79	per	lib	mod	mod	mod	nt	cr	nh/0463_nh.bmp
258.48	0.72	350	5	3	36	mem	con	mod	mod	mod	tg	ht	wh/0473.bmp
259.20	0.72	351	2	1	73	mem	lib	mod	mod	mod	tg	ms	wh/0466.bmp
259.92	0.72	352	2	2	34	mem	con	mod	mod	mod	nt	ht	nh/0899_nh.bmp
260.64	0.72	353	3	2	65	per	lib	mod	mod	mod	tg	ht	wh/0896.bmp
261.36	0.72	354	5	4	61	per	lib	low	mod	low	tg	ht	wh/0392.bmp
262.08	0.72	355	2	4	38	per	con	mod	mod	mod	tg	ms	wh/0920.bmp
262.80	0.72	356	4	4	85	mem	lib	mod	mod	mod	nt	ht	nh/0975_nh.bmp
263.52	0.72	357	3	1	115	mem	con	mod	mod	low	tg	ht	wh/0251.bmp
264.24	0.72	358	5	2	61	mem	lib	mod	mod	low	tg	ht	wh/0325.bmp
264.96	0.72	359	2	3	14	per	con	low	mod	low	nt	cr	nh/0926_nh.bmp
265.68	0.72	360	1	2	75	per	lib	mod	mod	mod	tg	ms	wh/0984.bmp
266.40	0.72	361	3	2	44	mem	con	mod	mod	mod	nt	ht	nh/0621_nh.bmp
267.12	0.72	362	1	4	121	mem	con	low	low	low	tg	ht	wh/0533.bmp
267.84	0.72	363	1	3	63	mem	lib	low	low	mod	tg	ms	wh/0922.bmp
268.56	0.72	364	1	4	126	mem	con	low	low	low	tg	ms	wh/0790.bmp
269.28	0.72	365	2	2	126	per	lib	low	mod	low	nt	cr	nh/0529_nh.bmp
270.00	0.72	366	1	1	83	mem	lib	low	low	mod	nt	ms	nh/0288_nh.bmp
270.72	0.72	367	3	3	2	per	con	low	mod	low	nt	cr	nh/0649_nh.bmp
271.44	0.72	368	4	1	5	per	con	mod	mod	mod	nt	cr	nh/0847_nh.bmp
272.16	0.72	369	1	1	17	per	con	low	mod	low	tg	ms	wh/0217.bmp
272.88	0.72	370	2	3	30	mem	lib	mod	mod	low	nt	ht	nh/1021_nh.bmp
273.60	0.72	371	2	3	48	mem	con	mod	mod	mod	nt	ht	nh/0942_nh.bmp
274.32	0.72	372	2	1	18	per	con	low	mod	low	nt	cr	nh/0421_nh.bmp
275.04	0.72	373	3	2	117	per	lib	low	mod	low	tg	ht	wh/0019.bmp
275.76	0.72	374	1	4	113	mem	con	low	low	low	nt	ms	nh/0015_nh.bmp
276.48	0.72	375	2	4	37	per	con	mod	mod	mod	nt	cr	nh/0162_nh.bmp
277.20	0.72	376	4	1	10	per	con	mod	mod	mod	tg	ms	wh/0857.bmp
277.92	0.72	377	5	4	85	mem	lib	mod	mod	mod	nt	ht	nh/0975_nh.bmp
278.64	0.72	378	3	2	48	mem	con	mod	mod	mod	nt	ht	nh/0289_nh.bmp
279.36	0.72	379	3	1	67	mem	lib	mod	mod	mod	nt	ht	nh/0391_nh.bmp
280.08	0.72	380	1	4	99	per	con	low	low	low	tg	ht	wh/0159.bmp
280.80	0.72	381	3	2	50	mem	lib	mod	mod	low	nt	ht	nh/0766_nh.bmp
281.52	0.72	382	2	4	12	mem	con	mod	mod	low	tg	ht	wh/0932.bmp
282.24	0.72	383	2	4	91	mem	lib	mod	mod	mod	tg	ht	wh/0405.bmp
282.96	0.72	384	1	1	30	per	con	low	mod	low	tg	ms	wh/0177.bmp
283.68	0.72	385	1	4	17	per	lib	mod	low	mod	nt	fa	nh/0087_nh.bmp
284.40	0.72	386	1	2	24	per	con	mod	low	mod	tg	ht	wh/0977.bmp
285.12	0.72	387	3	3	14	per	con	low	mod	low	nt	cr	nh/0926_nh.bmp
285.84	0.72	388	1	4	72	mem	lib	low	low	low	tg	ht	wh/1022.bmp
286.56	0.72	389	4	3	67	per	lib	mod	mod	mod	tg	ht	wh/0561.bmp
287.28	0.72	390	1	3	78	per	lib	mod	mod	mod	tg	ht	wh/0585.bmp
288.00	0.72	391	3	3	1	per	con	low	mod	low	nt	cr	nh/0014_nh.bmp
288.72	0.72	392	3	4	91	mem	lib	mod	mod	mod	tg	ht	wh/0405.bmp
289.44	0.72	393	4	3	39	mem	con	mod	mod	mod	nt	ht	nh/0637_nh.bmp
290.16	0.72	394	1	2	84	per	con	low	low	low	tg	ht	wh/0682.bmp
290.88	0.72	395	1	4	31	per	lib	mod	low	mod	tg	ht	wh/0553.bmp
291.60	0.72	396	5	3	75	per	lib	mod	mod	mod	tg	ht	wh/0841.bmp
292.32	0.72	397	5	1	12	per	con	mod	mod	mod	tg	ms	wh/0938.bmp
293.04	0.72	398	3	3	72	per	lib	mod	mod	mod	tg	ht	wh/0204.bmp
293.76	0.72	399	5	2	63	mem	lib	mod	mod	low	tg	ht	wh/0231.bmp
294.48	0.72	400	4	4	49	per	lib	low	mod	low	tg	ht	wh/0353.bmp
295.20	0.72	401	3	3	73	per	lib	mod	mod	mod	nt	fa	nh/0698_nh.bmp
295.92	0.72	402	4	2	33	mem	con	mod	mod	mod	tg	ms	wh/0627.bmp
296.64	0.72	403	2	2	75	per	lib	mod	mod	mod	tg	ms	wh/0984.bmp
297.36	0.72	404	1	1	95	mem	lib	low	low	mod	nt	ht	nh/0103_nh.bmp
298.08	0.72	405	4	4	10	mem	con	mod	mod	low	tg	ht	wh/0265.bmp
298.80	0.72	406	4	2	116	per	lib	low	mod	low	nt	cr	nh/0066_nh.bmp
299.52	0.72	407	2	3	74	per	lib	mod	mod	mod	nt	cr	nh/0785_nh.bmp
300.24	0.72	408	3	3	74	per	lib	mod	mod	mod	nt	cr	nh/0785_nh.bmp
300.96	0.72	409	6	1	12	per	con	mod	mod	mod	tg	ms	wh/0938.bmp
301.68	0.72	410	4	3	65	per	lib	mod	mod	mod	nt	cr	nh/0965_nh.bmp
302.40	0.72	411	3	4	37	per	con	mod	mod	mod	nt	cr	nh/0162_nh.bmp
303.12	0.72	412	4	4	94	mem	lib	mod	mod	mod	nt	ht	nh/0393_nh.bmp
303.84	0.72	413	2	1	120	mem	con	mod	mod	low	tg	ht	wh/0233.bmp
304.56	0.72	414	1	3	97	per	con	mod	low	mod	nt	fa	nh/0272_nh.bmp
305.28	0.72	415	4	1	75	mem	lib	mod	mod	mod	tg	ht	wh/0681.bmp
306.00	0.72	416	4	2	40	mem	con	mod	mod	mod	nt	ht	nh/0658_nh.bmp
306.72	0.72	417	2	4	50	per	lib	low	mod	low	nt	fa	nh/0133_nh.bmp
307.44	0.72	418	2	3	12	per	con	low	mod	low	nt	cr	nh/0178_nh.bmp
308.16	0.72	419	3	1	117	mem	con	mod	mod	low	nt	ms	nh/0853_nh.bmp
308.88	0.72	420	3	4	52	per	lib	low	mod	low	tg	ht	wh/0031.bmp
309.60	0.72	421	4	1	69	mem	lib	mod	mod	mod	nt	ht	nh/0605_nh.bmp
310.32	0.72	422	1	4	123	mem	con	low	low	low	tg	ms	wh/0076.bmp
311.04	0.72	423	3	3	5	per	con	low	mod	low	tg	ms	wh/0741.bmp
311.76	0.72	424	3	2	34	mem	con	mod	mod	mod	nt	ht	nh/0899_nh.bmp
312.48	0.72	425	3	2	126	per	lib	low	mod	low	nt	cr	nh/0529_nh.bmp
313.20	0.72	426	2	3	27	mem	lib	mod	mod	low	tg	ht	wh/0755.bmp
313.92	0.72	427	3	3	48	mem	con	mod	mod	mod	nt	ht	nh/0942_nh.bmp
314.64	0.72	428	3	4	9	mem	con	mod	mod	low	nt	ms	nh/0379_nh.bmp
315.36	0.72	429	2	1	30	per	con	low	mod	low	tg	ms	wh/0177.bmp
316.08	0.72	430	4	3	74	per	lib	mod	mod	mod	nt	cr	nh/0785_nh.bmp
316.80	0.72	431	5	1	75	mem	lib	mod	mod	mod	tg	ht	wh/0681.bmp
317.52	0.72	432	5	2	124	per	lib	low	mod	low	tg	ms	wh/0597.bmp
318.24	0.72	433	1	3	126	per	lib	low	low	low	nt	cr	nh/0152_nh.bmp
318.96	0.72	434	1	3	38	mem	con	mod	mod	mod	nt	ms	nh/0884_nh.bmp
319.68	0.72	435	3	3	40	mem	con	mod	mod	mod	nt	ht	nh/0679_nh.bmp
320.40	0.72	436	3	1	18	per	con	low	mod	low	nt	cr	nh/0421_nh.bmp
321.12	0.72	437	1	2	49	mem	lib	mod	mod	low	nt	ht	nh/0156_nh.bmp
321.84	0.72	438	2	3	38	mem	con	mod	mod	mod	nt	ms	nh/0884_nh.bmp
322.56	0.72	439	4	1	14	per	con	mod	mod	mod	nt	fa	nh/0580_nh.bmp
323.28	0.72	440	3	3	9	per	con	low	mod	low	tg	ms	wh/0027.bmp
324.00	0.72	441	1	2	2	mem	con	low	low	low	tg	ht	wh/0662.bmp
324.72	0.72	442	4	1	123	mem	con	mod	mod	low	nt	ht	nh/0573_nh.bmp
325.44	0.72	443	1	1	109	per	lib	mod	low	mod	tg	ms	wh/0712.bmp
326.16	0.72	444	5	4	88	mem	lib	mod	mod	mod	tg	ht	wh/0274.bmp
326.88	0.72	445	5	2	40	mem	con	mod	mod	mod	nt	ht	nh/0658_nh.bmp
327.60	0.72	446	4	2	65	per	lib	mod	mod	mod	tg	ht	wh/0896.bmp
328.32	0.72	447	4	4	53	per	lib	low	mod	low	nt	fa	nh/0155_nh.bmp
329.04	0.72	448	1	4	84	mem	lib	mod	mod	mod	tg	ht	wh/0775.bmp
329.76	0.72	449	1	4	22	per	lib	mod	low	mod	tg	ms	wh/0752.bmp
330.48	0.72	450	4	3	40	mem	con	mod	mod	mod	nt	ht	nh/0679_nh.bmp
331.20	0.72	451	4	3	48	mem	con	mod	mod	mod	nt	ht	nh/0942_nh.bmp
331.92	0.72	452	4	2	48	mem	con	mod	mod	mod	nt	ht	nh/0289_nh.bmp
332.64	0.72	453	4	4	52	per	lib	low	mod	low	tg	ht	wh/0031.bmp
333.36	0.72	454	4	2	70	per	lib	mod	mod	mod	tg	ht	wh/0935.bmp
334.08	0.72	455	3	4	58	per	lib	low	mod	low	tg	ms	wh/0163.bmp
334.80	0.72	456	5	1	5	per	con	mod	mod	mod	nt	cr	nh/0847_nh.bmp
335.52	0.72	457	2	2	49	mem	lib	mod	mod	low	nt	ht	nh/0156_nh.bmp
336.24	0.72	458	5	2	116	per	lib	low	mod	low	nt	cr	nh/0066_nh.bmp
336.96	0.72	459	4	4	47	per	con	mod	mod	mod	tg	ms	wh/0724.bmp
337.68	0.72	460	3	1	77	mem	lib	mod	mod	mod	nt	ht	nh/0414_nh.bmp
338.40	0.72	461	1	1	111	per	lib	mod	low	mod	tg	ht	wh/0740.bmp
339.12	0.72	462	4	3	17	mem	lib	mod	mod	low	tg	ht	wh/0205.bmp
339.84	0.72	463	3	3	30	mem	lib	mod	mod	low	nt	ht	nh/1021_nh.bmp
340.56	0.72	464	4	1	71	mem	lib	mod	mod	mod	tg	ht	wh/0981.bmp
341.28	0.72	465	3	1	73	mem	lib	mod	mod	mod	tg	ms	wh/0466.bmp
342.00	0.72	466	3	2	53	mem	lib	mod	mod	low	nt	ht	nh/0387_nh.bmp
342.72	0.72	467	2	2	60	mem	lib	mod	mod	low	tg	ht	wh/0514.bmp
343.44	0.72	468	2	4	11	mem	con	mod	mod	low	nt	ms	nh/0704_nh.bmp
344.16	0.72	469	4	2	117	per	lib	low	mod	low	tg	ht	wh/0019.bmp
344.88	0.72	470	4	1	115	mem	con	mod	mod	low	tg	ht	wh/0251.bmp
345.60	0.72	471	4	1	13	per	con	mod	mod	mod	tg	ms	wh/0919.bmp
346.32	0.72	472	3	1	80	mem	lib	mod	mod	mod	tg	ht	wh/0534.bmp
347.04	0.72	473	6	4	61	per	lib	low	mod	low	tg	ht	wh/0392.bmp
347.76	0.72	474	1	4	100	per	con	low	low	low	nt	cr	nh/0996_nh.bmp
348.48	0.72	475	3	1	4	per	con	mod	mod	mod	nt	cr	nh/0878_nh.bmp
349.20	0.72	476	1	3	55	mem	lib	low	low	mod	tg	ht	wh/0589.bmp
349.92	0.72	477	3	3	21	mem	lib	mod	mod	low	tg	ht	wh/0455.bmp
350.64	0.72	478	4	3	24	mem	lib	mod	mod	low	nt	ht	nh/0116_nh.bmp
351.36	0.72	479	5	4	47	per	con	mod	mod	mod	tg	ms	wh/0724.bmp
352.08	0.72	480	6	3	75	per	lib	mod	mod	mod	tg	ht	wh/0841.bmp
352.80	0.72	481	6	2	40	mem	con	mod	mod	mod	nt	ht	nh/0658_nh.bmp
353.52	0.72	482	3	3	12	per	con	low	mod	low	nt	cr	nh/0178_nh.bmp
354.24	0.72	483	2	2	123	per	lib	low	mod	low	tg	ht	wh/0997.bmp
354.96	0.72	484	2	3	31	mem	lib	mod	mod	low	nt	ht	nh/0200_nh.bmp
355.68	0.72	485	3	2	78	per	lib	mod	mod	mod	tg	ht	wh/0642.bmp
356.40	0.72	486	3	1	30	per	con	low	mod	low	tg	ms	wh/0177.bmp
357.12	0.72	487	1	1	49	per	lib	low	low	low	nt	fa	nh/0522_nh.bmp
357.84	0.72	488	1	3	125	per	lib	low	low	low	tg	ht	wh/0481.bmp
358.56	0.72	489	4	2	34	mem	con	mod	mod	mod	nt	ht	nh/0899_nh.bmp
359.28	0.72	490	4	3	21	mem	lib	mod	mod	low	tg	ht	wh/0455.bmp
360.00	0.72	491	1	4	21	per	lib	mod	low	mod	tg	ht	wh/0286.bmp
360.72	0.72	492	5	1	115	mem	con	mod	mod	low	tg	ht	wh/0251.bmp
361.44	0.72	493	3	2	118	per	lib	low	mod	low	tg	ms	wh/0377.bmp
362.16	0.72	494	1	2	39	mem	con	mod	mod	mod	tg	ht	wh/0429.bmp
362.88	0.72	495	6	3	36	mem	con	mod	mod	mod	tg	ht	wh/0473.bmp
363.60	0.72	496	1	2	113	per	lib	low	mod	low	nt	fa	nh/0128_nh.bmp
364.32	0.72	497	3	4	15	mem	con	mod	mod	low	nt	ht	nh/0897_nh.bmp
365.04	0.72	498	3	4	44	per	con	mod	mod	mod	nt	cr	nh/0879_nh.bmp
365.76	0.72	499	6	1	75	mem	lib	mod	mod	mod	tg	ht	wh/0681.bmp
366.48	0.72	500	2	1	25	per	con	low	mod	low	nt	cr	nh/0733_nh.bmp
367.20	0.72	501	5	3	79	per	lib	mod	mod	mod	nt	cr	nh/0463_nh.bmp
367.92	0.72	502	5	4	89	mem	lib	mod	mod	mod	nt	ht	nh/0959_nh.bmp
368.64	0.72	503	1	1	33	mem	con	low	low	mod	tg	n/a	wh/0725.bmp
369.36	0.72	504	1	2	88	per	con	low	low	low	nt	cr	nh/0142_nh.bmp
370.08	0.72	505	4	4	63	per	lib	low	mod	low	nt	fa	nh/0435_nh.bmp
370.80	0.72	506	4	4	58	per	lib	low	mod	low	tg	ms	wh/0163.bmp
371.52	0.72	507	1	2	95	per	con	low	low	low	nt	cr	nh/0862_nh.bmp
372.24	0.72	508	1	1	41	mem	con	low	low	mod	tg	ms	wh/0960.bmp
372.96	0.72	509	3	4	38	per	con	mod	mod	mod	tg	ms	wh/0920.bmp
373.68	0.72	510	4	3	12	per	con	low	mod	low	nt	cr	nh/0178_nh.bmp
374.40	0.72	511	2	1	17	per	con	low	mod	low	tg	ms	wh/0217.bmp
375.12	0.72	512	4	3	72	per	lib	mod	mod	mod	tg	ht	wh/0204.bmp
375.84	0.72	513	4	3	37	mem	con	mod	mod	mod	tg	ht	wh/0100.bmp
376.56	0.72	514	1	2	111	mem	lib	low	low	low	tg	ht	wh/0800.bmp
377.28	0.72	515	5	3	17	mem	lib	mod	mod	low	tg	ht	wh/0205.bmp
378.00	0.72	516	1	2	100	mem	lib	low	low	low	tg	ht	wh/0634.bmp
378.72	0.72	517	3	3	38	mem	con	mod	mod	mod	nt	ms	nh/0884_nh.bmp
379.44	0.72	518	4	4	15	mem	con	mod	mod	low	nt	ht	nh/0897_nh.bmp
380.16	0.72	519	2	2	39	mem	con	mod	mod	mod	tg	ht	wh/0429.bmp
380.88	0.72	520	3	3	46	mem	con	mod	mod	mod	tg	ms	wh/0183.bmp
381.60	0.72	521	4	3	2	per	con	low	mod	low	nt	cr	nh/0649_nh.bmp
382.32	0.72	522	4	2	62	mem	lib	mod	mod	low	tg	ht	wh/0145.bmp
383.04	0.72	523	5	3	47	mem	con	mod	mod	mod	tg	ht	wh/0750.bmp
383.76	0.72	524	2	4	60	per	lib	low	mod	low	nt	cr	nh/0515_nh.bmp
384.48	0.72	525	3	2	76	per	lib	mod	mod	mod	nt	cr	nh/0001_nh.bmp
385.20	0.72	526	1	4	98	per	con	low	low	low	nt	cr	nh/0747_nh.bmp
385.92	0.72	527	5	3	21	mem	lib	mod	mod	low	tg	ht	wh/0455.bmp
386.64	0.72	528	2	3	78	per	lib	mod	mod	mod	tg	ht	wh/0585.bmp
387.36	0.72	529	4	2	37	mem	con	mod	mod	mod	tg	ht	wh/0098.bmp
388.08	0.72	530	5	2	48	mem	con	mod	mod	mod	nt	ht	nh/0289_nh.bmp
388.80	0.72	531	5	4	15	mem	con	mod	mod	low	nt	ht	nh/0897_nh.bmp
389.52	0.72	532	3	4	50	per	lib	low	mod	low	nt	fa	nh/0133_nh.bmp
390.24	0.72	533	4	2	78	per	lib	mod	mod	mod	tg	ht	wh/0642.bmp
390.96	0.72	534	1	4	101	per	con	low	low	low	nt	cr	nh/0330_nh.bmp
391.68	0.72	535	2	1	114	mem	con	mod	mod	low	nt	ht	nh/0769_nh.bmp
392.40	0.72	536	4	3	38	mem	con	mod	mod	mod	nt	ms	nh/0884_nh.bmp
393.12	0.72	537	4	1	22	per	con	low	mod	low	tg	ms	wh/0675.bmp
393.84	0.72	538	4	1	3	per	con	mod	mod	mod	tg	ms	wh/0070.bmp
394.56	0.72	539	1	2	31	per	con	mod	low	mod	nt	cr	nh/0905_nh.bmp
395.28	0.72	540	5	3	24	mem	lib	mod	mod	low	nt	ht	nh/0116_nh.bmp
396.00	0.72	541	3	1	25	per	con	low	mod	low	nt	cr	nh/0733_nh.bmp
396.72	0.72	542	4	3	9	per	con	low	mod	low	tg	ms	wh/0027.bmp
397.44	0.72	543	5	3	37	mem	con	mod	mod	mod	tg	ht	wh/0100.bmp
398.16	0.72	544	4	1	73	mem	lib	mod	mod	mod	tg	ms	wh/0466.bmp
398.88	0.72	545	4	3	8	per	con	low	mod	low	tg	ms	wh/0040.bmp
399.60	0.72	546	1	1	29	per	con	low	mod	low	nt	cr	nh/0868_nh.bmp
400.32	0.72	547	4	4	91	mem	lib	mod	mod	mod	tg	ht	wh/0405.bmp
401.04	0.72	548	3	3	27	mem	lib	mod	mod	low	tg	ht	wh/0755.bmp
401.76	0.72	549	3	4	11	mem	con	mod	mod	low	nt	ms	nh/0704_nh.bmp
402.48	0.72	550	1	1	88	mem	lib	low	low	mod	nt	ht	nh/0311_nh.bmp
403.20	0.72	551	1	1	58	per	lib	low	low	low	nt	cr	nh/1001_nh.bmp
403.92	0.72	552	2	2	113	per	lib	low	mod	low	nt	fa	nh/0128_nh.bmp
404.64	0.72	553	4	4	37	per	con	mod	mod	mod	nt	cr	nh/0162_nh.bmp
405.36	0.72	554	1	3	111	per	con	mod	low	mod	tg	ht	wh/0974.bmp
406.08	0.72	555	5	1	14	per	con	mod	mod	mod	nt	fa	nh/0580_nh.bmp
406.80	0.72	556	5	2	62	mem	lib	mod	mod	low	tg	ht	wh/0145.bmp
407.52	0.72	557	1	1	89	mem	lib	low	low	mod	tg	ht	wh/0083.bmp
408.24	0.72	558	4	3	46	mem	con	mod	mod	mod	tg	ms	wh/0183.bmp
408.96	0.72	559	4	2	53	mem	lib	mod	mod	low	nt	ht	nh/0387_nh.bmp
409.68	0.72	560	4	1	18	per	con	low	mod	low	nt	cr	nh/0421_nh.bmp
410.40	0.72	561	4	4	44	per	con	mod	mod	mod	nt	cr	nh/0879_nh.bmp
411.12	0.72	562	5	4	91	mem	lib	mod	mod	mod	tg	ht	wh/0405.bmp
411.84	0.72	563	5	1	69	mem	lib	mod	mod	mod	nt	ht	nh/0605_nh.bmp
412.56	0.72	564	4	3	14	per	con	low	mod	low	nt	cr	nh/0926_nh.bmp
413.28	0.72	565	4	4	93	mem	lib	mod	mod	mod	nt	ht	nh/0017_nh.bmp
414.00	0.72	566	4	4	9	mem	con	mod	mod	low	nt	ms	nh/0379_nh.bmp
414.72	0.72	567	3	2	60	mem	lib	mod	mod	low	tg	ht	wh/0514.bmp
415.44	0.72	568	1	3	83	mem	con	low	low	mod	nt	ms	nh/0550_nh.bmp
416.16	0.72	569	3	2	39	mem	con	mod	mod	mod	tg	ht	wh/0429.bmp
416.88	0.72	570	1	4	76	mem	lib	low	low	low	tg	ht	wh/0121.bmp
417.60	0.72	571	5	4	52	per	lib	low	mod	low	tg	ht	wh/0031.bmp
418.32	0.72	572	3	3	78	per	lib	mod	mod	mod	tg	ht	wh/0585.bmp
419.04	0.72	573	4	1	126	mem	con	mod	mod	low	tg	ht	wh/0836.bmp
419.76	0.72	574	4	4	50	per	lib	low	mod	low	nt	fa	nh/0133_nh.bmp
420.48	0.72	575	1	1	110	per	lib	mod	low	mod	nt	cr	nh/0702_nh.bmp
421.20	0.72	576	1	4	26	per	lib	mod	low	mod	tg	ht	wh/0296.bmp
421.92	0.72	577	5	3	46	mem	con	mod	mod	mod	tg	ms	wh/0183.bmp
422.64	0.72	578	1	1	34	mem	con	low	low	mod	nt	ms	nh/0047_nh.bmp
423.36	0.72	579	4	2	39	mem	con	mod	mod	mod	tg	ht	wh/0429.bmp
424.08	0.72	580	6	2	62	mem	lib	mod	mod	low	tg	ht	wh/0145.bmp
424.80	0.72	581	5	3	14	per	con	low	mod	low	nt	cr	nh/0926_nh.bmp
425.52	0.72	582	5	4	9	mem	con	mod	mod	low	nt	ms	nh/0379_nh.bmp
426.24	0.72	583	1	1	85	mem	lib	low	low	mod	tg	ht	wh/0873.bmp
426.96	0.72	584	4	2	126	per	lib	low	mod	low	nt	cr	nh/0529_nh.bmp
427.68	0.72	585	1	1	46	mem	con	low	low	mod	tg	ht	wh/0844.bmp
428.40	0.72	586	4	3	27	mem	lib	mod	mod	low	tg	ht	wh/0755.bmp
429.12	0.72	587	2	4	42	per	con	mod	mod	mod	nt	cr	nh/0596_nh.bmp
429.84	0.72	588	5	1	13	per	con	mod	mod	mod	tg	ms	wh/0919.bmp
430.56	0.72	589	5	3	7	per	con	low	mod	low	tg	ms	wh/0115.bmp
431.28	0.72	590	5	3	23	mem	lib	mod	mod	low	tg	ht	wh/0168.bmp
432.00	0.72	591	6	4	89	mem	lib	mod	mod	mod	nt	ht	nh/0959_nh.bmp
432.72	0.72	592	1	2	8	mem	con	low	low	low	tg	ht	wh/0788.bmp
433.44	0.72	593	4	2	50	mem	lib	mod	mod	low	nt	ht	nh/0766_nh.bmp
434.16	0.72	594	3	4	41	per	con	mod	mod	mod	tg	ms	wh/0526.bmp
434.88	0.72	595	4	2	76	per	lib	mod	mod	mod	nt	cr	nh/0001_nh.bmp
435.60	0.72	596	6	4	85	mem	lib	mod	mod	mod	nt	ht	nh/0975_nh.bmp
436.32	0.72	597	5	2	33	mem	con	mod	mod	mod	tg	ms	wh/0627.bmp
437.04	0.72	598	4	3	78	per	lib	mod	mod	mod	tg	ht	wh/0585.bmp
437.76	0.72	599	1	2	5	mem	con	low	low	low	nt	ms	nh/0722_nh.bmp
438.48	0.72	600	5	3	67	per	lib	mod	mod	mod	tg	ht	wh/0561.bmp
439.20	0.72	601	5	3	78	per	lib	mod	mod	mod	tg	ht	wh/0585.bmp
439.92	0.72	602	6	4	9	mem	con	mod	mod	low	nt	ms	nh/0379_nh.bmp
440.64	0.72	603	5	4	37	per	con	mod	mod	mod	nt	cr	nh/0162_nh.bmp
441.36	0.72	604	2	1	29	per	con	low	mod	low	nt	cr	nh/0868_nh.bmp
442.08	0.72	605	5	3	8	per	con	low	mod	low	tg	ms	wh/0040.bmp
442.80	0.72	606	5	4	45	per	con	mod	mod	mod	tg	ht	wh/0002.bmp
443.52	0.72	607	1	2	83	per	con	low	low	low	nt	cr	nh/0771_nh.bmp
444.24	0.72	608	5	2	50	mem	lib	mod	mod	low	nt	ht	nh/0766_nh.bmp
444.96	0.72	609	5	1	71	mem	lib	mod	mod	mod	tg	ht	wh/0981.bmp
445.68	0.72	610	4	4	8	mem	con	mod	mod	low	tg	ms	wh/0105.bmp
446.40	0.72	611	5	2	65	per	lib	mod	mod	mod	tg	ht	wh/0896.bmp
447.12	0.72	612	4	3	1	per	con	low	mod	low	nt	cr	nh/0014_nh.bmp
447.84	0.72	613	5	4	8	mem	con	mod	mod	low	tg	ms	wh/0105.bmp
448.56	0.72	614	4	2	71	per	lib	mod	mod	mod	nt	cr	nh/0955_nh.bmp
449.28	0.72	615	1	1	106	per	lib	mod	low	mod	nt	cr	nh/0601_nh.bmp
450.00	0.72	616	5	1	22	per	con	low	mod	low	tg	ms	wh/0675.bmp
450.72	0.72	617	5	3	40	mem	con	mod	mod	mod	nt	ht	nh/0679_nh.bmp
451.44	0.72	618	3	4	42	per	con	mod	mod	mod	nt	cr	nh/0596_nh.bmp
452.16	0.72	619	3	1	114	mem	con	mod	mod	low	nt	ht	nh/0769_nh.bmp
452.88	0.72	620	5	3	39	mem	con	mod	mod	mod	nt	ht	nh/0637_nh.bmp
453.60	0.72	621	4	4	42	per	con	mod	mod	mod	nt	cr	nh/0596_nh.bmp
454.32	0.72	622	6	1	22	per	con	low	mod	low	tg	ms	wh/0675.bmp
455.04	0.72	623	3	2	75	per	lib	mod	mod	mod	tg	ms	wh/0984.bmp
455.76	0.72	624	6	1	71	mem	lib	mod	mod	mod	tg	ht	wh/0981.bmp
456.48	0.72	625	5	2	53	mem	lib	mod	mod	low	nt	ht	nh/0387_nh.bmp
457.20	0.72	626	5	2	78	per	lib	mod	mod	mod	tg	ht	wh/0642.bmp
457.92	0.72	627	3	4	60	per	lib	low	mod	low	nt	cr	nh/0515_nh.bmp
458.64	0.72	628	6	3	17	mem	lib	mod	mod	low	tg	ht	wh/0205.bmp
459.36	0.72	629	1	3	101	per	con	mod	low	mod	tg	ht	wh/0476.bmp
460.08	0.72	630	6	3	67	per	lib	mod	mod	mod	tg	ht	wh/0561.bmp
460.80	0.72	631	6	2	115	per	lib	low	mod	low	nt	cr	nh/0816_nh.bmp
461.52	0.72	632	5	3	12	per	con	low	mod	low	nt	cr	nh/0178_nh.bmp
462.24	0.72	633	5	2	71	per	lib	mod	mod	mod	nt	cr	nh/0955_nh.bmp
462.96	0.72	634	6	2	50	mem	lib	mod	mod	low	nt	ht	nh/0766_nh.bmp
463.68	0.72	635	5	2	41	mem	con	mod	mod	mod	tg	ht	wh/0692.bmp
464.40	0.72	636	5	4	50	per	lib	low	mod	low	nt	fa	nh/0133_nh.bmp
465.12	0.72	637	5	3	74	per	lib	mod	mod	mod	nt	cr	nh/0785_nh.bmp
465.84	0.72	638	1	1	98	per	lib	mod	low	mod	tg	ht	wh/0866.bmp
466.56	0.72	639	5	2	34	mem	con	mod	mod	mod	nt	ht	nh/0899_nh.bmp
467.28	0.72	640	4	4	38	per	con	mod	mod	mod	tg	ms	wh/0920.bmp
468.00	0.72	641	6	1	13	per	con	mod	mod	mod	tg	ms	wh/0919.bmp
468.72	0.72	642	6	1	14	per	con	mod	mod	mod	nt	fa	nh/0580_nh.bmp
469.44	0.72	643	2	4	84	mem	lib	mod	mod	mod	tg	ht	wh/0775.bmp
470.16	0.72	644	1	1	112	per	lib	mod	low	mod	nt	cr	nh/0850_nh.bmp
470.88	0.72	645	5	3	72	per	lib	mod	mod	mod	tg	ht	wh/0204.bmp
471.60	0.72	646	3	4	5	mem	con	mod	mod	low	tg	ht	wh/0648.bmp
472.32	0.72	647	5	2	126	per	lib	low	mod	low	nt	cr	nh/0529_nh.bmp
473.04	0.72	648	5	1	123	mem	con	mod	mod	low	nt	ht	nh/0573_nh.bmp
473.76	0.72	649	1	3	88	mem	con	low	low	mod	nt	ht	nh/0910_nh.bmp
474.48	0.72	650	1	1	86	mem	lib	low	low	mod	nt	ms	nh/0367_nh.bmp
475.20	0.72	651	6	3	79	per	lib	mod	mod	mod	nt	cr	nh/0463_nh.bmp
475.92	0.72	652	1	3	119	per	lib	low	low	low	tg	ht	wh/0109.bmp
476.64	0.72	653	3	2	123	per	lib	low	mod	low	tg	ht	wh/0997.bmp
477.36	0.72	654	5	4	81	mem	lib	mod	mod	mod	tg	ht	wh/0189.bmp
478.08	0.72	655	3	4	84	mem	lib	mod	mod	mod	tg	ht	wh/0775.bmp
478.80	0.72	656	1	2	3	mem	con	low	low	low	nt	ht	nh/0257_nh.bmp
479.52	0.72	657	5	2	70	per	lib	mod	mod	mod	tg	ht	wh/0935.bmp
480.24	0.72	658	6	4	52	per	lib	low	mod	low	tg	ht	wh/0031.bmp
480.96	0.72	659	6	3	14	per	con	low	mod	low	nt	cr	nh/0926_nh.bmp
481.68	0.72	660	3	2	113	per	lib	low	mod	low	nt	fa	nh/0128_nh.bmp
482.40	0.72	661	5	4	93	mem	lib	mod	mod	mod	nt	ht	nh/0017_nh.bmp
483.12	0.72	662	5	4	42	per	con	mod	mod	mod	nt	cr	nh/0596_nh.bmp
483.84	0.72	663	4	2	75	per	lib	mod	mod	mod	tg	ms	wh/0984.bmp
484.56	0.72	664	5	3	2	per	con	low	mod	low	nt	cr	nh/0649_nh.bmp
485.28	0.72	665	1	4	112	per	con	low	low	low	tg	ms	wh/0979.bmp
486.00	0.72	666	5	4	94	mem	lib	mod	mod	mod	nt	ht	nh/0393_nh.bmp
486.72	0.72	667	1	3	107	per	con	mod	low	mod	nt	cr	nh/0321_nh.bmp
487.44	0.72	668	4	1	77	mem	lib	mod	mod	mod	nt	ht	nh/0414_nh.bmp
488.16	0.72	669	3	1	29	per	con	low	mod	low	nt	cr	nh/0868_nh.bmp
488.88	0.72	670	6	4	47	per	con	mod	mod	mod	tg	ms	wh/0724.bmp
489.60	0.72	671	6	3	72	per	lib	mod	mod	mod	tg	ht	wh/0204.bmp
490.32	0.72	672	6	2	41	mem	con	mod	mod	mod	tg	ht	wh/0692.bmp
491.04	0.72	673	1	1	45	mem	con	low	low	mod	nt	ms	nh/0235_nh.bmp
491.76	0.72	674	4	2	80	per	lib	mod	mod	mod	nt	cr	nh/0425_nh.bmp
492.48	0.72	675	4	1	67	mem	lib	mod	mod	mod	nt	ht	nh/0391_nh.bmp
493.20	0.72	676	3	3	31	mem	lib	mod	mod	low	nt	ht	nh/0200_nh.bmp
493.92	0.72	677	4	4	5	mem	con	mod	mod	low	tg	ht	wh/0648.bmp
494.64	0.72	678	6	2	53	mem	lib	mod	mod	low	nt	ht	nh/0387_nh.bmp
495.36	0.72	679	1	4	23	per	lib	mod	low	mod	nt	cr	nh/0659_nh.bmp
496.08	0.72	680	6	2	65	per	lib	mod	mod	mod	tg	ht	wh/0896.bmp
496.80	0.72	681	3	1	120	mem	con	mod	mod	low	tg	ht	wh/0233.bmp
497.52	0.72	682	4	1	25	per	con	low	mod	low	nt	cr	nh/0733_nh.bmp
498.24	0.72	683	6	2	70	per	lib	mod	mod	mod	tg	ht	wh/0935.bmp
498.96	0.72	684	6	4	88	mem	lib	mod	mod	mod	tg	ht	wh/0274.bmp
499.68	0.72	685	4	4	84	mem	lib	mod	mod	mod	tg	ht	wh/0775.bmp
500.40	0.72	686	1	4	75	mem	lib	low	low	low	nt	ht	nh/1012_nh.bmp
501.12	0.72	687	5	1	67	mem	lib	mod	mod	mod	nt	ht	nh/0391_nh.bmp
501.84	0.72	688	6	1	69	mem	lib	mod	mod	mod	nt	ht	nh/0605_nh.bmp
502.56	0.72	689	4	2	44	mem	con	mod	mod	mod	nt	ht	nh/0621_nh.bmp
503.28	0.72	690	6	4	15	mem	con	mod	mod	low	nt	ht	nh/0897_nh.bmp
504.00	0.72	691	5	1	3	per	con	mod	mod	mod	tg	ms	wh/0070.bmp
504.72	0.72	692	5	3	1	per	con	low	mod	low	nt	cr	nh/0014_nh.bmp
505.44	0.72	693	5	4	38	per	con	mod	mod	mod	tg	ms	wh/0920.bmp
506.16	0.72	694	5	4	49	per	lib	low	mod	low	tg	ht	wh/0353.bmp
506.88	0.72	695	4	1	80	mem	lib	mod	mod	mod	tg	ht	wh/0534.bmp
507.60	0.72	696	5	4	10	mem	con	mod	mod	low	tg	ht	wh/0265.bmp
508.32	0.72	697	6	2	61	mem	lib	mod	mod	low	tg	ht	wh/0325.bmp
509.04	0.72	698	5	1	80	mem	lib	mod	mod	mod	tg	ht	wh/0534.bmp
509.76	0.72	699	1	4	78	mem	lib	low	low	low	nt	ms	nh/0423_nh.bmp
510.48	0.72	700	5	1	73	mem	lib	mod	mod	mod	tg	ms	wh/0466.bmp
511.20	0.72	701	5	4	44	per	con	mod	mod	mod	nt	cr	nh/0879_nh.bmp
511.92	0.72	702	1	3	54	mem	lib	low	low	mod	nt	ht	nh/0218_nh.bmp
512.64	0.72	703	6	2	63	mem	lib	mod	mod	low	tg	ht	wh/0231.bmp
513.36	0.72	704	6	3	46	mem	con	mod	mod	mod	tg	ms	wh/0183.bmp
514.08	0.72	705	5	1	10	per	con	mod	mod	mod	tg	ms	wh/0857.bmp
514.80	0.72	706	4	4	41	per	con	mod	mod	mod	tg	ms	wh/0526.bmp
515.52	0.72	707	4	1	30	per	con	low	mod	low	tg	ms	wh/0177.bmp
516.24	0.72	708	5	1	18	per	con	low	mod	low	nt	cr	nh/0421_nh.bmp
516.96	0.72	709	5	3	9	per	con	low	mod	low	tg	ms	wh/0027.bmp
517.68	0.72	710	6	3	37	mem	con	mod	mod	mod	tg	ht	wh/0100.bmp
518.40	0.72	711	4	3	5	per	con	low	mod	low	tg	ms	wh/0741.bmp
519.12	0.72	712	4	2	60	mem	lib	mod	mod	low	tg	ht	wh/0514.bmp
519.84	0.72	713	5	3	38	mem	con	mod	mod	mod	nt	ms	nh/0884_nh.bmp
520.56	0.72	714	1	1	48	mem	con	low	low	mod	nt	ht	nh/0332_nh.bmp
521.28	0.72	715	4	1	117	mem	con	mod	mod	low	nt	ms	nh/0853_nh.bmp
522.00	0.72	716	1	1	47	mem	con	low	low	mod	nt	ms	nh/0687_nh.bmp
522.72	0.72	717	5	4	41	per	con	mod	mod	mod	tg	ms	wh/0526.bmp
523.44	0.72	718	3	2	49	mem	lib	mod	mod	low	nt	ht	nh/0156_nh.bmp
524.16	0.72	719	3	1	17	per	con	low	mod	low	tg	ms	wh/0217.bmp
524.88	0.72	720	4	3	31	mem	lib	mod	mod	low	nt	ht	nh/0200_nh.bmp
525.60	0.72	721	4	2	123	per	lib	low	mod	low	tg	ht	wh/0997.bmp
526.32	0.72	722	6	4	49	per	lib	low	mod	low	tg	ht	wh/0353.bmp
527.04	0.72	723	5	4	1	mem	con	mod	mod	low	nt	ms	nh/0298_nh.bmp
527.76	0.72	724	6	4	93	mem	lib	mod	mod	mod	nt	ht	nh/0017_nh.bmp
528.48	0.72	725	5	1	31	per	con	low	mod	low	tg	ms	wh/0739.bmp
529.20	0.72	726	6	1	3	per	con	mod	mod	mod	tg	ms	wh/0070.bmp
529.92	0.72	727	4	1	29	per	con	low	mod	low	nt	cr	nh/0868_nh.bmp
530.64	0.72	728	5	2	76	per	lib	mod	mod	mod	nt	cr	nh/0001_nh.bmp
531.36	0.72	729	5	2	69	per	lib	mod	mod	mod	nt	cr	nh/0700_nh.bmp
532.08	0.72	730	5	3	65	per	lib	mod	mod	mod	nt	cr	nh/0965_nh.bmp
532.80	0.72	731	5	3	5	per	con	low	mod	low	tg	ms	wh/0741.bmp
533.52	0.72	732	6	3	65	per	lib	mod	mod	mod	nt	cr	nh/0965_nh.bmp
534.24	0.72	733	1	1	93	mem	lib	low	low	mod	tg	ms	wh/0972.bmp
534.96	0.72	734	1	3	122	per	lib	low	low	low	tg	ms	wh/0411.bmp
535.68	0.72	735	5	2	60	mem	lib	mod	mod	low	tg	ht	wh/0514.bmp
536.40	0.72	736	1	3	59	mem	lib	low	low	mod	nt	n/a	nh/0856_nh.bmp
537.12	0.72	737	5	4	63	per	lib	low	mod	low	nt	fa	nh/0435_nh.bmp
537.84	0.72	738	6	4	10	mem	con	mod	mod	low	tg	ht	wh/0265.bmp
538.56	0.72	739	3	1	127	mem	con	mod	mod	low	tg	ht	wh/0624.bmp
539.28	0.72	740	6	3	2	per	con	low	mod	low	nt	cr	nh/0649_nh.bmp
540.00	0.72	741	6	4	1	mem	con	mod	mod	low	nt	ms	nh/0298_nh.bmp
540.72	0.72	742	6	4	38	per	con	mod	mod	mod	tg	ms	wh/0920.bmp
541.44	0.72	743	5	3	48	mem	con	mod	mod	mod	nt	ht	nh/0942_nh.bmp
542.16	0.72	744	5	1	117	mem	con	mod	mod	low	nt	ms	nh/0853_nh.bmp
542.88	0.72	745	5	4	84	mem	lib	mod	mod	mod	tg	ht	wh/0775.bmp
543.60	0.72	746	6	4	63	per	lib	low	mod	low	nt	fa	nh/0435_nh.bmp
544.32	0.72	747	6	4	42	per	con	mod	mod	mod	nt	cr	nh/0596_nh.bmp
545.04	0.72	748	4	2	118	per	lib	low	mod	low	tg	ms	wh/0377.bmp
545.76	0.72	749	5	2	39	mem	con	mod	mod	mod	tg	ht	wh/0429.bmp
546.48	0.72	750	1	3	94	mem	con	low	low	mod	tg	ht	wh/0885.bmp
547.20	0.72	751	4	1	120	mem	con	mod	mod	low	tg	ht	wh/0233.bmp
547.92	0.72	752	4	3	73	per	lib	mod	mod	mod	nt	fa	nh/0698_nh.bmp
548.64	0.72	753	6	1	5	per	con	mod	mod	mod	nt	cr	nh/0847_nh.bmp
549.36	0.72	754	6	4	50	per	lib	low	mod	low	nt	fa	nh/0133_nh.bmp
550.08	0.72	755	5	3	22	mem	lib	mod	mod	low	nt	ht	nh/0727_nh.bmp
550.80	0.72	756	6	3	5	per	con	low	mod	low	tg	ms	wh/0741.bmp
551.52	0.72	757	5	2	44	mem	con	mod	mod	mod	nt	ht	nh/0621_nh.bmp
552.24	0.72	758	3	4	35	per	con	mod	mod	mod	nt	cr	nh/0600_nh.bmp
552.96	0.72	759	6	4	45	per	con	mod	mod	mod	tg	ht	wh/0002.bmp
553.68	0.72	760	6	2	116	per	lib	low	mod	low	nt	cr	nh/0066_nh.bmp
554.40	0.72	761	4	1	2	per	con	mod	mod	mod	nt	cr	nh/0287_nh.bmp
555.12	0.72	762	1	2	98	mem	lib	low	low	low	nt	ht	nh/0210_nh.bmp
555.84	0.72	763	5	1	126	mem	con	mod	mod	low	tg	ht	wh/0836.bmp
556.56	0.72	764	4	3	30	mem	lib	mod	mod	low	nt	ht	nh/1021_nh.bmp
557.28	0.72	765	5	1	29	per	con	low	mod	low	nt	cr	nh/0868_nh.bmp
558.00	0.72	766	6	3	39	mem	con	mod	mod	mod	nt	ht	nh/0637_nh.bmp
558.72	0.72	767	5	2	80	per	lib	mod	mod	mod	nt	cr	nh/0425_nh.bmp
559.44	0.72	768	4	1	4	per	con	mod	mod	mod	nt	cr	nh/0878_nh.bmp
560.16	0.72	769	5	3	73	per	lib	mod	mod	mod	nt	fa	nh/0698_nh.bmp
560.88	0.72	770	4	4	35	per	con	mod	mod	mod	nt	cr	nh/0600_nh.bmp
561.60	0.72	771	5	1	30	per	con	low	mod	low	tg	ms	wh/0177.bmp
562.32	0.72	772	6	2	71	per	lib	mod	mod	mod	nt	cr	nh/0955_nh.bmp
563.04	0.72	773	5	2	117	per	lib	low	mod	low	tg	ht	wh/0019.bmp
563.76	0.72	774	1	1	108	per	lib	mod	low	mod	nt	fa	nh/0213_nh.bmp
564.48	0.72	775	5	2	123	per	lib	low	mod	low	tg	ht	wh/0997.bmp
565.20	0.72	776	6	4	44	per	con	mod	mod	mod	nt	cr	nh/0879_nh.bmp
565.92	0.72	777	4	2	49	mem	lib	mod	mod	low	nt	ht	nh/0156_nh.bmp
566.64	0.72	778	1	2	16	mem	con	low	low	low	nt	ms	nh/0191_nh.bmp
567.36	0.72	779	5	4	53	per	lib	low	mod	low	nt	fa	nh/0155_nh.bmp
568.08	0.72	780	6	1	125	mem	con	mod	mod	low	nt	ht	nh/0472_nh.bmp
568.80	0.72	781	6	2	80	per	lib	mod	mod	mod	nt	cr	nh/0425_nh.bmp
569.52	0.72	782	1	4	108	per	con	low	low	low	tg	ms	wh/0008.bmp
570.24	0.72	783	5	2	118	per	lib	low	mod	low	tg	ms	wh/0377.bmp
570.96	0.72	784	6	1	73	mem	lib	mod	mod	mod	tg	ms	wh/0466.bmp
571.68	0.72	785	5	2	37	mem	con	mod	mod	mod	tg	ht	wh/0098.bmp
572.40	0.72	786	6	1	18	per	con	low	mod	low	nt	cr	nh/0421_nh.bmp
573.12	0.72	787	6	2	39	mem	con	mod	mod	mod	tg	ht	wh/0429.bmp
573.84	0.72	788	6	3	8	per	con	low	mod	low	tg	ms	wh/0040.bmp
574.56	0.72	789	4	1	114	mem	con	mod	mod	low	nt	ht	nh/0769_nh.bmp
575.28	0.72	790	6	2	57	mem	lib	mod	mod	low	nt	ht	nh/0745_nh.bmp
576.00	0.72	791	4	4	60	per	lib	low	mod	low	nt	cr	nh/0515_nh.bmp
576.72	0.72	792	5	4	58	per	lib	low	mod	low	tg	ms	wh/0163.bmp
577.44	0.72	793	6	1	67	mem	lib	mod	mod	mod	nt	ht	nh/0391_nh.bmp
578.16	0.72	794	6	2	44	mem	con	mod	mod	mod	nt	ht	nh/0621_nh.bmp
578.88	0.72	795	6	3	73	per	lib	mod	mod	mod	nt	fa	nh/0698_nh.bmp
579.60	0.72	796	6	1	76	mem	lib	mod	mod	mod	nt	ht	nh/0801_nh.bmp
580.32	0.72	797	6	4	37	per	con	mod	mod	mod	nt	cr	nh/0162_nh.bmp
581.04	0.72	798	5	4	35	per	con	mod	mod	mod	nt	cr	nh/0600_nh.bmp
581.76	0.72	799	5	2	49	mem	lib	mod	mod	low	nt	ht	nh/0156_nh.bmp
582.48	0.72	800	6	3	23	mem	lib	mod	mod	low	tg	ht	wh/0168.bmp
583.20	0.72	801	5	4	5	mem	con	mod	mod	low	tg	ht	wh/0648.bmp
583.92	0.72	802	1	4	97	per	con	low	low	low	nt	cr	nh/0119_nh.bmp
584.64	0.72	803	1	4	66	mem	lib	low	low	low	nt	ms	nh/0794_nh.bmp
585.36	0.72	804	6	4	84	mem	lib	mod	mod	mod	tg	ht	wh/0775.bmp
586.08	0.72	805	6	4	41	per	con	mod	mod	mod	tg	ms	wh/0526.bmp
586.80	0.72	806	5	3	27	mem	lib	mod	mod	low	tg	ht	wh/0755.bmp
587.52	0.72	807	4	2	113	per	lib	low	mod	low	nt	fa	nh/0128_nh.bmp
588.24	0.72	808	1	3	114	per	lib	low	low	low	nt	fa	nh/0903_nh.bmp
588.96	0.72	809	1	3	60	mem	lib	low	low	mod	tg	ht	wh/0776.bmp
589.68	0.72	810	6	3	27	mem	lib	mod	mod	low	tg	ht	wh/0755.bmp
590.40	0.72	811	4	4	11	mem	con	mod	mod	low	nt	ms	nh/0704_nh.bmp
591.12	0.72	812	3	4	12	mem	con	mod	mod	low	tg	ht	wh/0932.bmp
591.84	0.72	813	4	1	17	per	con	low	mod	low	tg	ms	wh/0217.bmp
592.56	0.72	814	6	2	49	mem	lib	mod	mod	low	nt	ht	nh/0156_nh.bmp
593.28	0.72	815	5	4	11	mem	con	mod	mod	low	nt	ms	nh/0704_nh.bmp
594.00	0.72	816	4	1	127	mem	con	mod	mod	low	tg	ht	wh/0624.bmp
594.72	0.72	817	5	1	25	per	con	low	mod	low	nt	cr	nh/0733_nh.bmp
595.44	0.72	818	5	2	113	per	lib	low	mod	low	nt	fa	nh/0128_nh.bmp
596.16	0.72	819	1	1	107	per	lib	mod	low	mod	tg	ms	wh/0303.bmp
596.88	0.72	820	6	1	115	mem	con	mod	mod	low	tg	ht	wh/0251.bmp
597.60	0.72	821	5	1	77	mem	lib	mod	mod	mod	nt	ht	nh/0414_nh.bmp
598.32	0.72	822	5	1	120	mem	con	mod	mod	low	tg	ht	wh/0233.bmp
599.04	0.72	823	4	4	12	mem	con	mod	mod	low	tg	ht	wh/0932.bmp
599.76	0.72	824	6	3	74	per	lib	mod	mod	mod	nt	cr	nh/0785_nh.bmp
600.48	0.72	825	6	2	69	per	lib	mod	mod	mod	nt	cr	nh/0700_nh.bmp
601.20	0.72	826	6	1	77	mem	lib	mod	mod	mod	nt	ht	nh/0414_nh.bmp
601.92	0.72	827	6	1	120	mem	con	mod	mod	low	tg	ht	wh/0233.bmp
602.64	0.72	828	5	3	30	mem	lib	mod	mod	low	nt	ht	nh/1021_nh.bmp
603.36	0.72	829	6	1	10	per	con	mod	mod	mod	tg	ms	wh/0857.bmp
604.08	0.72	830	6	1	25	per	con	low	mod	low	nt	cr	nh/0733_nh.bmp
604.80	0.72	831	6	3	1	per	con	low	mod	low	nt	cr	nh/0014_nh.bmp
605.52	0.72	832	6	1	123	mem	con	mod	mod	low	nt	ht	nh/0573_nh.bmp
606.24	0.72	833	6	3	78	per	lib	mod	mod	mod	tg	ht	wh/0585.bmp
606.96	0.72	834	6	2	123	per	lib	low	mod	low	tg	ht	wh/0997.bmp
607.68	0.72	835	5	1	127	mem	con	mod	mod	low	tg	ht	wh/0624.bmp
608.40	0.72	836	5	4	60	per	lib	low	mod	low	nt	cr	nh/0515_nh.bmp
609.12	0.72	837	1	2	108	mem	lib	low	low	low	tg	ht	wh/0464.bmp
609.84	0.72	838	6	2	113	per	lib	low	mod	low	nt	fa	nh/0128_nh.bmp
610.56	0.72	839	6	2	118	per	lib	low	mod	low	tg	ms	wh/0377.bmp
611.28	0.72	840	6	4	60	per	lib	low	mod	low	nt	cr	nh/0515_nh.bmp
612.00	0.72	841	6	2	48	mem	con	mod	mod	mod	nt	ht	nh/0289_nh.bmp
612.72	0.72	842	6	3	12	per	con	low	mod	low	nt	cr	nh/0178_nh.bmp
613.44	0.72	843	6	1	30	per	con	low	mod	low	tg	ms	wh/0177.bmp
614.16	0.72	844	1	4	111	per	con	low	low	low	tg	ms	wh/0485.bmp
614.88	0.72	845	5	1	17	per	con	low	mod	low	tg	ms	wh/0217.bmp
615.60	0.72	846	6	1	117	mem	con	mod	mod	low	nt	ms	nh/0853_nh.bmp
616.32	0.72	847	5	1	2	per	con	mod	mod	mod	nt	cr	nh/0287_nh.bmp
617.04	0.72	848	5	1	4	per	con	mod	mod	mod	nt	cr	nh/0878_nh.bmp
617.76	0.72	849	6	2	126	per	lib	low	mod	low	nt	cr	nh/0529_nh.bmp
618.48	0.72	850	6	2	124	per	lib	low	mod	low	tg	ms	wh/0597.bmp
619.20	0.72	851	6	3	40	mem	con	mod	mod	mod	nt	ht	nh/0679_nh.bmp
619.92	0.72	852	6	3	7	per	con	low	mod	low	tg	ms	wh/0115.bmp
620.64	0.72	853	6	2	37	mem	con	mod	mod	mod	tg	ht	wh/0098.bmp
621.36	0.72	854	6	1	4	per	con	mod	mod	mod	nt	cr	nh/0878_nh.bmp
622.08	0.72	855	6	4	58	per	lib	low	mod	low	tg	ms	wh/0163.bmp
622.80	0.72	856	6	4	81	mem	lib	mod	mod	mod	tg	ht	wh/0189.bmp
623.52	0.72	857	6	2	33	mem	con	mod	mod	mod	tg	ms	wh/0627.bmp
624.24	0.72	858	1	2	32	per	con	mod	low	mod	nt	fa	nh/0478_nh.bmp
624.96	0.72	859	1	2	91	per	con	low	low	low	tg	ms	wh/0614.bmp
625.68	0.72	860	6	3	21	mem	lib	mod	mod	low	tg	ht	wh/0455.bmp
626.40	0.72	861	6	4	8	mem	con	mod	mod	low	tg	ms	wh/0105.bmp
627.12	0.72	862	6	3	30	mem	lib	mod	mod	low	nt	ht	nh/1021_nh.bmp
627.84	0.72	863	6	1	31	per	con	low	mod	low	tg	ms	wh/0739.bmp
628.56	0.72	864	6	3	24	mem	lib	mod	mod	low	nt	ht	nh/0116_nh.bmp
629.28	0.72	865	6	3	22	mem	lib	mod	mod	low	nt	ht	nh/0727_nh.bmp
630.00	0.72	866	6	1	127	mem	con	mod	mod	low	tg	ht	wh/0624.bmp
630.72	0.72	867	1	3	82	mem	con	low	low	mod	nt	ht	nh/0009_nh.bmp
631.44	0.72	868	6	2	34	mem	con	mod	mod	mod	nt	ht	nh/0899_nh.bmp
632.16	0.72	869	6	1	29	per	con	low	mod	low	nt	cr	nh/0868_nh.bmp
632.88	0.72	870	6	1	17	per	con	low	mod	low	tg	ms	wh/0217.bmp
633.60	0.72	871	6	2	117	per	lib	low	mod	low	tg	ht	wh/0019.bmp
634.32	0.72	872	5	2	75	per	lib	mod	mod	mod	tg	ms	wh/0984.bmp
635.04	0.72	873	5	1	114	mem	con	mod	mod	low	nt	ht	nh/0769_nh.bmp
635.76	0.72	874	6	3	48	mem	con	mod	mod	mod	nt	ht	nh/0942_nh.bmp
636.48	0.72	875	6	2	78	per	lib	mod	mod	mod	tg	ht	wh/0642.bmp
637.20	0.72	876	5	3	31	mem	lib	mod	mod	low	nt	ht	nh/0200_nh.bmp
637.92	0.72	877	5	4	12	mem	con	mod	mod	low	tg	ht	wh/0932.bmp
638.64	0.72	878	6	1	114	mem	con	mod	mod	low	nt	ht	nh/0769_nh.bmp
639.36	0.72	879	1	3	102	per	con	mod	low	mod	tg	ht	wh/0887.bmp
640.08	0.72	880	6	3	9	per	con	low	mod	low	tg	ms	wh/0027.bmp
640.80	0.72	881	6	3	38	mem	con	mod	mod	mod	nt	ms	nh/0884_nh.bmp
641.52	0.72	882	6	3	31	mem	lib	mod	mod	low	nt	ht	nh/0200_nh.bmp
642.24	0.72	883	6	4	12	mem	con	mod	mod	low	tg	ht	wh/0932.bmp
642.96	0.72	884	6	2	76	per	lib	mod	mod	mod	nt	cr	nh/0001_nh.bmp
643.68	0.72	885	6	2	60	mem	lib	mod	mod	low	tg	ht	wh/0514.bmp
644.40	0.72	886	6	4	5	mem	con	mod	mod	low	tg	ht	wh/0648.bmp
645.12	0.72	887	6	3	47	mem	con	mod	mod	mod	tg	ht	wh/0750.bmp
645.84	0.72	888	6	4	11	mem	con	mod	mod	low	nt	ms	nh/0704_nh.bmp
646.56	0.72	889	6	1	126	mem	con	mod	mod	low	tg	ht	wh/0836.bmp
647.28	0.72	890	6	4	91	mem	lib	mod	mod	mod	tg	ht	wh/0405.bmp
648.00	0.72	891	6	1	80	mem	lib	mod	mod	mod	tg	ht	wh/0534.bmp
648.72	0.72	892	6	2	75	per	lib	mod	mod	mod	tg	ms	wh/0984.bmp
649.44	0.72	893	6	4	94	mem	lib	mod	mod	mod	nt	ht	nh/0393_nh.bmp
650.16	0.72	894	6	4	53	per	lib	low	mod	low	nt	fa	nh/0155_nh.bmp
650.88	0.72	895	6	1	2	per	con	mod	mod	mod	nt	cr	nh/0287_nh.bmp
651.60	0.72	896	6	4	35	per	con	mod	mod	mod	nt	cr	nh/0600_nh.bmp
