onset	duration	trial	pres	ts_blk	ts_trl	task	crit	disc	mem_disc	per_disc	per_type	accuracy	stim_file
7.20	0.72	1	1	8	7	per	lib	mod	mod	mod	tg	ht	wh/0590.bmp
7.92	0.72	2	1	5	50	per	con	mod	mod	mod	tg	ms	wh/0366.bmp
8.64	0.72	3	1	7	127	per	con	low	mod	low	nt	cr	nh/0388_nh.bmp
9.36	0.72	4	1	5	82	mem	lib	mod	mod	low	tg	ht	wh/0875.bmp
10.08	0.72	5	1	6	65	per	lib	mod	mod	mod	tg	ms	wh/0952.bmp
10.80	0.72	6	1	5	7	per	lib	low	mod	low	tg	ht	wh/0678.bmp
11.52	0.72	7	1	8	104	mem	lib	low	low	low	nt	ht	nh/1015_nh.bmp
12.24	0.72	8	1	6	81	mem	con	mod	mod	mod	tg	ht	wh/0495.bmp
12.96	0.72	9	1	8	16	per	lib	mod	mod	mod	nt	cr	nh/0638_nh.bmp
13.68	0.72	10	1	7	107	mem	con	mod	mod	mod	tg	ht	wh/0294.bmp
14.40	0.72	11	1	8	24	per	lib	low	mod	low	tg	ms	wh/0164.bmp
15.12	0.72	12	1	7	57	mem	lib	mod	mod	mod	tg	ms	wh/0835.bmp
15.84	0.72	13	2	8	16	per	lib	mod	mod	mod	nt	cr	nh/0638_nh.bmp
16.56	0.72	14	3	8	16	per	lib	mod	mod	mod	nt	cr	nh/0638_nh.bmp
17.28	0.72	15	1	5	25	mem	con	mod	mod	low	nt	ht	nh/0793_nh.bmp
18.00	0.72	16	1	6	12	mem	lib	mod	mod	mod	nt	ht	nh/0833_nh.bmp
18.72	0.72	17	1	8	42	per	con	mod	mod	mod	nt	cr	nh/0552_nh.bmp
19.44	0.72	18	1	5	27	mem	con	mod	mod	low	tg	ms	wh/0193.bmp
20.16	0.72	19	1	5	94	mem	lib	mod	mod	low	nt	ht	nh/0820_nh.bmp
20.88	0.72	20	2	8	7	per	lib	mod	mod	mod	tg	ht	wh/0590.bmp
21.60	0.72	21	1	8	13	per	lib	mod	mod	mod	nt	cr	nh/0821_nh.bmp
22.32	0.72	22	1	6	30	mem	con	low	low	low	nt	ms	nh/0045_nh.bmp
23.04	0.72	23	1	8	12	per	lib	mod	mod	mod	nt	cr	nh/0275_nh.bmp
23.76	0.72	24	1	5	85	mem	lib	mod	mod	low	nt	ht	nh/0582_nh.bmp
24.48	0.72	25	1	5	57	per	con	mod	mod	mod	nt	cr	nh/0822_nh.bmp
25.20	0.72	26	1	7	100	mem	con	mod	mod	mod	nt	ht	nh/0958_nh.bmp
25.92	0.72	27	1	7	99	mem	con	mod	mod	mod	nt	ms	nh/0420_nh.bmp
26.64	0.72	28	1	6	62	per	con	low	mod	low	nt	cr	nh/0139_nh.bmp
27.36	0.72	29	1	8	61	mem	con	mod	mod	low	tg	ms	wh/0024.bmp
28.08	0.72	30	1	8	88	mem	lib	mod	mod	low	nt	ht	nh/0401_nh.bmp
28.80	0.72	31	1	8	106	mem	lib	low	low	low	tg	ht	wh/0136.bmp
29.52	0.72	32	1	7	97	mem	con	mod	mod	mod	nt	ms	nh/0686_nh.bmp
30.24	0.72	33	2	5	85	mem	lib	mod	mod	low	nt	ht	nh/0582_nh.bmp
30.96	0.72	34	1	8	25	per	lib	low	mod	low	tg	ht	wh/0734.bmp
31.68	0.72	35	2	8	12	per	lib	mod	mod	mod	nt	cr	nh/0275_nh.bmp
32.40	0.72	36	2	8	88	mem	lib	mod	mod	low	nt	ht	nh/0401_nh.bmp
33.12	0.72	37	1	7	64	mem	lib	mod	mod	mod	nt	ht	nh/0778_nh.bmp
33.84	0.72	38	1	8	89	mem	lib	mod	mod	low	nt	ht	nh/0453_nh.bmp
34.56	0.72	39	1	5	107	per	con	low	low	low	nt	cr	nh/0360_nh.bmp
35.28	0.72	40	1	7	126	per	con	low	mod	low	tg	ms	wh/0848.bmp
36.00	0.72	41	1	5	10	per	lib	low	mod	low	nt	cr	nh/0892_nh.bmp
36.72	0.72	42	1	6	10	mem	lib	mod	mod	mod	nt	ht	nh/0797_nh.bmp
37.44	0.72	43	1	7	122	per	con	low	mod	low	tg	ht	wh/0042.bmp
38.16	0.72	44	1	6	84	mem	con	mod	mod	mod	nt	ht	nh/0871_nh.bmp
38.88	0.72	45	1	7	115	per	con	low	mod	low	nt	fa	nh/0172_nh.bmp
39.60	0.72	46	2	6	81	mem	con	mod	mod	mod	tg	ht	wh/0495.bmp
40.32	0.72	47	1	6	5	mem	lib	mod	mod	mod	tg	ht	wh/0995.bmp
41.04	0.72	48	1	6	1	mem	lib	mod	mod	mod	nt	ht	nh/0599_nh.bmp
41.76	0.72	49	1	6	92	mem	con	mod	mod	mod	nt	ht	nh/0602_nh.bmp
42.48	0.72	50	1	7	103	mem	con	mod	mod	mod	tg	ht	wh/0060.bmp
43.20	0.72	51	2	5	82	mem	lib	mod	mod	low	tg	ht	wh/0875.bmp
43.92	0.72	52	4	8	16	per	lib	mod	mod	mod	nt	cr	nh/0638_nh.bmp
44.64	0.72	53	1	8	22	per	lib	low	mod	low	tg	ht	wh/0247.bmp
45.36	0.72	54	2	7	57	mem	lib	mod	mod	mod	tg	ms	wh/0835.bmp
46.08	0.72	55	1	6	53	per	con	low	mod	low	tg	ms	wh/0064.bmp
46.80	0.72	56	1	5	106	per	con	low	low	low	nt	cr	nh/0676_nh.bmp
47.52	0.72	57	1	8	9	per	lib	mod	mod	mod	tg	ms	wh/0915.bmp
48.24	0.72	58	2	8	25	per	lib	low	mod	low	tg	ht	wh/0734.bmp
48.96	0.72	59	1	7	79	per	lib	mod	low	mod	nt	cr	nh/0402_nh.bmp
49.68	0.72	60	1	5	4	per	lib	low	mod	low	nt	fa	nh/1019_nh.bmp
50.40	0.72	61	1	8	53	mem	con	mod	mod	low	tg	ht	wh/0612.bmp
51.12	0.72	62	1	5	1	per	lib	low	mod	low	tg	ms	wh/0023.bmp
51.84	0.72	63	2	6	1	mem	lib	mod	mod	mod	nt	ht	nh/0599_nh.bmp
52.56	0.72	64	1	8	4	per	lib	mod	mod	mod	tg	ms	wh/0827.bmp
53.28	0.72	65	2	7	127	per	con	low	mod	low	nt	cr	nh/0388_nh.bmp
54.00	0.72	66	2	5	50	per	con	mod	mod	mod	tg	ms	wh/0366.bmp
54.72	0.72	67	1	8	40	per	con	mod	mod	mod	nt	fa	nh/0978_nh.bmp
55.44	0.72	68	2	6	65	per	lib	mod	mod	mod	tg	ms	wh/0952.bmp
56.16	0.72	69	1	8	62	mem	con	mod	mod	low	nt	ht	nh/0253_nh.bmp
56.88	0.72	70	2	8	62	mem	con	mod	mod	low	nt	ht	nh/0253_nh.bmp
57.60	0.72	71	1	7	21	mem	con	low	low	low	tg	ms	wh/0043.bmp
58.32	0.72	72	2	5	57	per	con	mod	mod	mod	nt	cr	nh/0822_nh.bmp
59.04	0.72	73	1	6	3	mem	lib	mod	mod	mod	tg	ms	wh/0560.bmp
59.76	0.72	74	2	7	122	per	con	low	mod	low	tg	ht	wh/0042.bmp
60.48	0.72	75	1	8	64	mem	con	mod	mod	low	tg	ht	wh/0519.bmp
61.20	0.72	76	1	6	63	per	con	low	mod	low	nt	cr	nh/0254_nh.bmp
61.92	0.72	77	1	5	30	mem	con	mod	mod	low	tg	ht	wh/0374.bmp
62.64	0.72	78	1	7	109	mem	con	mod	mod	mod	nt	ht	nh/0546_nh.bmp
63.36	0.72	79	3	5	57	per	con	mod	mod	mod	nt	cr	nh/0822_nh.bmp
64.08	0.72	80	1	6	8	mem	lib	mod	mod	mod	tg	ht	wh/0337.bmp
64.80	0.72	81	2	5	94	mem	lib	mod	mod	low	nt	ht	nh/0820_nh.bmp
65.52	0.72	82	1	8	58	mem	con	mod	mod	low	nt	ht	nh/0157_nh.bmp
66.24	0.72	83	1	8	90	mem	lib	mod	mod	low	tg	ht	wh/0176.bmp
66.96	0.72	84	1	8	92	mem	lib	mod	mod	low	tg	ht	wh/0248.bmp
67.68	0.72	85	1	5	13	per	lib	low	mod	low	tg	ms	wh/0018.bmp
68.40	0.72	86	1	6	88	mem	con	mod	mod	mod	nt	ht	nh/0269_nh.bmp
69.12	0.72	87	1	8	83	mem	lib	mod	mod	low	tg	ms	wh/0814.bmp
69.84	0.72	88	1	8	35	per	con	mod	mod	mod	tg	ms	wh/0852.bmp
70.56	0.72	89	2	8	53	mem	con	mod	mod	low	tg	ht	wh/0612.bmp
71.28	0.72	90	3	8	12	per	lib	mod	mod	mod	nt	cr	nh/0275_nh.bmp
72.00	0.72	91	1	8	29	per	lib	low	mod	low	nt	cr	nh/0262_nh.bmp
72.72	0.72	92	1	5	56	per	con	mod	mod	mod	tg	ht	wh/0629.bmp
73.44	0.72	93	1	6	78	per	lib	mod	mod	mod	tg	ms	wh/0020.bmp
74.16	0.72	94	1	8	95	mem	lib	mod	mod	low	nt	ht	nh/0394_nh.bmp
74.88	0.72	95	2	6	10	mem	lib	mod	mod	mod	nt	ht	nh/0797_nh.bmp
75.60	0.72	96	1	8	37	per	con	mod	mod	mod	nt	cr	nh/0544_nh.bmp
76.32	0.72	97	1	6	9	mem	lib	mod	mod	mod	tg	ht	wh/0623.bmp
77.04	0.72	98	1	6	68	per	lib	mod	mod	mod	nt	cr	nh/0239_nh.bmp
77.76	0.72	99	1	8	18	per	lib	low	mod	low	tg	ms	wh/0647.bmp
78.48	0.72	100	1	5	74	mem	lib	low	low	mod	nt	ht	nh/0207_nh.bmp
79.20	0.72	101	1	8	46	per	con	mod	mod	mod	tg	ht	wh/0300.bmp
79.92	0.72	102	1	7	98	mem	con	mod	mod	mod	tg	ht	wh/0441.bmp
80.64	0.72	103	2	6	88	mem	con	mod	mod	mod	nt	ht	nh/0269_nh.bmp
81.36	0.72	104	1	7	56	mem	lib	mod	mod	mod	nt	ht	nh/0385_nh.bmp
82.08	0.72	105	2	6	3	mem	lib	mod	mod	mod	tg	ms	wh/0560.bmp
82.80	0.72	106	1	6	58	per	con	low	mod	low	tg	ms	wh/0640.bmp
83.52	0.72	107	1	5	81	mem	lib	mod	mod	low	nt	ht	nh/0491_nh.bmp
84.24	0.72	108	1	7	111	mem	con	mod	mod	mod	tg	ht	wh/0888.bmp
84.96	0.72	109	2	6	92	mem	con	mod	mod	mod	nt	ht	nh/0602_nh.bmp
85.68	0.72	110	1	6	6	mem	lib	mod	mod	mod	nt	ht	nh/0408_nh.bmp
86.40	0.72	111	2	7	56	mem	lib	mod	mod	mod	nt	ht	nh/0385_nh.bmp
87.12	0.72	112	1	6	80	per	lib	mod	mod	mod	tg	ht	wh/0717.bmp
87.84	0.72	113	1	5	24	mem	con	mod	mod	low	nt	ht	nh/0746_nh.bmp
88.56	0.72	114	1	5	51	per	con	mod	mod	mod	tg	ht	wh/0179.bmp
89.28	0.72	115	1	7	124	per	con	low	mod	low	nt	cr	nh/0450_nh.bmp
90.00	0.72	116	2	8	58	mem	con	mod	mod	low	nt	ht	nh/0157_nh.bmp
90.72	0.72	117	3	6	10	mem	lib	mod	mod	mod	nt	ht	nh/0797_nh.bmp
91.44	0.72	118	2	7	98	mem	con	mod	mod	mod	tg	ht	wh/0441.bmp
92.16	0.72	119	1	8	63	mem	con	mod	mod	low	nt	ht	nh/0297_nh.bmp
92.88	0.72	120	1	6	50	per	con	low	mod	low	nt	cr	nh/0780_nh.bmp
93.60	0.72	121	1	5	87	mem	lib	mod	mod	low	tg	ht	wh/0241.bmp
94.32	0.72	122	1	7	38	mem	lib	low	low	mod	nt	ht	nh/0221_nh.bmp
95.04	0.72	123	3	5	50	per	con	mod	mod	mod	tg	ms	wh/0366.bmp
95.76	0.72	124	1	5	31	mem	con	mod	mod	low	tg	ht	wh/0165.bmp
96.48	0.72	125	1	5	23	mem	con	mod	mod	low	nt	ht	nh/0403_nh.bmp
97.20	0.72	126	1	5	54	per	con	mod	mod	mod	tg	ht	wh/0056.bmp
97.92	0.72	127	2	7	64	mem	lib	mod	mod	mod	nt	ht	nh/0778_nh.bmp
98.64	0.72	128	3	5	94	mem	lib	mod	mod	low	nt	ht	nh/0820_nh.bmp
99.36	0.72	129	1	8	51	mem	con	mod	mod	low	nt	ht	nh/0883_nh.bmp
100.08	0.72	130	2	8	89	mem	lib	mod	mod	low	nt	ht	nh/0453_nh.bmp
100.80	0.72	131	1	6	91	mem	con	mod	mod	mod	nt	ht	nh/0609_nh.bmp
101.52	0.72	132	2	6	12	mem	lib	mod	mod	mod	nt	ht	nh/0833_nh.bmp
102.24	0.72	133	3	8	7	per	lib	mod	mod	mod	tg	ht	wh/0590.bmp
102.96	0.72	134	1	6	61	per	con	low	mod	low	tg	ms	wh/0111.bmp
103.68	0.72	135	3	7	57	mem	lib	mod	mod	mod	tg	ms	wh/0835.bmp
104.40	0.72	136	2	6	68	per	lib	mod	mod	mod	nt	cr	nh/0239_nh.bmp
105.12	0.72	137	4	7	57	mem	lib	mod	mod	mod	tg	ms	wh/0835.bmp
105.84	0.72	138	1	8	30	per	lib	low	mod	low	nt	cr	nh/0249_nh.bmp
106.56	0.72	139	2	6	53	per	con	low	mod	low	tg	ms	wh/0064.bmp
107.28	0.72	140	1	7	48	mem	lib	low	low	mod	tg	ht	wh/0395.bmp
108.00	0.72	141	1	5	59	per	con	mod	mod	mod	nt	fa	nh/0436_nh.bmp
108.72	0.72	142	1	8	5	per	lib	mod	mod	mod	tg	ht	wh/0968.bmp
109.44	0.72	143	3	5	85	mem	lib	mod	mod	low	nt	ht	nh/0582_nh.bmp
110.16	0.72	144	4	8	7	per	lib	mod	mod	mod	tg	ht	wh/0590.bmp
110.88	0.72	145	2	5	1	per	lib	low	mod	low	tg	ms	wh/0023.bmp
111.60	0.72	146	2	5	4	per	lib	low	mod	low	nt	fa	nh/1019_nh.bmp
112.32	0.72	147	1	5	5	per	lib	low	mod	low	nt	cr	nh/0170_nh.bmp
113.04	0.72	148	2	8	46	per	con	mod	mod	mod	tg	ht	wh/0300.bmp
113.76	0.72	149	2	6	80	per	lib	mod	mod	mod	tg	ht	wh/0717.bmp
114.48	0.72	150	2	6	62	per	con	low	mod	low	nt	cr	nh/0139_nh.bmp
115.20	0.72	151	2	6	61	per	con	low	mod	low	tg	ms	wh/0111.bmp
115.92	0.72	152	2	8	4	per	lib	mod	mod	mod	tg	ms	wh/0827.bmp
116.64	0.72	153	1	7	73	per	lib	mod	low	mod	nt	cr	nh/0751_nh.bmp
117.36	0.72	154	2	8	22	per	lib	low	mod	low	tg	ht	wh/0247.bmp
118.08	0.72	155	1	8	23	per	lib	low	mod	low	nt	fa	nh/0143_nh.bmp
118.80	0.72	156	2	6	6	mem	lib	mod	mod	mod	nt	ht	nh/0408_nh.bmp
119.52	0.72	157	2	8	23	per	lib	low	mod	low	nt	fa	nh/0143_nh.bmp
120.24	0.72	158	2	7	97	mem	con	mod	mod	mod	nt	ms	nh/0686_nh.bmp
120.96	0.72	159	3	5	1	per	lib	low	mod	low	tg	ms	wh/0023.bmp
121.68	0.72	160	1	5	42	per	lib	mod	low	mod	nt	fa	nh/0418_nh.bmp
122.40	0.72	161	3	6	3	mem	lib	mod	mod	mod	tg	ms	wh/0560.bmp
123.12	0.72	162	1	7	54	mem	lib	mod	mod	mod	tg	ht	wh/0564.bmp
123.84	0.72	163	3	6	12	mem	lib	mod	mod	mod	nt	ht	nh/0833_nh.bmp
124.56	0.72	164	1	7	22	mem	con	low	low	low	tg	ms	wh/0994.bmp
125.28	0.72	165	1	7	118	per	con	low	mod	low	nt	cr	nh/0521_nh.bmp
126.00	0.72	166	2	5	81	mem	lib	mod	mod	low	nt	ht	nh/0491_nh.bmp
126.72	0.72	167	2	8	24	per	lib	low	mod	low	tg	ms	wh/0164.bmp
127.44	0.72	168	1	6	126	per	con	mod	low	mod	nt	cr	nh/0334_nh.bmp
128.16	0.72	169	2	8	64	mem	con	mod	mod	low	tg	ht	wh/0519.bmp
128.88	0.72	170	3	8	58	mem	con	mod	mod	low	nt	ht	nh/0157_nh.bmp
129.60	0.72	171	1	6	89	mem	con	mod	mod	mod	tg	ms	wh/0715.bmp
130.32	0.72	172	1	5	20	mem	con	mod	mod	low	nt	ht	nh/0118_nh.bmp
131.04	0.72	173	3	8	62	mem	con	mod	mod	low	nt	ht	nh/0253_nh.bmp
131.76	0.72	174	1	7	17	mem	con	low	low	low	nt	ms	nh/0636_nh.bmp
132.48	0.72	175	1	7	12	per	lib	low	low	low	tg	ms	wh/0198.bmp
133.20	0.72	176	2	7	100	mem	con	mod	mod	mod	nt	ht	nh/0958_nh.bmp
133.92	0.72	177	3	8	4	per	lib	mod	mod	mod	tg	ms	wh/0827.bmp
134.64	0.72	178	2	8	61	mem	con	mod	mod	low	tg	ms	wh/0024.bmp
135.36	0.72	179	2	5	51	per	con	mod	mod	mod	tg	ht	wh/0179.bmp
136.08	0.72	180	1	5	41	per	lib	mod	low	mod	tg	ht	wh/0869.bmp
136.80	0.72	181	3	7	98	mem	con	mod	mod	mod	tg	ht	wh/0441.bmp
137.52	0.72	182	3	8	88	mem	lib	mod	mod	low	nt	ht	nh/0401_nh.bmp
138.24	0.72	183	1	5	83	mem	lib	mod	mod	low	tg	ht	wh/1004.bmp
138.96	0.72	184	2	8	95	mem	lib	mod	mod	low	nt	ht	nh/0394_nh.bmp
139.68	0.72	185	1	6	69	per	lib	mod	mod	mod	nt	cr	nh/0603_nh.bmp
140.40	0.72	186	3	8	53	mem	con	mod	mod	low	tg	ht	wh/0612.bmp
141.12	0.72	187	4	6	10	mem	lib	mod	mod	mod	nt	ht	nh/0797_nh.bmp
141.84	0.72	188	2	7	124	per	con	low	mod	low	nt	cr	nh/0450_nh.bmp
142.56	0.72	189	2	5	30	mem	con	mod	mod	low	tg	ht	wh/0374.bmp
143.28	0.72	190	1	7	50	mem	lib	mod	mod	mod	nt	ht	nh/0735_nh.bmp
144.00	0.72	191	3	7	56	mem	lib	mod	mod	mod	nt	ht	nh/0385_nh.bmp
144.72	0.72	192	1	8	67	mem	con	low	low	mod	tg	ht	wh/0663.bmp
145.44	0.72	193	3	5	82	mem	lib	mod	mod	low	tg	ht	wh/0875.bmp
146.16	0.72	194	1	6	72	per	lib	mod	mod	mod	tg	ht	wh/0378.bmp
146.88	0.72	195	4	7	98	mem	con	mod	mod	mod	tg	ht	wh/0441.bmp
147.60	0.72	196	1	7	114	per	con	low	mod	low	tg	ms	wh/0939.bmp
148.32	0.72	197	1	6	33	mem	lib	low	low	low	nt	ht	nh/0767_nh.bmp
149.04	0.72	198	3	6	1	mem	lib	mod	mod	mod	nt	ht	nh/0599_nh.bmp
149.76	0.72	199	2	7	114	per	con	low	mod	low	tg	ms	wh/0939.bmp
150.48	0.72	200	1	7	33	mem	lib	low	low	mod	tg	ht	wh/0982.bmp
151.20	0.72	201	1	7	92	per	con	mod	low	mod	tg	ht	wh/0347.bmp
151.92	0.72	202	1	7	39	mem	lib	low	low	mod	tg	ht	wh/1002.bmp
152.64	0.72	203	1	8	34	per	con	mod	mod	mod	nt	cr	nh/0763_nh.bmp
153.36	0.72	204	1	6	43	mem	lib	low	low	low	tg	ht	wh/0260.bmp
154.08	0.72	205	1	6	118	per	con	mod	low	mod	tg	ht	wh/0625.bmp
154.80	0.72	206	3	7	97	mem	con	mod	mod	mod	nt	ms	nh/0686_nh.bmp
155.52	0.72	207	2	7	99	mem	con	mod	mod	mod	nt	ms	nh/0420_nh.bmp
156.24	0.72	208	4	6	1	mem	lib	mod	mod	mod	nt	ht	nh/0599_nh.bmp
156.96	0.72	209	2	8	90	mem	lib	mod	mod	low	tg	ht	wh/0176.bmp
157.68	0.72	210	1	8	84	mem	lib	mod	mod	low	tg	ht	wh/0114.bmp
158.40	0.72	211	2	5	27	mem	con	mod	mod	low	tg	ms	wh/0193.bmp
159.12	0.72	212	1	5	43	per	lib	mod	low	mod	tg	ht	wh/0308.bmp
159.84	0.72	213	2	8	18	per	lib	low	mod	low	tg	ms	wh/0647.bmp
160.56	0.72	214	4	5	57	per	con	mod	mod	mod	nt	cr	nh/0822_nh.bmp
161.28	0.72	215	1	5	110	per	con	low	low	low	nt	cr	nh/0842_nh.bmp
162.00	0.72	216	2	6	91	mem	con	mod	mod	mod	nt	ht	nh/0609_nh.bmp
162.72	0.72	217	1	8	45	per	con	mod	mod	mod	tg	ht	wh/0832.bmp
163.44	0.72	218	1	6	67	per	lib	mod	mod	mod	nt	fa	nh/0694_nh.bmp
164.16	0.72	219	1	8	85	mem	lib	mod	mod	low	nt	ht	nh/0756_nh.bmp
164.88	0.72	220	1	7	63	mem	lib	mod	mod	mod	tg	ht	wh/0086.bmp
165.60	0.72	221	2	5	7	per	lib	low	mod	low	tg	ht	wh/0678.bmp
166.32	0.72	222	1	5	88	mem	lib	mod	mod	low	tg	ht	wh/0574.bmp
167.04	0.72	223	2	5	56	per	con	mod	mod	mod	tg	ht	wh/0629.bmp
167.76	0.72	224	2	6	78	per	lib	mod	mod	mod	tg	ms	wh/0020.bmp
168.48	0.72	225	1	8	78	mem	con	low	low	mod	nt	ht	nh/0342_nh.bmp
169.20	0.72	226	3	6	91	mem	con	mod	mod	mod	nt	ht	nh/0609_nh.bmp
169.92	0.72	227	1	6	95	mem	con	mod	mod	mod	tg	ms	wh/0764.bmp
170.64	0.72	228	1	8	79	mem	con	low	low	mod	tg	ms	wh/0924.bmp
171.36	0.72	229	3	7	124	per	con	low	mod	low	nt	cr	nh/0450_nh.bmp
172.08	0.72	230	3	8	61	mem	con	mod	mod	low	tg	ms	wh/0024.bmp
172.80	0.72	231	1	7	7	per	lib	low	low	low	tg	ms	wh/0830.bmp
173.52	0.72	232	2	5	31	mem	con	mod	mod	low	tg	ht	wh/0165.bmp
174.24	0.72	233	2	5	13	per	lib	low	mod	low	tg	ms	wh/0018.bmp
174.96	0.72	234	5	8	16	per	lib	mod	mod	mod	nt	cr	nh/0638_nh.bmp
175.68	0.72	235	1	7	119	per	con	low	mod	low	tg	ht	wh/0255.bmp
176.40	0.72	236	2	8	40	per	con	mod	mod	mod	nt	fa	nh/0978_nh.bmp
177.12	0.72	237	3	8	18	per	lib	low	mod	low	tg	ms	wh/0647.bmp
177.84	0.72	238	1	8	116	per	con	low	low	low	tg	ms	wh/0506.bmp
178.56	0.72	239	2	8	42	per	con	mod	mod	mod	nt	cr	nh/0552_nh.bmp
179.28	0.72	240	4	6	3	mem	lib	mod	mod	mod	tg	ms	wh/0560.bmp
180.00	0.72	241	2	7	63	mem	lib	mod	mod	mod	tg	ht	wh/0086.bmp
180.72	0.72	242	2	7	118	per	con	low	mod	low	nt	cr	nh/0521_nh.bmp
181.44	0.72	243	2	8	9	per	lib	mod	mod	mod	tg	ms	wh/0915.bmp
182.16	0.72	244	2	8	29	per	lib	low	mod	low	nt	cr	nh/0262_nh.bmp
182.88	0.72	245	1	8	2	per	lib	mod	mod	mod	nt	fa	nh/0666_nh.bmp
183.60	0.72	246	1	7	58	mem	lib	mod	mod	mod	tg	ht	wh/0318.bmp
184.32	0.72	247	3	7	100	mem	con	mod	mod	mod	nt	ht	nh/0958_nh.bmp
185.04	0.72	248	1	5	90	mem	lib	mod	mod	low	nt	ht	nh/0073_nh.bmp
185.76	0.72	249	1	6	107	per	lib	low	low	low	nt	cr	nh/0181_nh.bmp
186.48	0.72	250	4	8	88	mem	lib	mod	mod	low	nt	ht	nh/0401_nh.bmp
187.20	0.72	251	3	7	63	mem	lib	mod	mod	mod	tg	ht	wh/0086.bmp
187.92	0.72	252	4	7	56	mem	lib	mod	mod	mod	nt	ht	nh/0385_nh.bmp
188.64	0.72	253	2	7	103	mem	con	mod	mod	mod	tg	ht	wh/0060.bmp
189.36	0.72	254	3	8	29	per	lib	low	mod	low	nt	cr	nh/0262_nh.bmp
190.08	0.72	255	3	7	99	mem	con	mod	mod	mod	nt	ms	nh/0420_nh.bmp
190.80	0.72	256	2	5	23	mem	con	mod	mod	low	nt	ht	nh/0403_nh.bmp
191.52	0.72	257	3	7	122	per	con	low	mod	low	tg	ht	wh/0042.bmp
192.24	0.72	258	1	6	90	mem	con	mod	mod	mod	tg	ht	wh/0851.bmp
192.96	0.72	259	3	6	81	mem	con	mod	mod	mod	tg	ht	wh/0495.bmp
193.68	0.72	260	2	8	83	mem	lib	mod	mod	low	tg	ms	wh/0814.bmp
194.40	0.72	261	1	8	60	mem	con	mod	mod	low	tg	ht	wh/0863.bmp
195.12	0.72	262	3	6	78	per	lib	mod	mod	mod	tg	ms	wh/0020.bmp
195.84	0.72	263	2	8	13	per	lib	mod	mod	mod	nt	cr	nh/0821_nh.bmp
196.56	0.72	264	1	6	125	per	con	mod	low	mod	tg	ht	wh/0537.bmp
197.28	0.72	265	1	5	124	mem	con	low	low	mod	tg	ms	wh/0840.bmp
198.00	0.72	266	3	5	30	mem	con	mod	mod	low	tg	ht	wh/0374.bmp
198.72	0.72	267	2	6	67	per	lib	mod	mod	mod	nt	fa	nh/0694_nh.bmp
199.44	0.72	268	2	8	35	per	con	mod	mod	mod	tg	ms	wh/0852.bmp
200.16	0.72	269	4	7	99	mem	con	mod	mod	mod	nt	ms	nh/0420_nh.bmp
200.88	0.72	270	4	5	1	per	lib	low	mod	low	tg	ms	wh/0023.bmp
201.60	0.72	271	2	5	25	mem	con	mod	mod	low	nt	ht	nh/0793_nh.bmp
202.32	0.72	272	4	6	78	per	lib	mod	mod	mod	tg	ms	wh/0020.bmp
203.04	0.72	273	3	8	46	per	con	mod	mod	mod	tg	ht	wh/0300.bmp
203.76	0.72	274	2	5	10	per	lib	low	mod	low	nt	cr	nh/0892_nh.bmp
204.48	0.72	275	1	6	114	per	con	mod	low	mod	tg	ms	wh/0234.bmp
205.20	0.72	276	1	7	1	per	lib	low	low	low	tg	ms	wh/0041.bmp
205.92	0.72	277	4	8	61	mem	con	mod	mod	low	tg	ms	wh/0024.bmp
206.64	0.72	278	2	8	34	per	con	mod	mod	mod	nt	cr	nh/0763_nh.bmp
207.36	0.72	279	2	8	63	mem	con	mod	mod	low	nt	ht	nh/0297_nh.bmp
208.08	0.72	280	1	8	21	per	lib	low	mod	low	nt	fa	nh/0108_nh.bmp
208.80	0.72	281	2	5	5	per	lib	low	mod	low	nt	cr	nh/0170_nh.bmp
209.52	0.72	282	2	8	60	mem	con	mod	mod	low	tg	ht	wh/0863.bmp
210.24	0.72	283	4	7	63	mem	lib	mod	mod	mod	tg	ht	wh/0086.bmp
210.96	0.72	284	1	7	34	mem	lib	low	low	mod	nt	ms	nh/0867_nh.bmp
211.68	0.72	285	3	8	34	per	con	mod	mod	mod	nt	cr	nh/0763_nh.bmp
212.40	0.72	286	1	6	100	per	lib	low	low	low	tg	ms	wh/0219.bmp
213.12	0.72	287	4	5	30	mem	con	mod	mod	low	tg	ht	wh/0374.bmp
213.84	0.72	288	2	5	24	mem	con	mod	mod	low	nt	ht	nh/0746_nh.bmp
214.56	0.72	289	1	5	48	per	lib	mod	low	mod	tg	ms	wh/0953.bmp
215.28	0.72	290	3	8	13	per	lib	mod	mod	mod	nt	cr	nh/0821_nh.bmp
216.00	0.72	291	2	8	51	mem	con	mod	mod	low	nt	ht	nh/0883_nh.bmp
216.72	0.72	292	1	6	97	per	lib	low	low	low	tg	ms	wh/0639.bmp
217.44	0.72	293	1	5	60	per	con	mod	mod	mod	nt	cr	nh/0549_nh.bmp
218.16	0.72	294	2	7	109	mem	con	mod	mod	mod	nt	ht	nh/0546_nh.bmp
218.88	0.72	295	5	6	78	per	lib	mod	mod	mod	tg	ms	wh/0020.bmp
219.60	0.72	296	5	8	61	mem	con	mod	mod	low	tg	ms	wh/0024.bmp
220.32	0.72	297	2	7	119	per	con	low	mod	low	tg	ht	wh/0255.bmp
221.04	0.72	298	3	5	56	per	con	mod	mod	mod	tg	ht	wh/0629.bmp
221.76	0.72	299	3	5	5	per	lib	low	mod	low	nt	cr	nh/0170_nh.bmp
222.48	0.72	300	2	8	30	per	lib	low	mod	low	nt	cr	nh/0249_nh.bmp
223.20	0.72	301	1	5	53	per	con	mod	mod	mod	nt	cr	nh/0971_nh.bmp
223.92	0.72	302	2	5	59	per	con	mod	mod	mod	nt	fa	nh/0436_nh.bmp
224.64	0.72	303	2	5	20	mem	con	mod	mod	low	nt	ht	nh/0118_nh.bmp
225.36	0.72	304	2	7	126	per	con	low	mod	low	tg	ms	wh/0848.bmp
226.08	0.72	305	1	5	114	mem	con	low	low	mod	tg	ms	wh/1008.bmp
226.80	0.72	306	2	8	21	per	lib	low	mod	low	nt	fa	nh/0108_nh.bmp
227.52	0.72	307	4	8	12	per	lib	mod	mod	mod	nt	cr	nh/0275_nh.bmp
228.24	0.72	308	5	5	57	per	con	mod	mod	mod	nt	cr	nh/0822_nh.bmp
228.96	0.72	309	3	5	23	mem	con	mod	mod	low	nt	ht	nh/0403_nh.bmp
229.68	0.72	310	2	6	89	mem	con	mod	mod	mod	tg	ms	wh/0715.bmp
230.40	0.72	311	2	6	58	per	con	low	mod	low	tg	ms	wh/0640.bmp
231.12	0.72	312	2	5	88	mem	lib	mod	mod	low	tg	ht	wh/0574.bmp
231.84	0.72	313	3	6	61	per	con	low	mod	low	tg	ms	wh/0111.bmp
232.56	0.72	314	2	8	2	per	lib	mod	mod	mod	nt	fa	nh/0666_nh.bmp
233.28	0.72	315	3	6	89	mem	con	mod	mod	mod	tg	ms	wh/0715.bmp
234.00	0.72	316	2	5	90	mem	lib	mod	mod	low	nt	ht	nh/0073_nh.bmp
234.72	0.72	317	1	5	119	mem	con	low	low	mod	nt	ms	nh/0532_nh.bmp
235.44	0.72	318	3	8	83	mem	lib	mod	mod	low	tg	ms	wh/0814.bmp
236.16	0.72	319	3	8	90	mem	lib	mod	mod	low	tg	ht	wh/0176.bmp
236.88	0.72	320	2	6	5	mem	lib	mod	mod	mod	tg	ht	wh/0995.bmp
237.60	0.72	321	2	8	5	per	lib	mod	mod	mod	tg	ht	wh/0968.bmp
238.32	0.72	322	2	8	92	mem	lib	mod	mod	low	tg	ht	wh/0248.bmp
239.04	0.72	323	1	7	53	mem	lib	mod	mod	mod	nt	ht	nh/0399_nh.bmp
239.76	0.72	324	1	6	121	per	con	mod	low	mod	nt	cr	nh/0037_nh.bmp
240.48	0.72	325	3	5	88	mem	lib	mod	mod	low	tg	ht	wh/0574.bmp
241.20	0.72	326	3	5	7	per	lib	low	mod	low	tg	ht	wh/0678.bmp
241.92	0.72	327	3	8	2	per	lib	mod	mod	mod	nt	fa	nh/0666_nh.bmp
242.64	0.72	328	2	7	111	mem	con	mod	mod	mod	tg	ht	wh/0888.bmp
243.36	0.72	329	2	8	37	per	con	mod	mod	mod	nt	cr	nh/0544_nh.bmp
244.08	0.72	330	3	8	40	per	con	mod	mod	mod	nt	fa	nh/0978_nh.bmp
244.80	0.72	331	3	8	35	per	con	mod	mod	mod	tg	ms	wh/0852.bmp
245.52	0.72	332	4	6	81	mem	con	mod	mod	mod	tg	ht	wh/0495.bmp
246.24	0.72	333	3	5	4	per	lib	low	mod	low	nt	fa	nh/1019_nh.bmp
246.96	0.72	334	1	5	44	per	lib	mod	low	mod	nt	fa	nh/0951_nh.bmp
247.68	0.72	335	2	8	85	mem	lib	mod	mod	low	nt	ht	nh/0756_nh.bmp
248.40	0.72	336	2	5	60	per	con	mod	mod	mod	nt	cr	nh/0549_nh.bmp
249.12	0.72	337	3	7	64	mem	lib	mod	mod	mod	nt	ht	nh/0778_nh.bmp
249.84	0.72	338	3	8	64	mem	con	mod	mod	low	tg	ht	wh/0519.bmp
250.56	0.72	339	3	8	23	per	lib	low	mod	low	nt	fa	nh/0143_nh.bmp
251.28	0.72	340	5	8	88	mem	lib	mod	mod	low	nt	ht	nh/0401_nh.bmp
252.00	0.72	341	1	5	68	mem	lib	low	low	mod	tg	ms	wh/0907.bmp
252.72	0.72	342	6	6	78	per	lib	mod	mod	mod	tg	ms	wh/0020.bmp
253.44	0.72	343	3	7	114	per	con	low	mod	low	tg	ms	wh/0939.bmp
254.16	0.72	344	1	7	81	per	con	mod	low	mod	nt	cr	nh/0839_nh.bmp
254.88	0.72	345	4	6	89	mem	con	mod	mod	mod	tg	ms	wh/0715.bmp
255.60	0.72	346	4	7	124	per	con	low	mod	low	nt	cr	nh/0450_nh.bmp
256.32	0.72	347	4	8	18	per	lib	low	mod	low	tg	ms	wh/0647.bmp
257.04	0.72	348	3	8	9	per	lib	mod	mod	mod	tg	ms	wh/0915.bmp
257.76	0.72	349	1	8	113	per	con	low	low	low	nt	cr	nh/0202_nh.bmp
258.48	0.72	350	2	5	83	mem	lib	mod	mod	low	tg	ht	wh/1004.bmp
259.20	0.72	351	3	6	53	per	con	low	mod	low	tg	ms	wh/0064.bmp
259.92	0.72	352	4	5	5	per	lib	low	mod	low	nt	cr	nh/0170_nh.bmp
260.64	0.72	353	2	6	50	per	con	low	mod	low	nt	cr	nh/0780_nh.bmp
261.36	0.72	354	5	5	1	per	lib	low	mod	low	tg	ms	wh/0023.bmp
262.08	0.72	355	1	5	12	per	lib	low	mod	low	nt	cr	nh/0986_nh.bmp
262.80	0.72	356	3	6	62	per	con	low	mod	low	nt	cr	nh/0139_nh.bmp
263.52	0.72	357	4	5	50	per	con	mod	mod	mod	tg	ms	wh/0366.bmp
264.24	0.72	358	3	5	24	mem	con	mod	mod	low	nt	ht	nh/0746_nh.bmp
264.96	0.72	359	5	7	57	mem	lib	mod	mod	mod	tg	ms	wh/0835.bmp
265.68	0.72	360	4	8	2	per	lib	mod	mod	mod	nt	fa	nh/0666_nh.bmp
266.40	0.72	361	6	7	57	mem	lib	mod	mod	mod	tg	ms	wh/0835.bmp
267.12	0.72	362	2	6	8	mem	lib	mod	mod	mod	tg	ht	wh/0337.bmp
267.84	0.72	363	4	8	34	per	con	mod	mod	mod	nt	cr	nh/0763_nh.bmp
268.56	0.72	364	3	6	88	mem	con	mod	mod	mod	nt	ht	nh/0269_nh.bmp
269.28	0.72	365	1	5	18	mem	con	mod	mod	low	tg	ht	wh/0578.bmp
270.00	0.72	366	4	5	23	mem	con	mod	mod	low	nt	ht	nh/0403_nh.bmp
270.72	0.72	367	5	5	23	mem	con	mod	mod	low	nt	ht	nh/0403_nh.bmp
271.44	0.72	368	1	5	3	per	lib	low	mod	low	tg	ms	wh/0618.bmp
272.16	0.72	369	5	8	2	per	lib	mod	mod	mod	nt	fa	nh/0666_nh.bmp
272.88	0.72	370	3	5	27	mem	con	mod	mod	low	tg	ms	wh/0193.bmp
273.60	0.72	371	3	8	89	mem	lib	mod	mod	low	nt	ht	nh/0453_nh.bmp
274.32	0.72	372	2	6	63	per	con	low	mod	low	nt	cr	nh/0254_nh.bmp
275.04	0.72	373	2	8	45	per	con	mod	mod	mod	tg	ht	wh/0832.bmp
275.76	0.72	374	4	8	89	mem	lib	mod	mod	low	nt	ht	nh/0453_nh.bmp
276.48	0.72	375	2	6	84	mem	con	mod	mod	mod	nt	ht	nh/0871_nh.bmp
277.20	0.72	376	3	7	126	per	con	low	mod	low	tg	ms	wh/0848.bmp
277.92	0.72	377	4	5	4	per	lib	low	mod	low	nt	fa	nh/1019_nh.bmp
278.64	0.72	378	3	8	95	mem	lib	mod	mod	low	nt	ht	nh/0394_nh.bmp
279.36	0.72	379	4	5	94	mem	lib	mod	mod	low	nt	ht	nh/0820_nh.bmp
280.08	0.72	380	1	6	24	mem	con	low	low	low	tg	ht	wh/0280.bmp
280.80	0.72	381	3	8	92	mem	lib	mod	mod	low	tg	ht	wh/0248.bmp
281.52	0.72	382	4	8	90	mem	lib	mod	mod	low	tg	ht	wh/0176.bmp
282.24	0.72	383	1	7	9	per	lib	low	low	low	tg	ht	wh/0022.bmp
282.96	0.72	384	5	5	94	mem	lib	mod	mod	low	nt	ht	nh/0820_nh.bmp
283.68	0.72	385	5	7	99	mem	con	mod	mod	mod	nt	ms	nh/0420_nh.bmp
284.40	0.72	386	6	5	57	per	con	mod	mod	mod	nt	cr	nh/0822_nh.bmp
285.12	0.72	387	3	6	92	mem	con	mod	mod	mod	nt	ht	nh/0602_nh.bmp
285.84	0.72	388	2	5	12	per	lib	low	mod	low	nt	cr	nh/0986_nh.bmp
286.56	0.72	389	4	6	53	per	con	low	mod	low	tg	ms	wh/0064.bmp
287.28	0.72	390	2	5	3	per	lib	low	mod	low	tg	ms	wh/0618.bmp
288.00	0.72	391	4	8	64	mem	con	mod	mod	low	tg	ht	wh/0519.bmp
288.72	0.72	392	6	5	23	mem	con	mod	mod	low	nt	ht	nh/0403_nh.bmp
289.44	0.72	393	3	5	81	mem	lib	mod	mod	low	nt	ht	nh/0491_nh.bmp
290.16	0.72	394	1	6	99	per	lib	low	low	low	nt	cr	nh/0240_nh.bmp
290.88	0.72	395	4	8	95	mem	lib	mod	mod	low	nt	ht	nh/0394_nh.bmp
291.60	0.72	396	3	8	24	per	lib	low	mod	low	tg	ms	wh/0164.bmp
292.32	0.72	397	1	6	28	mem	con	low	low	low	nt	ht	nh/0063_nh.bmp
293.04	0.72	398	3	7	103	mem	con	mod	mod	mod	tg	ht	wh/0060.bmp
293.76	0.72	399	1	6	55	per	con	low	mod	low	tg	ms	wh/1014.bmp
294.48	0.72	400	4	8	83	mem	lib	mod	mod	low	tg	ms	wh/0814.bmp
295.20	0.72	401	3	6	58	per	con	low	mod	low	tg	ms	wh/0640.bmp
295.92	0.72	402	3	6	6	mem	lib	mod	mod	mod	nt	ht	nh/0408_nh.bmp
296.64	0.72	403	4	8	4	per	lib	mod	mod	mod	tg	ms	wh/0827.bmp
297.36	0.72	404	4	8	46	per	con	mod	mod	mod	tg	ht	wh/0300.bmp
298.08	0.72	405	3	5	25	mem	con	mod	mod	low	nt	ht	nh/0793_nh.bmp
298.80	0.72	406	4	8	53	mem	con	mod	mod	low	tg	ht	wh/0612.bmp
299.52	0.72	407	3	6	84	mem	con	mod	mod	mod	nt	ht	nh/0871_nh.bmp
300.24	0.72	408	3	8	45	per	con	mod	mod	mod	tg	ht	wh/0832.bmp
300.96	0.72	409	1	6	105	per	lib	low	low	low	nt	cr	nh/0224_nh.bmp
301.68	0.72	410	3	8	21	per	lib	low	mod	low	nt	fa	nh/0108_nh.bmp
302.40	0.72	411	2	7	107	mem	con	mod	mod	mod	tg	ht	wh/0294.bmp
303.12	0.72	412	1	8	71	mem	con	low	low	mod	nt	ht	nh/0416_nh.bmp
303.84	0.72	413	1	7	31	mem	con	low	low	low	tg	ht	wh/0657.bmp
304.56	0.72	414	3	5	10	per	lib	low	mod	low	nt	cr	nh/0892_nh.bmp
305.28	0.72	415	5	8	7	per	lib	mod	mod	mod	tg	ht	wh/0590.bmp
306.00	0.72	416	4	8	23	per	lib	low	mod	low	nt	fa	nh/0143_nh.bmp
306.72	0.72	417	3	6	67	per	lib	mod	mod	mod	nt	fa	nh/0694_nh.bmp
307.44	0.72	418	4	7	114	per	con	low	mod	low	tg	ms	wh/0939.bmp
308.16	0.72	419	4	8	62	mem	con	mod	mod	low	nt	ht	nh/0253_nh.bmp
308.88	0.72	420	3	8	37	per	con	mod	mod	mod	nt	cr	nh/0544_nh.bmp
309.60	0.72	421	3	8	51	mem	con	mod	mod	low	nt	ht	nh/0883_nh.bmp
310.32	0.72	422	1	5	102	per	con	low	low	low	tg	ms	wh/0138.bmp
311.04	0.72	423	4	6	88	mem	con	mod	mod	mod	nt	ht	nh/0269_nh.bmp
311.76	0.72	424	4	5	56	per	con	mod	mod	mod	tg	ht	wh/0629.bmp
312.48	0.72	425	3	6	63	per	con	low	mod	low	nt	cr	nh/0254_nh.bmp
313.20	0.72	426	1	8	65	mem	con	low	low	mod	nt	ht	nh/0091_nh.bmp
313.92	0.72	427	3	8	63	mem	con	mod	mod	low	nt	ht	nh/0297_nh.bmp
314.64	0.72	428	3	6	80	per	lib	mod	mod	mod	tg	ht	wh/0717.bmp
315.36	0.72	429	1	8	112	mem	lib	low	low	low	nt	ms	nh/0258_nh.bmp
316.08	0.72	430	2	5	87	mem	lib	mod	mod	low	tg	ht	wh/0241.bmp
316.80	0.72	431	3	6	65	per	lib	mod	mod	mod	tg	ms	wh/0952.bmp
317.52	0.72	432	3	5	20	mem	con	mod	mod	low	nt	ht	nh/0118_nh.bmp
318.24	0.72	433	4	6	84	mem	con	mod	mod	mod	nt	ht	nh/0871_nh.bmp
318.96	0.72	434	2	7	58	mem	lib	mod	mod	mod	tg	ht	wh/0318.bmp
319.68	0.72	435	5	6	10	mem	lib	mod	mod	mod	nt	ht	nh/0797_nh.bmp
320.40	0.72	436	4	5	10	per	lib	low	mod	low	nt	cr	nh/0892_nh.bmp
321.12	0.72	437	4	7	100	mem	con	mod	mod	mod	nt	ht	nh/0958_nh.bmp
321.84	0.72	438	5	7	124	per	con	low	mod	low	nt	cr	nh/0450_nh.bmp
322.56	0.72	439	2	5	54	per	con	mod	mod	mod	tg	ht	wh/0056.bmp
323.28	0.72	440	5	7	100	mem	con	mod	mod	mod	nt	ht	nh/0958_nh.bmp
324.00	0.72	441	2	7	54	mem	lib	mod	mod	mod	tg	ht	wh/0564.bmp
324.72	0.72	442	5	8	34	per	con	mod	mod	mod	nt	cr	nh/0763_nh.bmp
325.44	0.72	443	3	8	30	per	lib	low	mod	low	nt	cr	nh/0249_nh.bmp
326.16	0.72	444	2	8	84	mem	lib	mod	mod	low	tg	ht	wh/0114.bmp
326.88	0.72	445	1	7	45	mem	lib	low	low	mod	tg	ht	wh/0381.bmp
327.60	0.72	446	4	8	45	per	con	mod	mod	mod	tg	ht	wh/0832.bmp
328.32	0.72	447	1	8	114	per	con	low	low	low	nt	cr	nh/0058_nh.bmp
329.04	0.72	448	1	6	45	mem	lib	low	low	low	tg	ht	wh/0135.bmp
329.76	0.72	449	1	8	39	per	con	mod	mod	mod	tg	ht	wh/0586.bmp
330.48	0.72	450	2	6	72	per	lib	mod	mod	mod	tg	ht	wh/0378.bmp
331.20	0.72	451	1	6	60	per	con	low	mod	low	nt	cr	nh/0012_nh.bmp
331.92	0.72	452	3	7	118	per	con	low	mod	low	nt	cr	nh/0521_nh.bmp
332.64	0.72	453	4	5	82	mem	lib	mod	mod	low	tg	ht	wh/0875.bmp
333.36	0.72	454	2	5	18	mem	con	mod	mod	low	tg	ht	wh/0578.bmp
334.08	0.72	455	5	8	83	mem	lib	mod	mod	low	tg	ms	wh/0814.bmp
334.80	0.72	456	3	7	58	mem	lib	mod	mod	mod	tg	ht	wh/0318.bmp
335.52	0.72	457	6	8	2	per	lib	mod	mod	mod	nt	fa	nh/0666_nh.bmp
336.24	0.72	458	5	6	3	mem	lib	mod	mod	mod	tg	ms	wh/0560.bmp
336.96	0.72	459	2	7	115	per	con	low	mod	low	nt	fa	nh/0172_nh.bmp
337.68	0.72	460	3	7	127	per	con	low	mod	low	nt	cr	nh/0388_nh.bmp
338.40	0.72	461	4	5	81	mem	lib	mod	mod	low	nt	ht	nh/0491_nh.bmp
339.12	0.72	462	4	8	24	per	lib	low	mod	low	tg	ms	wh/0164.bmp
339.84	0.72	463	3	6	68	per	lib	mod	mod	mod	nt	cr	nh/0239_nh.bmp
340.56	0.72	464	4	8	13	per	lib	mod	mod	mod	nt	cr	nh/0821_nh.bmp
341.28	0.72	465	4	7	58	mem	lib	mod	mod	mod	tg	ht	wh/0318.bmp
342.00	0.72	466	4	7	97	mem	con	mod	mod	mod	nt	ms	nh/0686_nh.bmp
342.72	0.72	467	4	5	20	mem	con	mod	mod	low	nt	ht	nh/0118_nh.bmp
343.44	0.72	468	2	6	95	mem	con	mod	mod	mod	tg	ms	wh/0764.bmp
344.16	0.72	469	3	8	84	mem	lib	mod	mod	low	tg	ht	wh/0114.bmp
344.88	0.72	470	3	6	5	mem	lib	mod	mod	mod	tg	ht	wh/0995.bmp
345.60	0.72	471	3	5	90	mem	lib	mod	mod	low	nt	ht	nh/0073_nh.bmp
346.32	0.72	472	4	5	90	mem	lib	mod	mod	low	nt	ht	nh/0073_nh.bmp
347.04	0.72	473	5	8	12	per	lib	mod	mod	mod	nt	cr	nh/0275_nh.bmp
347.76	0.72	474	1	8	127	per	con	low	low	low	tg	ms	wh/0147.bmp
348.48	0.72	475	1	5	72	mem	lib	low	low	mod	nt	ht	nh/0948_nh.bmp
349.20	0.72	476	2	6	9	mem	lib	mod	mod	mod	tg	ht	wh/0623.bmp
349.92	0.72	477	4	6	92	mem	con	mod	mod	mod	nt	ht	nh/0602_nh.bmp
350.64	0.72	478	6	8	34	per	con	mod	mod	mod	nt	cr	nh/0763_nh.bmp
351.36	0.72	479	3	8	60	mem	con	mod	mod	low	tg	ht	wh/0863.bmp
352.08	0.72	480	1	8	120	per	con	low	low	low	tg	ht	wh/0089.bmp
352.80	0.72	481	2	6	55	per	con	low	mod	low	tg	ms	wh/1014.bmp
353.52	0.72	482	4	8	37	per	con	mod	mod	mod	nt	cr	nh/0544_nh.bmp
354.24	0.72	483	5	8	37	per	con	mod	mod	mod	nt	cr	nh/0544_nh.bmp
354.96	0.72	484	4	6	12	mem	lib	mod	mod	mod	nt	ht	nh/0833_nh.bmp
355.68	0.72	485	2	7	53	mem	lib	mod	mod	mod	nt	ht	nh/0399_nh.bmp
356.40	0.72	486	1	6	102	per	lib	low	low	low	nt	cr	nh/0770_nh.bmp
357.12	0.72	487	3	5	18	mem	con	mod	mod	low	tg	ht	wh/0578.bmp
357.84	0.72	488	3	7	115	per	con	low	mod	low	nt	fa	nh/0172_nh.bmp
358.56	0.72	489	5	8	13	per	lib	mod	mod	mod	nt	cr	nh/0821_nh.bmp
359.28	0.72	490	2	8	39	per	con	mod	mod	mod	tg	ht	wh/0586.bmp
360.00	0.72	491	3	5	31	mem	con	mod	mod	low	tg	ht	wh/0165.bmp
360.72	0.72	492	4	8	84	mem	lib	mod	mod	low	tg	ht	wh/0114.bmp
361.44	0.72	493	6	8	83	mem	lib	mod	mod	low	tg	ms	wh/0814.bmp
362.16	0.72	494	3	7	53	mem	lib	mod	mod	mod	nt	ht	nh/0399_nh.bmp
362.88	0.72	495	4	7	122	per	con	low	mod	low	tg	ht	wh/0042.bmp
363.60	0.72	496	4	8	92	mem	lib	mod	mod	low	tg	ht	wh/0248.bmp
364.32	0.72	497	2	5	53	per	con	mod	mod	mod	nt	cr	nh/0971_nh.bmp
365.04	0.72	498	4	6	61	per	con	low	mod	low	tg	ms	wh/0111.bmp
365.76	0.72	499	6	6	3	mem	lib	mod	mod	mod	tg	ms	wh/0560.bmp
366.48	0.72	500	5	5	82	mem	lib	mod	mod	low	tg	ht	wh/0875.bmp
367.20	0.72	501	4	6	58	per	con	low	mod	low	tg	ms	wh/0640.bmp
367.92	0.72	502	4	8	21	per	lib	low	mod	low	nt	fa	nh/0108_nh.bmp
368.64	0.72	503	5	7	114	per	con	low	mod	low	tg	ms	wh/0939.bmp
369.36	0.72	504	1	6	20	mem	con	low	low	low	tg	ht	wh/0570.bmp
370.08	0.72	505	4	5	85	mem	lib	mod	mod	low	nt	ht	nh/0582_nh.bmp
370.80	0.72	506	4	7	64	mem	lib	mod	mod	mod	nt	ht	nh/0778_nh.bmp
371.52	0.72	507	3	6	9	mem	lib	mod	mod	mod	tg	ht	wh/0623.bmp
372.24	0.72	508	4	8	35	per	con	mod	mod	mod	tg	ms	wh/0852.bmp
372.96	0.72	509	3	5	12	per	lib	low	mod	low	nt	cr	nh/0986_nh.bmp
373.68	0.72	510	3	5	59	per	con	mod	mod	mod	nt	fa	nh/0436_nh.bmp
374.40	0.72	511	3	7	111	mem	con	mod	mod	mod	tg	ht	wh/0888.bmp
375.12	0.72	512	3	8	39	per	con	mod	mod	mod	tg	ht	wh/0586.bmp
375.84	0.72	513	5	5	10	per	lib	low	mod	low	nt	cr	nh/0892_nh.bmp
376.56	0.72	514	5	8	46	per	con	mod	mod	mod	tg	ht	wh/0300.bmp
377.28	0.72	515	3	8	22	per	lib	low	mod	low	tg	ht	wh/0247.bmp
378.00	0.72	516	5	8	53	mem	con	mod	mod	low	tg	ht	wh/0612.bmp
378.72	0.72	517	5	6	53	per	con	low	mod	low	tg	ms	wh/0064.bmp
379.44	0.72	518	3	7	107	mem	con	mod	mod	mod	tg	ht	wh/0294.bmp
380.16	0.72	519	4	8	63	mem	con	mod	mod	low	nt	ht	nh/0297_nh.bmp
380.88	0.72	520	2	6	90	mem	con	mod	mod	mod	tg	ht	wh/0851.bmp
381.60	0.72	521	4	7	107	mem	con	mod	mod	mod	tg	ht	wh/0294.bmp
382.32	0.72	522	4	6	63	per	con	low	mod	low	nt	cr	nh/0254_nh.bmp
383.04	0.72	523	1	5	117	mem	con	low	low	mod	nt	ht	nh/0101_nh.bmp
383.76	0.72	524	3	6	55	per	con	low	mod	low	tg	ms	wh/1014.bmp
384.48	0.72	525	1	6	26	mem	con	low	low	low	tg	ht	wh/0880.bmp
385.20	0.72	526	4	8	22	per	lib	low	mod	low	tg	ht	wh/0247.bmp
385.92	0.72	527	2	7	50	mem	lib	mod	mod	mod	nt	ht	nh/0735_nh.bmp
386.64	0.72	528	3	5	51	per	con	mod	mod	mod	tg	ht	wh/0179.bmp
387.36	0.72	529	5	8	64	mem	con	mod	mod	low	tg	ht	wh/0519.bmp
388.08	0.72	530	4	6	91	mem	con	mod	mod	mod	nt	ht	nh/0609_nh.bmp
388.80	0.72	531	6	8	7	per	lib	mod	mod	mod	tg	ht	wh/0590.bmp
389.52	0.72	532	3	6	95	mem	con	mod	mod	mod	tg	ms	wh/0764.bmp
390.24	0.72	533	5	5	50	per	con	mod	mod	mod	tg	ms	wh/0366.bmp
390.96	0.72	534	1	5	70	mem	lib	low	low	mod	tg	ht	wh/0749.bmp
391.68	0.72	535	4	8	9	per	lib	mod	mod	mod	tg	ms	wh/0915.bmp
392.40	0.72	536	4	8	60	mem	con	mod	mod	low	tg	ht	wh/0863.bmp
393.12	0.72	537	3	5	13	per	lib	low	mod	low	tg	ms	wh/0018.bmp
393.84	0.72	538	1	7	72	per	lib	mod	low	mod	nt	cr	nh/0622_nh.bmp
394.56	0.72	539	3	7	119	per	con	low	mod	low	tg	ht	wh/0255.bmp
395.28	0.72	540	3	5	3	per	lib	low	mod	low	tg	ms	wh/0618.bmp
396.00	0.72	541	3	5	54	per	con	mod	mod	mod	tg	ht	wh/0056.bmp
396.72	0.72	542	4	5	13	per	lib	low	mod	low	tg	ms	wh/0018.bmp
397.44	0.72	543	5	8	84	mem	lib	mod	mod	low	tg	ht	wh/0114.bmp
398.16	0.72	544	5	7	64	mem	lib	mod	mod	mod	nt	ht	nh/0778_nh.bmp
398.88	0.72	545	5	5	56	per	con	mod	mod	mod	tg	ht	wh/0629.bmp
399.60	0.72	546	5	5	20	mem	con	mod	mod	low	nt	ht	nh/0118_nh.bmp
400.32	0.72	547	4	6	6	mem	lib	mod	mod	mod	nt	ht	nh/0408_nh.bmp
401.04	0.72	548	4	6	67	per	lib	mod	mod	mod	nt	fa	nh/0694_nh.bmp
401.76	0.72	549	5	6	63	per	con	low	mod	low	nt	cr	nh/0254_nh.bmp
402.48	0.72	550	5	7	58	mem	lib	mod	mod	mod	tg	ht	wh/0318.bmp
403.20	0.72	551	2	6	69	per	lib	mod	mod	mod	nt	cr	nh/0603_nh.bmp
403.92	0.72	552	5	8	63	mem	con	mod	mod	low	nt	ht	nh/0297_nh.bmp
404.64	0.72	553	5	7	97	mem	con	mod	mod	mod	nt	ms	nh/0686_nh.bmp
405.36	0.72	554	3	8	42	per	con	mod	mod	mod	nt	cr	nh/0552_nh.bmp
406.08	0.72	555	5	8	90	mem	lib	mod	mod	low	tg	ht	wh/0176.bmp
406.80	0.72	556	5	7	122	per	con	low	mod	low	tg	ht	wh/0042.bmp
407.52	0.72	557	3	6	8	mem	lib	mod	mod	mod	tg	ht	wh/0337.bmp
408.24	0.72	558	3	5	53	per	con	mod	mod	mod	nt	cr	nh/0971_nh.bmp
408.96	0.72	559	5	8	95	mem	lib	mod	mod	low	nt	ht	nh/0394_nh.bmp
409.68	0.72	560	1	7	86	per	con	mod	low	mod	nt	cr	nh/0611_nh.bmp
410.40	0.72	561	4	8	39	per	con	mod	mod	mod	tg	ht	wh/0586.bmp
411.12	0.72	562	2	6	60	per	con	low	mod	low	nt	cr	nh/0012_nh.bmp
411.84	0.72	563	4	6	65	per	lib	mod	mod	mod	tg	ms	wh/0952.bmp
412.56	0.72	564	3	7	50	mem	lib	mod	mod	mod	nt	ht	nh/0735_nh.bmp
413.28	0.72	565	4	5	54	per	con	mod	mod	mod	tg	ht	wh/0056.bmp
414.00	0.72	566	1	6	74	per	lib	mod	mod	mod	nt	cr	nh/0556_nh.bmp
414.72	0.72	567	6	7	122	per	con	low	mod	low	tg	ht	wh/0042.bmp
415.44	0.72	568	3	6	72	per	lib	mod	mod	mod	tg	ht	wh/0378.bmp
416.16	0.72	569	4	7	127	per	con	low	mod	low	nt	cr	nh/0388_nh.bmp
416.88	0.72	570	4	7	50	mem	lib	mod	mod	mod	nt	ht	nh/0735_nh.bmp
417.60	0.72	571	4	6	62	per	con	low	mod	low	nt	cr	nh/0139_nh.bmp
418.32	0.72	572	3	6	60	per	con	low	mod	low	nt	cr	nh/0012_nh.bmp
419.04	0.72	573	4	5	3	per	lib	low	mod	low	tg	ms	wh/0618.bmp
419.76	0.72	574	1	7	47	mem	lib	low	low	mod	nt	ht	nh/0372_nh.bmp
420.48	0.72	575	6	7	58	mem	lib	mod	mod	mod	tg	ht	wh/0318.bmp
421.20	0.72	576	4	6	68	per	lib	mod	mod	mod	nt	cr	nh/0239_nh.bmp
421.92	0.72	577	6	8	12	per	lib	mod	mod	mod	nt	cr	nh/0275_nh.bmp
422.64	0.72	578	4	6	55	per	con	low	mod	low	tg	ms	wh/1014.bmp
423.36	0.72	579	4	6	5	mem	lib	mod	mod	mod	tg	ht	wh/0995.bmp
424.08	0.72	580	1	8	101	mem	lib	low	low	low	nt	ht	nh/0154_nh.bmp
424.80	0.72	581	5	5	13	per	lib	low	mod	low	tg	ms	wh/0018.bmp
425.52	0.72	582	4	5	12	per	lib	low	mod	low	nt	cr	nh/0986_nh.bmp
426.24	0.72	583	5	6	88	mem	con	mod	mod	mod	nt	ht	nh/0269_nh.bmp
426.96	0.72	584	1	8	70	mem	con	low	low	mod	tg	ms	wh/0673.bmp
427.68	0.72	585	1	6	40	mem	lib	low	low	low	tg	ms	wh/0268.bmp
428.40	0.72	586	5	8	23	per	lib	low	mod	low	nt	fa	nh/0143_nh.bmp
429.12	0.72	587	1	7	20	mem	con	low	low	low	tg	ms	wh/0034.bmp
429.84	0.72	588	4	8	29	per	lib	low	mod	low	nt	cr	nh/0262_nh.bmp
430.56	0.72	589	5	8	24	per	lib	low	mod	low	tg	ms	wh/0164.bmp
431.28	0.72	590	1	5	128	mem	con	low	low	mod	tg	ms	wh/0668.bmp
432.00	0.72	591	5	8	22	per	lib	low	mod	low	tg	ht	wh/0247.bmp
432.72	0.72	592	1	8	97	mem	lib	low	low	low	tg	ht	wh/0865.bmp
433.44	0.72	593	4	6	60	per	con	low	mod	low	nt	cr	nh/0012_nh.bmp
434.16	0.72	594	3	5	87	mem	lib	mod	mod	low	tg	ht	wh/0241.bmp
434.88	0.72	595	4	5	51	per	con	mod	mod	mod	tg	ht	wh/0179.bmp
435.60	0.72	596	1	7	66	per	lib	mod	low	mod	tg	ms	wh/0945.bmp
436.32	0.72	597	5	6	1	mem	lib	mod	mod	mod	nt	ht	nh/0599_nh.bmp
437.04	0.72	598	1	7	14	per	lib	low	low	low	nt	fa	nh/0737_nh.bmp
437.76	0.72	599	5	6	84	mem	con	mod	mod	mod	nt	ht	nh/0871_nh.bmp
438.48	0.72	600	3	6	50	per	con	low	mod	low	nt	cr	nh/0780_nh.bmp
439.20	0.72	601	4	5	87	mem	lib	mod	mod	low	tg	ht	wh/0241.bmp
439.92	0.72	602	5	8	62	mem	con	mod	mod	low	nt	ht	nh/0253_nh.bmp
440.64	0.72	603	5	8	89	mem	lib	mod	mod	low	nt	ht	nh/0453_nh.bmp
441.36	0.72	604	5	7	127	per	con	low	mod	low	nt	cr	nh/0388_nh.bmp
442.08	0.72	605	3	6	69	per	lib	mod	mod	mod	nt	cr	nh/0603_nh.bmp
442.80	0.72	606	5	5	12	per	lib	low	mod	low	nt	cr	nh/0986_nh.bmp
443.52	0.72	607	1	7	71	per	lib	mod	low	mod	tg	ht	wh/0688.bmp
444.24	0.72	608	4	5	24	mem	con	mod	mod	low	nt	ht	nh/0746_nh.bmp
444.96	0.72	609	2	6	74	per	lib	mod	mod	mod	nt	cr	nh/0556_nh.bmp
445.68	0.72	610	1	6	123	per	con	mod	low	mod	nt	cr	nh/1005_nh.bmp
446.40	0.72	611	4	8	40	per	con	mod	mod	mod	nt	fa	nh/0978_nh.bmp
447.12	0.72	612	4	7	111	mem	con	mod	mod	mod	tg	ht	wh/0888.bmp
447.84	0.72	613	3	7	54	mem	lib	mod	mod	mod	tg	ht	wh/0564.bmp
448.56	0.72	614	3	7	109	mem	con	mod	mod	mod	nt	ht	nh/0546_nh.bmp
449.28	0.72	615	6	6	53	per	con	low	mod	low	tg	ms	wh/0064.bmp
450.00	0.72	616	4	7	115	per	con	low	mod	low	nt	fa	nh/0172_nh.bmp
450.72	0.72	617	4	5	31	mem	con	mod	mod	low	tg	ht	wh/0165.bmp
451.44	0.72	618	6	6	84	mem	con	mod	mod	mod	nt	ht	nh/0871_nh.bmp
452.16	0.72	619	5	5	54	per	con	mod	mod	mod	tg	ht	wh/0056.bmp
452.88	0.72	620	6	5	56	per	con	mod	mod	mod	tg	ht	wh/0629.bmp
453.60	0.72	621	5	6	68	per	lib	mod	mod	mod	nt	cr	nh/0239_nh.bmp
454.32	0.72	622	4	6	72	per	lib	mod	mod	mod	tg	ht	wh/0378.bmp
455.04	0.72	623	5	6	6	mem	lib	mod	mod	mod	nt	ht	nh/0408_nh.bmp
455.76	0.72	624	5	7	63	mem	lib	mod	mod	mod	tg	ht	wh/0086.bmp
456.48	0.72	625	3	5	60	per	con	mod	mod	mod	nt	cr	nh/0549_nh.bmp
457.20	0.72	626	6	7	64	mem	lib	mod	mod	mod	nt	ht	nh/0778_nh.bmp
457.92	0.72	627	5	6	61	per	con	low	mod	low	tg	ms	wh/0111.bmp
458.64	0.72	628	5	6	58	per	con	low	mod	low	tg	ms	wh/0640.bmp
459.36	0.72	629	6	6	58	per	con	low	mod	low	tg	ms	wh/0640.bmp
460.08	0.72	630	5	8	21	per	lib	low	mod	low	nt	fa	nh/0108_nh.bmp
460.80	0.72	631	6	8	23	per	lib	low	mod	low	nt	fa	nh/0143_nh.bmp
461.52	0.72	632	6	5	12	per	lib	low	mod	low	nt	cr	nh/0986_nh.bmp
462.24	0.72	633	4	5	59	per	con	mod	mod	mod	nt	fa	nh/0436_nh.bmp
462.96	0.72	634	1	8	77	mem	con	low	low	mod	nt	ms	nh/0084_nh.bmp
463.68	0.72	635	1	7	91	per	con	mod	low	mod	tg	ms	wh/0046.bmp
464.40	0.72	636	4	6	50	per	con	low	mod	low	nt	cr	nh/0780_nh.bmp
465.12	0.72	637	4	5	60	per	con	mod	mod	mod	nt	cr	nh/0549_nh.bmp
465.84	0.72	638	6	8	22	per	lib	low	mod	low	tg	ht	wh/0247.bmp
466.56	0.72	639	1	7	69	per	lib	mod	low	mod	tg	ht	wh/0980.bmp
467.28	0.72	640	4	8	58	mem	con	mod	mod	low	nt	ht	nh/0157_nh.bmp
468.00	0.72	641	3	8	5	per	lib	mod	mod	mod	tg	ht	wh/0968.bmp
468.72	0.72	642	6	8	21	per	lib	low	mod	low	nt	fa	nh/0108_nh.bmp
469.44	0.72	643	5	8	60	mem	con	mod	mod	low	tg	ht	wh/0863.bmp
470.16	0.72	644	4	8	42	per	con	mod	mod	mod	nt	cr	nh/0552_nh.bmp
470.88	0.72	645	5	6	12	mem	lib	mod	mod	mod	nt	ht	nh/0833_nh.bmp
471.60	0.72	646	1	5	125	mem	con	low	low	mod	tg	ms	wh/0389.bmp
472.32	0.72	647	5	5	85	mem	lib	mod	mod	low	nt	ht	nh/0582_nh.bmp
473.04	0.72	648	5	5	3	per	lib	low	mod	low	tg	ms	wh/0618.bmp
473.76	0.72	649	6	8	61	mem	con	mod	mod	low	tg	ms	wh/0024.bmp
474.48	0.72	650	1	6	115	per	con	mod	low	mod	tg	ht	wh/0051.bmp
475.20	0.72	651	5	7	111	mem	con	mod	mod	mod	tg	ht	wh/0888.bmp
475.92	0.72	652	5	8	92	mem	lib	mod	mod	low	tg	ht	wh/0248.bmp
476.64	0.72	653	5	8	39	per	con	mod	mod	mod	tg	ht	wh/0586.bmp
477.36	0.72	654	6	6	12	mem	lib	mod	mod	mod	nt	ht	nh/0833_nh.bmp
478.08	0.72	655	5	8	42	per	con	mod	mod	mod	nt	cr	nh/0552_nh.bmp
478.80	0.72	656	5	5	30	mem	con	mod	mod	low	tg	ht	wh/0374.bmp
479.52	0.72	657	6	8	16	per	lib	mod	mod	mod	nt	cr	nh/0638_nh.bmp
480.24	0.72	658	6	6	68	per	lib	mod	mod	mod	nt	cr	nh/0239_nh.bmp
480.96	0.72	659	5	6	50	per	con	low	mod	low	nt	cr	nh/0780_nh.bmp
481.68	0.72	660	1	8	76	mem	con	low	low	mod	tg	ms	wh/0732.bmp
482.40	0.72	661	1	8	124	per	con	low	low	low	nt	cr	nh/0226_nh.bmp
483.12	0.72	662	5	8	9	per	lib	mod	mod	mod	tg	ms	wh/0915.bmp
483.84	0.72	663	5	7	56	mem	lib	mod	mod	mod	nt	ht	nh/0385_nh.bmp
484.56	0.72	664	3	5	83	mem	lib	mod	mod	low	tg	ht	wh/1004.bmp
485.28	0.72	665	4	5	27	mem	con	mod	mod	low	tg	ms	wh/0193.bmp
486.00	0.72	666	3	8	85	mem	lib	mod	mod	low	nt	ht	nh/0756_nh.bmp
486.72	0.72	667	1	6	38	mem	lib	low	low	low	nt	ht	nh/0352_nh.bmp
487.44	0.72	668	4	7	118	per	con	low	mod	low	nt	cr	nh/0521_nh.bmp
488.16	0.72	669	5	5	31	mem	con	mod	mod	low	tg	ht	wh/0165.bmp
488.88	0.72	670	4	7	119	per	con	low	mod	low	tg	ht	wh/0255.bmp
489.60	0.72	671	4	5	7	per	lib	low	mod	low	tg	ht	wh/0678.bmp
490.32	0.72	672	4	8	5	per	lib	mod	mod	mod	tg	ht	wh/0968.bmp
491.04	0.72	673	5	5	5	per	lib	low	mod	low	nt	cr	nh/0170_nh.bmp
491.76	0.72	674	1	6	101	per	lib	low	low	low	tg	ms	wh/0144.bmp
492.48	0.72	675	3	6	74	per	lib	mod	mod	mod	nt	cr	nh/0556_nh.bmp
493.20	0.72	676	1	6	128	per	con	mod	low	mod	nt	cr	nh/0475_nh.bmp
493.92	0.72	677	1	5	120	mem	con	low	low	mod	nt	ms	nh/0631_nh.bmp
494.64	0.72	678	5	6	91	mem	con	mod	mod	mod	nt	ht	nh/0609_nh.bmp
495.36	0.72	679	1	8	109	mem	lib	low	low	low	nt	ht	nh/0482_nh.bmp
496.08	0.72	680	1	5	35	per	lib	mod	low	mod	nt	cr	nh/0188_nh.bmp
496.80	0.72	681	4	5	25	mem	con	mod	mod	low	nt	ht	nh/0793_nh.bmp
497.52	0.72	682	6	5	20	mem	con	mod	mod	low	nt	ht	nh/0118_nh.bmp
498.24	0.72	683	1	7	8	per	lib	low	low	low	nt	cr	nh/0990_nh.bmp
498.96	0.72	684	4	7	103	mem	con	mod	mod	mod	tg	ht	wh/0060.bmp
499.68	0.72	685	6	6	50	per	con	low	mod	low	nt	cr	nh/0780_nh.bmp
500.40	0.72	686	6	7	97	mem	con	mod	mod	mod	nt	ms	nh/0686_nh.bmp
501.12	0.72	687	5	6	62	per	con	low	mod	low	nt	cr	nh/0139_nh.bmp
501.84	0.72	688	5	8	35	per	con	mod	mod	mod	tg	ms	wh/0852.bmp
502.56	0.72	689	6	6	61	per	con	low	mod	low	tg	ms	wh/0111.bmp
503.28	0.72	690	1	5	71	mem	lib	low	low	mod	tg	ht	wh/0180.bmp
504.00	0.72	691	5	5	60	per	con	mod	mod	mod	nt	cr	nh/0549_nh.bmp
504.72	0.72	692	5	8	58	mem	con	mod	mod	low	nt	ht	nh/0157_nh.bmp
505.44	0.72	693	4	7	54	mem	lib	mod	mod	mod	tg	ht	wh/0564.bmp
506.16	0.72	694	6	8	62	mem	con	mod	mod	low	nt	ht	nh/0253_nh.bmp
506.88	0.72	695	4	8	51	mem	con	mod	mod	low	nt	ht	nh/0883_nh.bmp
507.60	0.72	696	1	5	121	mem	con	low	low	mod	nt	ht	nh/0559_nh.bmp
508.32	0.72	697	1	5	104	per	con	low	low	low	tg	ht	wh/0825.bmp
509.04	0.72	698	6	7	100	mem	con	mod	mod	mod	nt	ht	nh/0958_nh.bmp
509.76	0.72	699	5	6	89	mem	con	mod	mod	mod	tg	ms	wh/0715.bmp
510.48	0.72	700	4	7	126	per	con	low	mod	low	tg	ms	wh/0848.bmp
511.20	0.72	701	3	8	25	per	lib	low	mod	low	tg	ht	wh/0734.bmp
511.92	0.72	702	6	5	85	mem	lib	mod	mod	low	nt	ht	nh/0582_nh.bmp
512.64	0.72	703	5	8	29	per	lib	low	mod	low	nt	cr	nh/0262_nh.bmp
513.36	0.72	704	4	6	80	per	lib	mod	mod	mod	tg	ht	wh/0717.bmp
514.08	0.72	705	6	5	5	per	lib	low	mod	low	nt	cr	nh/0170_nh.bmp
514.80	0.72	706	4	7	109	mem	con	mod	mod	mod	nt	ht	nh/0546_nh.bmp
515.52	0.72	707	5	5	4	per	lib	low	mod	low	nt	fa	nh/1019_nh.bmp
516.24	0.72	708	1	8	117	per	con	low	low	low	nt	cr	nh/1011_nh.bmp
516.96	0.72	709	5	6	67	per	lib	mod	mod	mod	nt	fa	nh/0694_nh.bmp
517.68	0.72	710	5	5	7	per	lib	low	mod	low	tg	ht	wh/0678.bmp
518.40	0.72	711	5	7	54	mem	lib	mod	mod	mod	tg	ht	wh/0564.bmp
519.12	0.72	712	4	5	88	mem	lib	mod	mod	low	tg	ht	wh/0574.bmp
519.84	0.72	713	5	7	118	per	con	low	mod	low	nt	cr	nh/0521_nh.bmp
520.56	0.72	714	6	8	39	per	con	mod	mod	mod	tg	ht	wh/0586.bmp
521.28	0.72	715	4	8	25	per	lib	low	mod	low	tg	ht	wh/0734.bmp
522.00	0.72	716	5	6	60	per	con	low	mod	low	nt	cr	nh/0012_nh.bmp
522.72	0.72	717	4	5	18	mem	con	mod	mod	low	tg	ht	wh/0578.bmp
523.44	0.72	718	4	8	30	per	lib	low	mod	low	nt	cr	nh/0249_nh.bmp
524.16	0.72	719	1	6	27	mem	con	low	low	low	nt	ms	nh/0617_nh.bmp
524.88	0.72	720	1	5	80	mem	lib	low	low	mod	nt	ht	nh/0837_nh.bmp
525.60	0.72	721	6	6	91	mem	con	mod	mod	mod	nt	ht	nh/0609_nh.bmp
526.32	0.72	722	1	5	73	mem	lib	low	low	mod	tg	ht	wh/0545.bmp
527.04	0.72	723	4	7	53	mem	lib	mod	mod	mod	nt	ht	nh/0399_nh.bmp
527.76	0.72	724	5	7	103	mem	con	mod	mod	mod	tg	ht	wh/0060.bmp
528.48	0.72	725	4	5	53	per	con	mod	mod	mod	nt	cr	nh/0971_nh.bmp
529.20	0.72	726	1	8	102	mem	lib	low	low	low	tg	ht	wh/0468.bmp
529.92	0.72	727	5	8	30	per	lib	low	mod	low	nt	cr	nh/0249_nh.bmp
530.64	0.72	728	5	8	18	per	lib	low	mod	low	tg	ms	wh/0647.bmp
531.36	0.72	729	6	6	62	per	con	low	mod	low	nt	cr	nh/0139_nh.bmp
532.08	0.72	730	6	8	46	per	con	mod	mod	mod	tg	ht	wh/0300.bmp
532.80	0.72	731	1	7	37	mem	lib	low	low	mod	nt	ht	nh/0305_nh.bmp
533.52	0.72	732	5	8	25	per	lib	low	mod	low	tg	ht	wh/0734.bmp
534.24	0.72	733	5	6	5	mem	lib	mod	mod	mod	tg	ht	wh/0995.bmp
534.96	0.72	734	5	8	4	per	lib	mod	mod	mod	tg	ms	wh/0827.bmp
535.68	0.72	735	6	7	118	per	con	low	mod	low	nt	cr	nh/0521_nh.bmp
536.40	0.72	736	4	8	85	mem	lib	mod	mod	low	nt	ht	nh/0756_nh.bmp
537.12	0.72	737	5	8	5	per	lib	mod	mod	mod	tg	ht	wh/0968.bmp
537.84	0.72	738	3	6	90	mem	con	mod	mod	mod	tg	ht	wh/0851.bmp
538.56	0.72	739	6	8	88	mem	lib	mod	mod	low	nt	ht	nh/0401_nh.bmp
539.28	0.72	740	5	5	87	mem	lib	mod	mod	low	tg	ht	wh/0241.bmp
540.00	0.72	741	6	8	63	mem	con	mod	mod	low	nt	ht	nh/0297_nh.bmp
540.72	0.72	742	6	8	53	mem	con	mod	mod	low	tg	ht	wh/0612.bmp
541.44	0.72	743	1	7	5	per	lib	low	low	low	nt	cr	nh/0516_nh.bmp
542.16	0.72	744	1	7	87	per	con	mod	low	mod	nt	cr	nh/0349_nh.bmp
542.88	0.72	745	6	6	88	mem	con	mod	mod	mod	nt	ht	nh/0269_nh.bmp
543.60	0.72	746	5	5	27	mem	con	mod	mod	low	tg	ms	wh/0193.bmp
544.32	0.72	747	1	5	79	mem	lib	low	low	mod	nt	ht	nh/0016_nh.bmp
545.04	0.72	748	6	7	54	mem	lib	mod	mod	mod	tg	ht	wh/0564.bmp
545.76	0.72	749	4	6	90	mem	con	mod	mod	mod	tg	ht	wh/0851.bmp
546.48	0.72	750	6	5	3	per	lib	low	mod	low	tg	ms	wh/0618.bmp
547.20	0.72	751	5	5	25	mem	con	mod	mod	low	nt	ht	nh/0793_nh.bmp
547.92	0.72	752	1	6	46	mem	lib	low	low	low	nt	ht	nh/0480_nh.bmp
548.64	0.72	753	1	6	47	mem	lib	low	low	low	nt	ms	nh/0376_nh.bmp
549.36	0.72	754	5	7	119	per	con	low	mod	low	tg	ht	wh/0255.bmp
550.08	0.72	755	5	6	80	per	lib	mod	mod	mod	tg	ht	wh/0717.bmp
550.80	0.72	756	6	5	4	per	lib	low	mod	low	nt	fa	nh/1019_nh.bmp
551.52	0.72	757	5	7	107	mem	con	mod	mod	mod	tg	ht	wh/0294.bmp
552.24	0.72	758	6	6	60	per	con	low	mod	low	nt	cr	nh/0012_nh.bmp
552.96	0.72	759	5	5	88	mem	lib	mod	mod	low	tg	ht	wh/0574.bmp
553.68	0.72	760	5	7	50	mem	lib	mod	mod	mod	nt	ht	nh/0735_nh.bmp
554.40	0.72	761	5	5	24	mem	con	mod	mod	low	nt	ht	nh/0746_nh.bmp
555.12	0.72	762	5	5	53	per	con	mod	mod	mod	nt	cr	nh/0971_nh.bmp
555.84	0.72	763	1	6	104	per	lib	low	low	low	tg	ht	wh/0005.bmp
556.56	0.72	764	6	5	24	mem	con	mod	mod	low	nt	ht	nh/0746_nh.bmp
557.28	0.72	765	6	5	25	mem	con	mod	mod	low	nt	ht	nh/0793_nh.bmp
558.00	0.72	766	6	8	90	mem	lib	mod	mod	low	tg	ht	wh/0176.bmp
558.72	0.72	767	5	8	40	per	con	mod	mod	mod	nt	fa	nh/0978_nh.bmp
559.44	0.72	768	6	5	1	per	lib	low	mod	low	tg	ms	wh/0023.bmp
560.16	0.72	769	6	6	6	mem	lib	mod	mod	mod	nt	ht	nh/0408_nh.bmp
560.88	0.72	770	1	7	28	mem	con	low	low	low	nt	ht	nh/0518_nh.bmp
561.60	0.72	771	1	8	125	per	con	low	low	low	tg	ms	wh/0587.bmp
562.32	0.72	772	5	6	92	mem	con	mod	mod	mod	nt	ht	nh/0602_nh.bmp
563.04	0.72	773	1	7	94	per	con	mod	low	mod	tg	ms	wh/0921.bmp
563.76	0.72	774	6	6	1	mem	lib	mod	mod	mod	nt	ht	nh/0599_nh.bmp
564.48	0.72	775	6	5	54	per	con	mod	mod	mod	tg	ht	wh/0056.bmp
565.20	0.72	776	6	5	87	mem	lib	mod	mod	low	tg	ht	wh/0241.bmp
565.92	0.72	777	5	5	81	mem	lib	mod	mod	low	nt	ht	nh/0491_nh.bmp
566.64	0.72	778	6	5	13	per	lib	low	mod	low	tg	ms	wh/0018.bmp
567.36	0.72	779	1	6	25	mem	con	low	low	low	nt	ht	nh/0244_nh.bmp
568.08	0.72	780	6	5	53	per	con	mod	mod	mod	nt	cr	nh/0971_nh.bmp
568.80	0.72	781	6	5	60	per	con	mod	mod	mod	nt	cr	nh/0549_nh.bmp
569.52	0.72	782	1	6	32	mem	con	low	low	low	tg	ms	wh/0929.bmp
570.24	0.72	783	4	6	74	per	lib	mod	mod	mod	nt	cr	nh/0556_nh.bmp
570.96	0.72	784	4	5	83	mem	lib	mod	mod	low	tg	ht	wh/1004.bmp
571.68	0.72	785	4	6	95	mem	con	mod	mod	mod	tg	ms	wh/0764.bmp
572.40	0.72	786	5	6	65	per	lib	mod	mod	mod	tg	ms	wh/0952.bmp
573.12	0.72	787	5	6	74	per	lib	mod	mod	mod	nt	cr	nh/0556_nh.bmp
573.84	0.72	788	5	6	72	per	lib	mod	mod	mod	tg	ht	wh/0378.bmp
574.56	0.72	789	4	6	9	mem	lib	mod	mod	mod	tg	ht	wh/0623.bmp
575.28	0.72	790	6	7	111	mem	con	mod	mod	mod	tg	ht	wh/0888.bmp
576.00	0.72	791	6	8	40	per	con	mod	mod	mod	nt	fa	nh/0978_nh.bmp
576.72	0.72	792	5	6	90	mem	con	mod	mod	mod	tg	ht	wh/0851.bmp
577.44	0.72	793	6	8	30	per	lib	low	mod	low	nt	cr	nh/0249_nh.bmp
578.16	0.72	794	5	5	51	per	con	mod	mod	mod	tg	ht	wh/0179.bmp
578.88	0.72	795	6	7	119	per	con	low	mod	low	tg	ht	wh/0255.bmp
579.60	0.72	796	6	5	82	mem	lib	mod	mod	low	tg	ht	wh/0875.bmp
580.32	0.72	797	1	7	90	per	con	mod	low	mod	tg	ht	wh/0227.bmp
581.04	0.72	798	6	6	80	per	lib	mod	mod	mod	tg	ht	wh/0717.bmp
581.76	0.72	799	4	6	8	mem	lib	mod	mod	mod	tg	ht	wh/0337.bmp
582.48	0.72	800	6	8	89	mem	lib	mod	mod	low	nt	ht	nh/0453_nh.bmp
583.20	0.72	801	6	8	92	mem	lib	mod	mod	low	tg	ht	wh/0248.bmp
583.92	0.72	802	6	5	30	mem	con	mod	mod	low	tg	ht	wh/0374.bmp
584.64	0.72	803	6	7	114	per	con	low	mod	low	tg	ms	wh/0939.bmp
585.36	0.72	804	4	6	69	per	lib	mod	mod	mod	nt	cr	nh/0603_nh.bmp
586.08	0.72	805	6	8	95	mem	lib	mod	mod	low	nt	ht	nh/0394_nh.bmp
586.80	0.72	806	6	6	63	per	con	low	mod	low	nt	cr	nh/0254_nh.bmp
587.52	0.72	807	1	5	36	per	lib	mod	low	mod	tg	ht	wh/0779.bmp
588.24	0.72	808	5	7	126	per	con	low	mod	low	tg	ms	wh/0848.bmp
588.96	0.72	809	5	6	69	per	lib	mod	mod	mod	nt	cr	nh/0603_nh.bmp
589.68	0.72	810	6	8	18	per	lib	low	mod	low	tg	ms	wh/0647.bmp
590.40	0.72	811	6	7	107	mem	con	mod	mod	mod	tg	ht	wh/0294.bmp
591.12	0.72	812	6	8	84	mem	lib	mod	mod	low	tg	ht	wh/0114.bmp
591.84	0.72	813	1	5	103	per	con	low	low	low	tg	ms	wh/0677.bmp
592.56	0.72	814	5	5	18	mem	con	mod	mod	low	tg	ht	wh/0578.bmp
593.28	0.72	815	6	7	124	per	con	low	mod	low	nt	cr	nh/0450_nh.bmp
594.00	0.72	816	5	6	95	mem	con	mod	mod	mod	tg	ms	wh/0764.bmp
594.72	0.72	817	6	6	5	mem	lib	mod	mod	mod	tg	ht	wh/0995.bmp
595.44	0.72	818	5	8	45	per	con	mod	mod	mod	tg	ht	wh/0832.bmp
596.16	0.72	819	5	6	9	mem	lib	mod	mod	mod	tg	ht	wh/0623.bmp
596.88	0.72	820	6	7	56	mem	lib	mod	mod	mod	nt	ht	nh/0385_nh.bmp
597.60	0.72	821	6	7	126	per	con	low	mod	low	tg	ms	wh/0848.bmp
598.32	0.72	822	5	6	8	mem	lib	mod	mod	mod	tg	ht	wh/0337.bmp
599.04	0.72	823	6	7	127	per	con	low	mod	low	nt	cr	nh/0388_nh.bmp
599.76	0.72	824	6	7	99	mem	con	mod	mod	mod	nt	ms	nh/0420_nh.bmp
600.48	0.72	825	6	5	81	mem	lib	mod	mod	low	nt	ht	nh/0491_nh.bmp
601.20	0.72	826	6	5	88	mem	lib	mod	mod	low	tg	ht	wh/0574.bmp
601.92	0.72	827	5	7	98	mem	con	mod	mod	mod	tg	ht	wh/0441.bmp
602.64	0.72	828	6	6	74	per	lib	mod	mod	mod	nt	cr	nh/0556_nh.bmp
603.36	0.72	829	5	7	115	per	con	low	mod	low	nt	fa	nh/0172_nh.bmp
604.08	0.72	830	5	8	85	mem	lib	mod	mod	low	nt	ht	nh/0756_nh.bmp
604.80	0.72	831	6	6	95	mem	con	mod	mod	mod	tg	ms	wh/0764.bmp
605.52	0.72	832	1	7	18	mem	con	low	low	low	nt	ht	nh/0728_nh.bmp
606.24	0.72	833	6	8	42	per	con	mod	mod	mod	nt	cr	nh/0552_nh.bmp
606.96	0.72	834	6	5	7	per	lib	low	mod	low	tg	ht	wh/0678.bmp
607.68	0.72	835	6	8	4	per	lib	mod	mod	mod	tg	ms	wh/0827.bmp
608.40	0.72	836	5	6	55	per	con	low	mod	low	tg	ms	wh/1014.bmp
609.12	0.72	837	1	7	19	mem	con	low	low	low	nt	ms	nh/0106_nh.bmp
609.84	0.72	838	6	6	92	mem	con	mod	mod	mod	nt	ht	nh/0602_nh.bmp
610.56	0.72	839	6	6	10	mem	lib	mod	mod	mod	nt	ht	nh/0797_nh.bmp
611.28	0.72	840	5	6	81	mem	con	mod	mod	mod	tg	ht	wh/0495.bmp
612.00	0.72	841	5	7	109	mem	con	mod	mod	mod	nt	ht	nh/0546_nh.bmp
612.72	0.72	842	6	8	37	per	con	mod	mod	mod	nt	cr	nh/0544_nh.bmp
613.44	0.72	843	5	8	51	mem	con	mod	mod	low	nt	ht	nh/0883_nh.bmp
614.16	0.72	844	1	6	39	mem	lib	low	low	low	tg	ht	wh/0566.bmp
614.88	0.72	845	5	7	53	mem	lib	mod	mod	mod	nt	ht	nh/0399_nh.bmp
615.60	0.72	846	6	8	5	per	lib	mod	mod	mod	tg	ht	wh/0968.bmp
616.32	0.72	847	6	8	13	per	lib	mod	mod	mod	nt	cr	nh/0821_nh.bmp
617.04	0.72	848	6	6	65	per	lib	mod	mod	mod	tg	ms	wh/0952.bmp
617.76	0.72	849	5	5	83	mem	lib	mod	mod	low	tg	ht	wh/1004.bmp
618.48	0.72	850	1	7	80	per	lib	mod	low	mod	nt	cr	nh/1016_nh.bmp
619.20	0.72	851	1	7	78	per	lib	mod	low	mod	tg	ht	wh/0373.bmp
619.92	0.72	852	6	6	90	mem	con	mod	mod	mod	tg	ht	wh/0851.bmp
620.64	0.72	853	6	7	53	mem	lib	mod	mod	mod	nt	ht	nh/0399_nh.bmp
621.36	0.72	854	5	5	90	mem	lib	mod	mod	low	nt	ht	nh/0073_nh.bmp
622.08	0.72	855	6	8	29	per	lib	low	mod	low	nt	cr	nh/0262_nh.bmp
622.80	0.72	856	6	7	109	mem	con	mod	mod	mod	nt	ht	nh/0546_nh.bmp
623.52	0.72	857	6	8	9	per	lib	mod	mod	mod	tg	ms	wh/0915.bmp
624.24	0.72	858	6	6	81	mem	con	mod	mod	mod	tg	ht	wh/0495.bmp
624.96	0.72	859	6	5	10	per	lib	low	mod	low	nt	cr	nh/0892_nh.bmp
625.68	0.72	860	6	8	60	mem	con	mod	mod	low	tg	ht	wh/0863.bmp
626.40	0.72	861	6	5	18	mem	con	mod	mod	low	tg	ht	wh/0578.bmp
627.12	0.72	862	6	5	51	per	con	mod	mod	mod	tg	ht	wh/0179.bmp
627.84	0.72	863	6	8	45	per	con	mod	mod	mod	tg	ht	wh/0832.bmp
628.56	0.72	864	5	5	59	per	con	mod	mod	mod	nt	fa	nh/0436_nh.bmp
629.28	0.72	865	6	5	27	mem	con	mod	mod	low	tg	ms	wh/0193.bmp
630.00	0.72	866	6	6	9	mem	lib	mod	mod	mod	tg	ht	wh/0623.bmp
630.72	0.72	867	6	6	8	mem	lib	mod	mod	mod	tg	ht	wh/0337.bmp
631.44	0.72	868	6	8	64	mem	con	mod	mod	low	tg	ht	wh/0519.bmp
632.16	0.72	869	1	7	96	per	con	mod	low	mod	nt	cr	nh/0186_nh.bmp
632.88	0.72	870	6	7	103	mem	con	mod	mod	mod	tg	ht	wh/0060.bmp
633.60	0.72	871	1	5	34	per	lib	mod	low	mod	nt	cr	nh/0093_nh.bmp
634.32	0.72	872	6	6	67	per	lib	mod	mod	mod	nt	fa	nh/0694_nh.bmp
635.04	0.72	873	6	8	51	mem	con	mod	mod	low	nt	ht	nh/0883_nh.bmp
635.76	0.72	874	6	8	24	per	lib	low	mod	low	tg	ms	wh/0164.bmp
636.48	0.72	875	6	5	31	mem	con	mod	mod	low	tg	ht	wh/0165.bmp
637.20	0.72	876	6	7	115	per	con	low	mod	low	nt	fa	nh/0172_nh.bmp
637.92	0.72	877	6	5	83	mem	lib	mod	mod	low	tg	ht	wh/1004.bmp
638.64	0.72	878	1	8	111	mem	lib	low	low	low	tg	ht	wh/0285.bmp
639.36	0.72	879	6	7	63	mem	lib	mod	mod	mod	tg	ht	wh/0086.bmp
640.08	0.72	880	6	5	50	per	con	mod	mod	mod	tg	ms	wh/0366.bmp
640.80	0.72	881	1	5	112	per	con	low	low	low	nt	cr	nh/0859_nh.bmp
641.52	0.72	882	6	7	98	mem	con	mod	mod	mod	tg	ht	wh/0441.bmp
642.24	0.72	883	6	5	94	mem	lib	mod	mod	low	nt	ht	nh/0820_nh.bmp
642.96	0.72	884	6	6	72	per	lib	mod	mod	mod	tg	ht	wh/0378.bmp
643.68	0.72	885	6	6	55	per	con	low	mod	low	tg	ms	wh/1014.bmp
644.40	0.72	886	6	8	85	mem	lib	mod	mod	low	nt	ht	nh/0756_nh.bmp
645.12	0.72	887	6	8	35	per	con	mod	mod	mod	tg	ms	wh/0852.bmp
645.84	0.72	888	6	6	69	per	lib	mod	mod	mod	nt	cr	nh/0603_nh.bmp
646.56	0.72	889	6	8	58	mem	con	mod	mod	low	nt	ht	nh/0157_nh.bmp
647.28	0.72	890	6	7	50	mem	lib	mod	mod	mod	nt	ht	nh/0735_nh.bmp
648.00	0.72	891	6	8	25	per	lib	low	mod	low	tg	ht	wh/0734.bmp
648.72	0.72	892	6	5	90	mem	lib	mod	mod	low	nt	ht	nh/0073_nh.bmp
649.44	0.72	893	1	7	15	per	lib	low	low	low	nt	cr	nh/0610_nh.bmp
650.16	0.72	894	6	6	89	mem	con	mod	mod	mod	tg	ms	wh/0715.bmp
650.88	0.72	895	6	5	59	per	con	mod	mod	mod	nt	fa	nh/0436_nh.bmp
651.60	0.72	896	1	5	105	per	con	low	low	low	tg	ht	wh/0175.bmp
