onset	duration	block	trial	task	crit	disc	mem_disc	per_disc	trial_type	mem_type	per_type	left_option	resp_hand	response	accuracy	response_time	stim_file	pay	pay_tot
6.48	7.2	1	n/a	per	lib	low	n/a	n/a	instructions	n/a	n/a	n/a	n/a	n/a	n/a	n/a	n/a	n/a	n/a
15.44	0.96026	1	1	per	lib	low	low	low	tg	tg	tg	nt	left	nt	ms	0.56026	wh/0041.bmp	-0.1	18.55
19.76	1.01299	1	2	per	lib	low	low	low	nt	nt	nt	tg	left	tg	fa	0.61299	nh/0452_nh.bmp	0	18.55
22.64	0.82553	1	3	per	lib	low	low	low	nt	nt	nt	tg	right	nt	cr	0.42553	nh/0206_nh.bmp	0.05	18.6
25.52	1.01732	1	4	per	lib	low	low	low	tg	nt	tg	nt	right	tg	ht	0.61732	wh/0695.bmp	0.05	18.65
28.4	0.90284	1	5	per	lib	low	low	low	nt	tg	nt	tg	right	nt	cr	0.50284	nh/0516_nh.bmp	0.05	18.7
32.72	0.96308	1	6	per	lib	low	low	low	nt	nt	nt	tg	left	tg	fa	0.56308	nh/0146_nh.bmp	0	18.7
36.32	0.92331	1	7	per	lib	low	low	low	tg	tg	tg	tg	right	nt	ms	0.52331	wh/0830.bmp	-0.1	18.6
39.2	0.85456	1	8	per	lib	low	low	low	nt	tg	nt	tg	right	nt	cr	0.45456	nh/0990_nh.bmp	0.05	18.65
42.8	1.02115	1	9	per	lib	low	low	low	tg	tg	tg	tg	left	tg	ht	0.62115	wh/0022.bmp	0.05	18.7
46.4	0.83929	1	10	per	lib	low	low	low	nt	nt	nt	nt	right	tg	fa	0.43929	nh/0483_nh.bmp	0	18.7
49.28	0.97143	1	11	per	lib	low	low	low	tg	nt	tg	tg	right	nt	ms	0.57143	wh/0113.bmp	-0.1	18.6
52.16	1.01158	1	12	per	lib	low	low	low	tg	tg	tg	nt	left	nt	ms	0.61158	wh/0198.bmp	-0.1	18.5
55.76	0.89522	1	13	per	lib	low	low	low	tg	nt	tg	nt	right	tg	ht	0.49522	wh/0571.bmp	0.05	18.55
59.36	1.0064	1	14	per	lib	low	low	low	nt	tg	nt	tg	left	tg	fa	0.6064	nh/0737_nh.bmp	0	18.55
63.68	0.92257	1	15	per	lib	low	low	low	nt	tg	nt	tg	right	nt	cr	0.52257	nh/0610_nh.bmp	0.05	18.6
66.56	0.91933	1	16	per	lib	low	low	low	tg	nt	tg	tg	right	nt	ms	0.51933	wh/0710.bmp	-0.1	18.5
70.56	3.6	1	n/a	per	lib	low	n/a	n/a	feedback	n/a	n/a	n/a	n/a	n/a	n/a	n/a	n/a	n/a	n/a
74.88	7.2	2	n/a	mem	con	low	n/a	n/a	instructions	n/a	n/a	n/a	n/a	n/a	n/a	n/a	n/a	n/a	n/a
83.12	0.8917	2	17	mem	con	low	low	low	tg	tg	nt	nt	left	nt	ms	0.4917	nh/0636_nh.bmp	0	18.5
87.44	1.10569	2	18	mem	con	low	low	low	tg	tg	nt	tg	left	tg	ht	0.70569	nh/0728_nh.bmp	0.05	18.55
90.32	0.86248	2	19	mem	con	low	low	low	tg	tg	nt	tg	right	nt	ms	0.46248	nh/0106_nh.bmp	0	18.55
93.92	0.90365	2	20	mem	con	low	low	low	tg	tg	tg	tg	right	nt	ms	0.50365	wh/0034.bmp	0	18.55
97.52	1.20388	2	21	mem	con	low	low	low	tg	tg	tg	nt	left	nt	ms	0.80388	wh/0043.bmp	0	18.55
100.4	1.00843	2	22	mem	con	low	low	low	tg	tg	tg	nt	left	nt	ms	0.60843	wh/0994.bmp	0	18.55
104.72	0.84515	2	23	mem	con	low	low	low	nt	nt	tg	nt	left	nt	cr	0.44515	wh/0460.bmp	0.05	18.6
107.6	1.06386	2	24	mem	con	low	low	low	nt	nt	tg	nt	left	nt	cr	0.66386	wh/0013.bmp	0.05	18.65
110.48	1.08701	2	25	mem	con	low	low	low	nt	nt	nt	nt	right	tg	fa	0.68701	nh/0437_nh.bmp	-0.1	18.55
114.8	0.9603	2	26	mem	con	low	low	low	nt	nt	nt	nt	left	nt	cr	0.5603	nh/0731_nh.bmp	0.05	18.6
117.68	1.16278	2	27	mem	con	low	low	low	nt	nt	tg	nt	right	tg	fa	0.76278	wh/0881.bmp	-0.1	18.5
120.56	0.97512	2	28	mem	con	low	low	low	tg	tg	nt	tg	left	tg	ht	0.57512	nh/0518_nh.bmp	0.05	18.55
123.44	0.94621	2	29	mem	con	low	low	low	nt	nt	nt	tg	right	nt	cr	0.54621	nh/0225_nh.bmp	0.05	18.6
126.32	1.08674	2	30	mem	con	low	low	low	nt	nt	tg	tg	right	nt	cr	0.68674	wh/0434.bmp	0.05	18.65
129.2	1.03396	2	31	mem	con	low	low	low	tg	tg	tg	tg	left	tg	ht	0.63396	wh/0657.bmp	0.05	18.7
133.52	0.93168	2	32	mem	con	low	low	low	nt	nt	nt	nt	right	tg	fa	0.53168	nh/0173_nh.bmp	-0.1	18.6
136.08	3.6	2	n/a	mem	con	low	n/a	n/a	feedback	n/a	n/a	n/a	n/a	n/a	n/a	n/a	n/a	n/a	n/a
139.68	7.2	3	n/a	mem	lib	low	n/a	n/a	instructions	n/a	n/a	n/a	n/a	n/a	n/a	n/a	n/a	n/a	n/a
147.2	0.86099	3	33	mem	lib	low	low	mod	tg	tg	tg	tg	left	tg	ht	0.46099	wh/0982.bmp	0.05	18.65
150.08	1.06688	3	34	mem	lib	low	low	mod	tg	tg	nt	tg	right	nt	ms	0.66688	nh/0867_nh.bmp	-0.1	18.55
153.68	0.86069	3	35	mem	lib	low	low	mod	nt	nt	nt	tg	left	tg	fa	0.46069	nh/0301_nh.bmp	0	18.55
158	0.82884	3	36	mem	lib	low	low	mod	nt	nt	tg	nt	right	tg	fa	0.42884	wh/0129.bmp	0	18.55
160.88	0.81285	3	37	mem	lib	low	low	mod	tg	tg	nt	nt	right	tg	ht	0.41285	nh/0305_nh.bmp	0.05	18.6
163.76	0.84924	3	38	mem	lib	low	low	mod	tg	tg	nt	tg	left	tg	ht	0.44924	nh/0221_nh.bmp	0.05	18.65
166.64	1.01537	3	39	mem	lib	low	low	mod	tg	tg	tg	tg	left	tg	ht	0.61537	wh/1002.bmp	0.05	18.7
170.96	0.9028	3	40	mem	lib	low	low	mod	nt	nt	nt	tg	right	nt	cr	0.5028	nh/0927_nh.bmp	0.05	18.75
175.28	0.85518	3	41	mem	lib	low	low	mod	nt	nt	nt	tg	left	tg	fa	0.45518	nh/0520_nh.bmp	0	18.75
178.16	1.1449	3	42	mem	lib	low	low	mod	nt	nt	tg	tg	right	nt	cr	0.7449	wh/0890.bmp	0.05	18.8
182.48	0.87597	3	43	mem	lib	low	low	mod	nt	nt	tg	tg	right	nt	cr	0.47597	wh/0718.bmp	0.05	18.85
186.8	0.7864	3	44	mem	lib	low	low	mod	nt	nt	nt	tg	left	tg	fa	0.3864	nh/0278_nh.bmp	0	18.85
189.68	0.90997	3	45	mem	lib	low	low	mod	tg	tg	tg	tg	left	tg	ht	0.50997	wh/0381.bmp	0.05	18.9
192.56	0.79897	3	46	mem	lib	low	low	mod	nt	nt	tg	tg	left	tg	fa	0.39897	wh/0525.bmp	0	18.9
196.16	0.90774	3	47	mem	lib	low	low	mod	tg	tg	nt	nt	right	tg	ht	0.50774	nh/0372_nh.bmp	0.05	18.95
199.04	0.85449	3	48	mem	lib	low	low	mod	tg	tg	tg	nt	right	tg	ht	0.45449	wh/0395.bmp	0.05	19
201.6	3.6	3	n/a	mem	lib	low	n/a	n/a	feedback	n/a	n/a	n/a	n/a	n/a	n/a	n/a	n/a	n/a	n/a
206.64	7.2	4	n/a	mem	lib	mod	n/a	n/a	instructions	n/a	n/a	n/a	n/a	n/a	n/a	n/a	n/a	n/a	n/a
215.6	1.17791	4	49	mem	lib	mod	mod	mod	nt	nt	tg	nt	left	nt	cr	0.77791	wh/0855.bmp	0.05	19.05
218.48	0.91894	4	50	mem	lib	mod	mod	mod	tg	tg	nt	nt	right	tg	ht	0.51894	nh/0735_nh.bmp	0.05	19.1
222.08	1.06809	4	51	mem	lib	mod	mod	mod	nt	nt	nt	nt	left	nt	cr	0.66809	nh/0222_nh.bmp	0.05	19.15
225.68	1.07427	4	52	mem	lib	mod	mod	mod	nt	nt	tg	nt	left	nt	cr	0.67427	wh/0319.bmp	0.05	19.2
228.56	1.23373	4	53	mem	lib	mod	mod	mod	tg	tg	nt	tg	left	tg	ht	0.83373	nh/0399_nh.bmp	0.05	19.25
232.16	0.92016	4	54	mem	lib	mod	mod	mod	tg	tg	tg	nt	right	tg	ht	0.52016	wh/0564.bmp	0.05	19.3
235.04	1.28486	4	55	mem	lib	mod	mod	mod	nt	nt	tg	nt	right	tg	fa	0.88486	wh/0094.bmp	0	19.3
237.92	1.17679	4	56	mem	lib	mod	mod	mod	tg	tg	nt	nt	right	tg	ht	0.77679	nh/0385_nh.bmp	0.05	19.35
240.8	1.17389	4	57	mem	lib	mod	mod	mod	tg	tg	tg	tg	right	nt	ms	0.77389	wh/0835.bmp	-0.1	19.25
243.68	1.00828	4	58	mem	lib	mod	mod	mod	tg	tg	tg	tg	left	tg	ht	0.60828	wh/0318.bmp	0.05	19.3
247.28	1.19992	4	59	mem	lib	mod	mod	mod	nt	nt	nt	tg	left	tg	fa	0.79992	nh/0199_nh.bmp	0	19.3
250.88	1.12191	4	60	mem	lib	mod	mod	mod	nt	nt	nt	tg	left	tg	fa	0.72191	nh/0874_nh.bmp	0	19.3
254.48	1.11122	4	61	mem	lib	mod	mod	mod	nt	nt	tg	nt	left	nt	cr	0.71122	wh/0187.bmp	0.05	19.35
258.08	0.9727	4	62	mem	lib	mod	mod	mod	nt	nt	nt	tg	left	tg	fa	0.5727	nh/0941_nh.bmp	0	19.35
260.96	0.95907	4	63	mem	lib	mod	mod	mod	tg	tg	tg	tg	left	tg	ht	0.55907	wh/0086.bmp	0.05	19.4
263.84	0.84065	4	64	mem	lib	mod	mod	mod	tg	tg	nt	tg	left	tg	ht	0.44065	nh/0778_nh.bmp	0.05	19.45
266.4	3.6	4	n/a	mem	lib	mod	n/a	n/a	feedback	n/a	n/a	n/a	n/a	n/a	n/a	n/a	n/a	n/a	n/a
270	7.2	5	n/a	per	lib	mod	n/a	n/a	instructions	n/a	n/a	n/a	n/a	n/a	n/a	n/a	n/a	n/a	n/a
278.24	0.95329	5	65	per	lib	mod	low	mod	nt	nt	nt	nt	left	nt	cr	0.55329	nh/0721_nh.bmp	0.05	19.5
281.12	1.19663	5	66	per	lib	mod	low	mod	tg	tg	tg	tg	right	nt	ms	0.79663	wh/0945.bmp	-0.1	19.4
284	1.0237	5	67	per	lib	mod	low	mod	tg	nt	tg	tg	left	tg	ht	0.6237	wh/0900.bmp	0.05	19.45
287.6	1.02448	5	68	per	lib	mod	low	mod	tg	nt	tg	tg	left	tg	ht	0.62448	wh/0933.bmp	0.05	19.5
290.48	0.99797	5	69	per	lib	mod	low	mod	tg	tg	tg	tg	left	tg	ht	0.59797	wh/0980.bmp	0.05	19.55
293.36	0.91867	5	70	per	lib	mod	low	mod	tg	nt	tg	tg	left	tg	ht	0.51867	wh/0774.bmp	0.05	19.6
296.24	1.01238	5	71	per	lib	mod	low	mod	tg	tg	tg	tg	left	tg	ht	0.61238	wh/0688.bmp	0.05	19.65
300.56	1.05538	5	72	per	lib	mod	low	mod	nt	tg	nt	nt	left	nt	cr	0.65538	nh/0622_nh.bmp	0.05	19.7
304.16	1.06804	5	73	per	lib	mod	low	mod	nt	tg	nt	nt	left	nt	cr	0.66804	nh/0751_nh.bmp	0.05	19.75
307.04	0.86197	5	74	per	lib	mod	low	mod	nt	nt	nt	tg	right	nt	cr	0.46197	nh/0652_nh.bmp	0.05	19.8
309.92	1.0788	5	75	per	lib	mod	low	mod	tg	nt	tg	tg	left	tg	ht	0.6788	wh/0281.bmp	0.05	19.85
312.8	0.95007	5	76	per	lib	mod	low	mod	nt	nt	nt	tg	right	nt	cr	0.55007	nh/0038_nh.bmp	0.05	19.9
315.68	1.01878	5	77	per	lib	mod	low	mod	nt	nt	nt	nt	right	tg	fa	0.61878	nh/0846_nh.bmp	0	19.9
318.56	0.9043	5	78	per	lib	mod	low	mod	tg	tg	tg	nt	right	tg	ht	0.5043	wh/0373.bmp	0.05	19.95
322.16	0.9246	5	79	per	lib	mod	low	mod	nt	tg	nt	tg	right	nt	cr	0.5246	nh/0402_nh.bmp	0.05	20
325.04	1.11723	5	80	per	lib	mod	low	mod	nt	tg	nt	nt	left	nt	cr	0.71723	nh/1016_nh.bmp	0.05	20.05
328.32	3.6	5	n/a	per	lib	mod	n/a	n/a	feedback	n/a	n/a	n/a	n/a	n/a	n/a	n/a	n/a	n/a	n/a
332.64	7.2	6	n/a	per	con	mod	n/a	n/a	instructions	n/a	n/a	n/a	n/a	n/a	n/a	n/a	n/a	n/a	n/a
340.16	1.07651	6	81	per	con	mod	low	mod	nt	tg	nt	tg	right	nt	cr	0.67651	nh/0839_nh.bmp	0.05	20.1
343.76	0.93365	6	82	per	con	mod	low	mod	nt	nt	nt	nt	left	nt	cr	0.53365	nh/0306_nh.bmp	0.05	20.15
348.08	0.9222	6	83	per	con	mod	low	mod	nt	nt	nt	tg	right	nt	cr	0.5222	nh/0693_nh.bmp	0.05	20.2
351.68	0.9858	6	84	per	con	mod	low	mod	tg	nt	tg	tg	left	tg	ht	0.5858	wh/0569.bmp	0.05	20.25
355.28	0.94016	6	85	per	con	mod	low	mod	tg	nt	tg	tg	left	tg	ht	0.54016	wh/0096.bmp	0.05	20.3
358.16	0.94945	6	86	per	con	mod	low	mod	nt	tg	nt	tg	right	nt	cr	0.54945	nh/0611_nh.bmp	0.05	20.35
361.76	0.95994	6	87	per	con	mod	low	mod	nt	tg	nt	tg	right	nt	cr	0.55994	nh/0349_nh.bmp	0.05	20.4
366.08	0.85506	6	88	per	con	mod	low	mod	tg	nt	tg	tg	right	nt	ms	0.45506	wh/0626.bmp	0	20.4
368.96	0.8774	6	89	per	con	mod	low	mod	nt	nt	nt	tg	right	nt	cr	0.4774	nh/0044_nh.bmp	0.05	20.45
371.84	0.86197	6	90	per	con	mod	low	mod	tg	tg	tg	tg	left	tg	ht	0.46197	wh/0227.bmp	0.05	20.5
374.72	0.88635	6	91	per	con	mod	low	mod	tg	tg	tg	tg	right	nt	ms	0.48635	wh/0046.bmp	0	20.5
377.6	1.04993	6	92	per	con	mod	low	mod	tg	tg	tg	nt	right	tg	ht	0.64993	wh/0347.bmp	0.05	20.55
381.2	0.88249	6	93	per	con	mod	low	mod	tg	nt	tg	tg	right	nt	ms	0.48249	wh/0426.bmp	0	20.55
385.52	1.02316	6	94	per	con	mod	low	mod	tg	tg	tg	nt	left	nt	ms	0.62316	wh/0921.bmp	0	20.55
389.84	0.88699	6	95	per	con	mod	low	mod	nt	nt	nt	tg	right	nt	cr	0.48699	nh/0729_nh.bmp	0.05	20.6
394.16	0.84744	6	96	per	con	mod	low	mod	nt	tg	nt	tg	right	nt	cr	0.44744	nh/0186_nh.bmp	0.05	20.65
396.72	3.6	6	n/a	per	con	mod	n/a	n/a	feedback	n/a	n/a	n/a	n/a	n/a	n/a	n/a	n/a	n/a	n/a
401.04	7.2	7	n/a	mem	con	mod	n/a	n/a	instructions	n/a	n/a	n/a	n/a	n/a	n/a	n/a	n/a	n/a	n/a
409.28	0.93545	7	97	mem	con	mod	mod	mod	tg	tg	nt	tg	right	nt	ms	0.53545	nh/0686_nh.bmp	0	20.65
412.16	1.16395	7	98	mem	con	mod	mod	mod	tg	tg	tg	tg	left	tg	ht	0.76395	wh/0441.bmp	0.05	20.7
415.04	0.95945	7	99	mem	con	mod	mod	mod	tg	tg	nt	tg	right	nt	ms	0.55945	nh/0420_nh.bmp	0	20.7
419.36	0.96044	7	100	mem	con	mod	mod	mod	tg	tg	nt	nt	right	tg	ht	0.56044	nh/0958_nh.bmp	0.05	20.75
422.24	0.98203	7	101	mem	con	mod	mod	mod	nt	nt	tg	nt	right	tg	fa	0.58203	wh/0680.bmp	-0.1	20.65
425.12	0.9961	7	102	mem	con	mod	mod	mod	nt	nt	tg	tg	right	nt	cr	0.5961	wh/0543.bmp	0.05	20.7
428.72	0.98081	7	103	mem	con	mod	mod	mod	tg	tg	tg	nt	right	tg	ht	0.58081	wh/0060.bmp	0.05	20.75
432.32	0.83999	7	104	mem	con	mod	mod	mod	nt	nt	nt	tg	right	nt	cr	0.43999	nh/0446_nh.bmp	0.05	20.8
435.2	0.92739	7	105	mem	con	mod	mod	mod	nt	nt	nt	tg	right	nt	cr	0.52739	nh/0714_nh.bmp	0.05	20.85
439.52	0.8265	7	106	mem	con	mod	mod	mod	nt	nt	nt	tg	right	nt	cr	0.4265	nh/0196_nh.bmp	0.05	20.9
443.12	0.97866	7	107	mem	con	mod	mod	mod	tg	tg	tg	nt	right	tg	ht	0.57866	wh/0294.bmp	0.05	20.95
446	0.96029	7	108	mem	con	mod	mod	mod	nt	nt	tg	nt	left	nt	cr	0.56029	wh/0542.bmp	0.05	21
450.32	0.91309	7	109	mem	con	mod	mod	mod	tg	tg	nt	nt	right	tg	ht	0.51309	nh/0546_nh.bmp	0.05	21.05
453.92	0.89233	7	110	mem	con	mod	mod	mod	nt	nt	nt	nt	right	tg	fa	0.49233	nh/0099_nh.bmp	-0.1	20.95
456.8	0.81317	7	111	mem	con	mod	mod	mod	tg	tg	tg	nt	right	tg	ht	0.41317	wh/0888.bmp	0.05	21
459.68	1.01742	7	112	mem	con	mod	mod	mod	nt	nt	tg	tg	right	nt	cr	0.61742	wh/0594.bmp	0.05	21.05
462.24	3.6	7	n/a	mem	con	mod	n/a	n/a	feedback	n/a	n/a	n/a	n/a	n/a	n/a	n/a	n/a	n/a	n/a
465.84	7.2	8	n/a	per	con	low	n/a	n/a	instructions	n/a	n/a	n/a	n/a	n/a	n/a	n/a	n/a	n/a	n/a
473.36	0.86437	8	113	per	con	low	mod	low	tg	nt	tg	tg	right	nt	ms	0.46437	wh/0608.bmp	0	21.05
476.24	1.35287	8	114	per	con	low	mod	low	tg	tg	tg	nt	left	nt	ms	0.95287	wh/0939.bmp	0	21.05
479.12	1.01484	8	115	per	con	low	mod	low	nt	tg	nt	nt	right	tg	fa	0.61484	nh/0172_nh.bmp	-0.1	20.95
483.44	0.94667	8	116	per	con	low	mod	low	nt	nt	nt	tg	right	nt	cr	0.54667	nh/1023_nh.bmp	0.05	21
487.04	0.9158	8	117	per	con	low	mod	low	tg	nt	tg	tg	right	nt	ms	0.5158	wh/0635.bmp	0	21
489.92	0.93959	8	118	per	con	low	mod	low	nt	tg	nt	nt	left	nt	cr	0.53959	nh/0521_nh.bmp	0.05	21.05
494.24	0.8912	8	119	per	con	low	mod	low	tg	tg	tg	nt	right	tg	ht	0.4912	wh/0255.bmp	0.05	21.1
497.12	0.93055	8	120	per	con	low	mod	low	nt	nt	nt	nt	left	nt	cr	0.53055	nh/0123_nh.bmp	0.05	21.15
500	0.94749	8	121	per	con	low	mod	low	tg	nt	tg	nt	left	nt	ms	0.54749	wh/0082.bmp	0	21.15
502.88	0.85993	8	122	per	con	low	mod	low	tg	tg	tg	nt	right	tg	ht	0.45993	wh/0042.bmp	0.05	21.2
505.76	0.87371	8	123	per	con	low	mod	low	nt	nt	nt	nt	left	nt	cr	0.47371	nh/0934_nh.bmp	0.05	21.25
510.08	0.89741	8	124	per	con	low	mod	low	nt	tg	nt	tg	right	nt	cr	0.49741	nh/0450_nh.bmp	0.05	21.3
513.68	0.94547	8	125	per	con	low	mod	low	tg	nt	tg	nt	left	nt	ms	0.54547	wh/0964.bmp	0	21.3
516.56	0.81919	8	126	per	con	low	mod	low	tg	tg	tg	tg	right	nt	ms	0.41919	wh/0848.bmp	0	21.3
519.44	0.83694	8	127	per	con	low	mod	low	nt	tg	nt	tg	right	nt	cr	0.43694	nh/0388_nh.bmp	0.05	21.35
522.32	0.86663	8	128	per	con	low	mod	low	nt	nt	nt	tg	right	nt	cr	0.46663	nh/0493_nh.bmp	0.05	21.4
526.32	3.6	8	n/a	per	con	low	n/a	n/a	feedback	n/a	n/a	n/a	n/a	n/a	n/a	n/a	n/a	n/a	n/a
