onset	duration	block	trial	task	crit	disc	mem_disc	per_disc	trial_type	mem_type	per_type	left_option	resp_hand	response	accuracy	response_time	stim_file	pay	pay_tot
7.2	7.2	1	n/a	mem	con	mod	n/a	n/a	instructions	n/a	n/a	n/a	n/a	n/a	n/a	n/a	n/a	n/a	n/a
14.72	1.01724	1	1	mem	con	mod	mod	low	tg	tg	nt	nt	left	nt	ms	0.61724	nh/0298_nh.bmp	0	9.65
17.6	0.96949	1	2	mem	con	mod	mod	low	nt	nt	nt	tg	right	nt	cr	0.56949	nh/0030_nh.bmp	0.05	9.7
21.92	0.98325	1	3	mem	con	mod	mod	low	nt	nt	nt	tg	left	tg	fa	0.58325	nh/0246_nh.bmp	-0.1	9.6
26.24	0.97489	1	4	mem	con	mod	mod	low	nt	nt	nt	nt	right	tg	fa	0.57489	nh/0410_nh.bmp	-0.1	9.5
30.56	1.02609	1	5	mem	con	mod	mod	low	tg	tg	tg	nt	right	tg	ht	0.62609	wh/0648.bmp	0.05	9.55
33.44	1.02579	1	6	mem	con	mod	mod	low	nt	nt	nt	tg	right	nt	cr	0.62579	nh/0166_nh.bmp	0.05	9.6
36.32	0.90544	1	7	mem	con	mod	mod	low	nt	nt	tg	nt	left	nt	cr	0.50544	wh/0509.bmp	0.05	9.65
40.64	0.94419	1	8	mem	con	mod	mod	low	tg	tg	tg	nt	left	nt	ms	0.54419	wh/0105.bmp	0	9.65
44.24	1.16477	1	9	mem	con	mod	mod	low	tg	tg	nt	nt	left	nt	ms	0.76477	nh/0379_nh.bmp	0	9.65
47.12	0.93106	1	10	mem	con	mod	mod	low	tg	tg	tg	nt	right	tg	ht	0.53106	wh/0265.bmp	0.05	9.7
50.72	1.08212	1	11	mem	con	mod	mod	low	tg	tg	nt	tg	right	nt	ms	0.68212	nh/0704_nh.bmp	0	9.7
54.32	0.89176	1	12	mem	con	mod	mod	low	tg	tg	tg	nt	right	tg	ht	0.49176	wh/0932.bmp	0.05	9.75
58.64	1.0966	1	13	mem	con	mod	mod	low	nt	nt	tg	nt	left	nt	cr	0.6966	wh/0315.bmp	0.05	9.8
61.52	1.13384	1	14	mem	con	mod	mod	low	nt	nt	tg	tg	left	tg	fa	0.73384	wh/0575.bmp	-0.1	9.7
65.12	0.88783	1	15	mem	con	mod	mod	low	tg	tg	nt	nt	right	tg	ht	0.48783	nh/0897_nh.bmp	0.05	9.75
69.44	1.07008	1	16	mem	con	mod	mod	low	nt	nt	tg	nt	right	tg	fa	0.67008	wh/0081.bmp	-0.1	9.65
72.72	3.6	1	n/a	mem	con	mod	n/a	n/a	feedback	n/a	n/a	n/a	n/a	n/a	n/a	n/a	n/a	n/a	n/a
77.04	7.2	2	n/a	per	lib	mod	n/a	n/a	instructions	n/a	n/a	n/a	n/a	n/a	n/a	n/a	n/a	n/a	n/a
84.56	0.89533	2	17	per	lib	mod	low	mod	nt	tg	nt	nt	right	tg	fa	0.49533	nh/0087_nh.bmp	0	9.65
87.44	0.86993	2	18	per	lib	mod	low	mod	tg	nt	tg	nt	right	tg	ht	0.46993	wh/0214.bmp	0.05	9.7
91.04	1.07919	2	19	per	lib	mod	low	mod	nt	nt	nt	nt	left	nt	cr	0.67919	nh/0230_nh.bmp	0.05	9.75
94.64	1.25075	2	20	per	lib	mod	low	mod	nt	tg	nt	nt	right	tg	fa	0.85075	nh/0324_nh.bmp	0	9.75
98.24	1.36467	2	21	per	lib	mod	low	mod	tg	tg	tg	nt	right	tg	ht	0.96467	wh/0286.bmp	0.05	9.8
101.12	1.17369	2	22	per	lib	mod	low	mod	tg	tg	tg	nt	left	nt	ms	0.77369	wh/0752.bmp	-0.1	9.7
104.72	1.04645	2	23	per	lib	mod	low	mod	nt	tg	nt	nt	left	nt	cr	0.64645	nh/0659_nh.bmp	0.05	9.75
107.6	1.6377	2	24	per	lib	mod	low	mod	nt	nt	nt	nt	right	tg	fa	1.2377	nh/0192_nh.bmp	0	9.75
111.2	0.95546	2	25	per	lib	mod	low	mod	nt	nt	nt	nt	right	tg	fa	0.55546	nh/0004_nh.bmp	0	9.75
114.08	1.08375	2	26	per	lib	mod	low	mod	tg	tg	tg	nt	right	tg	ht	0.68375	wh/0296.bmp	0.05	9.8
116.96	1.08936	2	27	per	lib	mod	low	mod	nt	nt	nt	tg	left	tg	fa	0.68936	nh/0707_nh.bmp	0	9.8
121.28	1.0364	2	28	per	lib	mod	low	mod	nt	tg	nt	nt	left	nt	cr	0.6364	nh/0551_nh.bmp	0.05	9.85
124.88	1.3099	2	29	per	lib	mod	low	mod	tg	nt	tg	tg	left	tg	ht	0.9099	wh/0304.bmp	0.05	9.9
127.76	0.98341	2	30	per	lib	mod	low	mod	tg	nt	tg	nt	right	tg	ht	0.58341	wh/0872.bmp	0.05	9.95
130.64	0.88856	2	31	per	lib	mod	low	mod	tg	tg	tg	nt	right	tg	ht	0.48856	wh/0553.bmp	0.05	10
134.24	0.95983	2	32	per	lib	mod	low	mod	tg	nt	tg	nt	right	tg	ht	0.55983	wh/0894.bmp	0.05	10.05
137.52	3.6	2	n/a	per	lib	mod	n/a	n/a	feedback	n/a	n/a	n/a	n/a	n/a	n/a	n/a	n/a	n/a	n/a
141.12	7.2	3	n/a	per	con	mod	n/a	n/a	instructions	n/a	n/a	n/a	n/a	n/a	n/a	n/a	n/a	n/a	n/a
148.64	0.85297	3	33	per	con	mod	mod	mod	nt	nt	nt	tg	right	nt	cr	0.45297	nh/0343_nh.bmp	0.05	10.1
152.96	1.11075	3	34	per	con	mod	mod	mod	tg	nt	tg	tg	left	tg	ht	0.71075	wh/0490.bmp	0.05	10.15
155.84	0.81503	3	35	per	con	mod	mod	mod	nt	tg	nt	tg	right	nt	cr	0.41503	nh/0600_nh.bmp	0.05	10.2
159.44	1.03725	3	36	per	con	mod	mod	mod	tg	nt	tg	tg	left	tg	ht	0.63725	wh/0445.bmp	0.05	10.25
163.76	0.81531	3	37	per	con	mod	mod	mod	nt	tg	nt	tg	right	nt	cr	0.41531	nh/0162_nh.bmp	0.05	10.3
167.36	0.89736	3	38	per	con	mod	mod	mod	tg	tg	tg	tg	right	nt	ms	0.49736	wh/0920.bmp	0	10.3
170.24	0.89506	3	39	per	con	mod	mod	mod	nt	nt	nt	tg	right	nt	cr	0.49506	nh/0538_nh.bmp	0.05	10.35
173.84	0.89932	3	40	per	con	mod	mod	mod	nt	nt	nt	tg	right	nt	cr	0.49932	nh/0705_nh.bmp	0.05	10.4
176.72	1.28881	3	41	per	con	mod	mod	mod	tg	tg	tg	tg	right	nt	ms	0.88881	wh/0526.bmp	0	10.4
179.6	0.84459	3	42	per	con	mod	mod	mod	nt	tg	nt	tg	right	nt	cr	0.44459	nh/0596_nh.bmp	0.05	10.45
183.92	0.97171	3	43	per	con	mod	mod	mod	nt	nt	nt	nt	left	nt	cr	0.57171	nh/0151_nh.bmp	0.05	10.5
188.24	0.89403	3	44	per	con	mod	mod	mod	nt	tg	nt	tg	right	nt	cr	0.49403	nh/0879_nh.bmp	0.05	10.55
192.56	0.85782	3	45	per	con	mod	mod	mod	tg	tg	tg	nt	right	tg	ht	0.45782	wh/0002.bmp	0.05	10.6
196.88	1.02661	3	46	per	con	mod	mod	mod	tg	nt	tg	tg	left	tg	ht	0.62661	wh/0282.bmp	0.05	10.65
199.76	0.86327	3	47	per	con	mod	mod	mod	tg	tg	tg	tg	right	nt	ms	0.46327	wh/0724.bmp	0	10.65
204.08	1.27679	3	48	per	con	mod	mod	mod	tg	nt	tg	nt	left	nt	ms	0.87679	wh/0753.bmp	0	10.65
206.64	3.6	3	n/a	per	con	mod	n/a	n/a	feedback	n/a	n/a	n/a	n/a	n/a	n/a	n/a	n/a	n/a	n/a
210.24	7.2	4	n/a	per	lib	low	n/a	n/a	instructions	n/a	n/a	n/a	n/a	n/a	n/a	n/a	n/a	n/a	n/a
218.48	0.92302	4	49	per	lib	low	mod	low	tg	tg	tg	nt	right	tg	ht	0.52302	wh/0353.bmp	0.05	10.7
222.08	0.89171	4	50	per	lib	low	mod	low	nt	tg	nt	nt	right	tg	fa	0.49171	nh/0133_nh.bmp	0	10.7
226.4	1.03499	4	51	per	lib	low	mod	low	nt	nt	nt	nt	right	tg	fa	0.63499	nh/0512_nh.bmp	0	10.7
229.28	0.90564	4	52	per	lib	low	mod	low	tg	tg	tg	nt	right	tg	ht	0.50564	wh/0031.bmp	0.05	10.75
233.6	0.8925	4	53	per	lib	low	mod	low	nt	tg	nt	nt	right	tg	fa	0.4925	nh/0155_nh.bmp	0	10.75
237.2	1.00206	4	54	per	lib	low	mod	low	tg	nt	tg	tg	left	tg	ht	0.60206	wh/0643.bmp	0.05	10.8
240.08	0.85972	4	55	per	lib	low	mod	low	tg	nt	tg	tg	right	nt	ms	0.45972	wh/0757.bmp	-0.1	10.7
242.96	0.94126	4	56	per	lib	low	mod	low	tg	nt	tg	nt	left	nt	ms	0.54126	wh/0067.bmp	-0.1	10.6
245.84	1.07988	4	57	per	lib	low	mod	low	nt	nt	nt	nt	left	nt	cr	0.67988	nh/0976_nh.bmp	0.05	10.65
250.16	1.30387	4	58	per	lib	low	mod	low	tg	tg	tg	nt	left	nt	ms	0.90387	wh/0163.bmp	-0.1	10.55
253.76	0.90682	4	59	per	lib	low	mod	low	nt	nt	nt	tg	right	nt	cr	0.50682	nh/0792_nh.bmp	0.05	10.6
256.64	1.31183	4	60	per	lib	low	mod	low	nt	tg	nt	nt	left	nt	cr	0.91183	nh/0515_nh.bmp	0.05	10.65
259.52	0.90516	4	61	per	lib	low	mod	low	tg	tg	tg	nt	right	tg	ht	0.50516	wh/0392.bmp	0.05	10.7
263.12	0.89031	4	62	per	lib	low	mod	low	tg	nt	tg	nt	right	tg	ht	0.49031	wh/0174.bmp	0.05	10.75
266	0.84646	4	63	per	lib	low	mod	low	nt	tg	nt	nt	right	tg	fa	0.44646	nh/0435_nh.bmp	0	10.75
268.88	0.95604	4	64	per	lib	low	mod	low	nt	nt	nt	tg	right	nt	cr	0.55604	nh/0683_nh.bmp	0.05	10.8
272.88	3.6	4	n/a	per	lib	low	n/a	n/a	feedback	n/a	n/a	n/a	n/a	n/a	n/a	n/a	n/a	n/a	n/a
276.48	7.2	5	n/a	mem	lib	low	n/a	n/a	instructions	n/a	n/a	n/a	n/a	n/a	n/a	n/a	n/a	n/a	n/a
284	1.06186	5	65	mem	lib	low	low	low	nt	nt	tg	tg	left	tg	fa	0.66186	wh/0430.bmp	0	10.8
286.88	0.99191	5	66	mem	lib	low	low	low	tg	tg	nt	nt	left	nt	ms	0.59191	nh/0794_nh.bmp	-0.1	10.7
289.76	1.22687	5	67	mem	lib	low	low	low	nt	nt	nt	nt	right	tg	fa	0.82687	nh/0808_nh.bmp	0	10.7
294.08	1.04841	5	68	mem	lib	low	low	low	nt	nt	tg	tg	right	nt	cr	0.64841	wh/0120.bmp	0.05	10.75
296.96	1.03799	5	69	mem	lib	low	low	low	tg	tg	tg	nt	right	tg	ht	0.63799	wh/0656.bmp	0.05	10.8
300.56	0.89425	5	70	mem	lib	low	low	low	tg	tg	tg	nt	right	tg	ht	0.49425	wh/0817.bmp	0.05	10.85
304.88	0.94236	5	71	mem	lib	low	low	low	nt	nt	tg	tg	left	tg	fa	0.54236	wh/0720.bmp	0	10.85
309.2	1.08003	5	72	mem	lib	low	low	low	tg	tg	tg	nt	right	tg	ht	0.68003	wh/1022.bmp	0.05	10.9
312.8	0.88121	5	73	mem	lib	low	low	low	tg	tg	nt	nt	right	tg	ht	0.48121	nh/0126_nh.bmp	0.05	10.95
315.68	0.94091	5	74	mem	lib	low	low	low	nt	nt	tg	tg	right	nt	cr	0.54091	wh/0130.bmp	0.05	11
318.56	1.00149	5	75	mem	lib	low	low	low	tg	tg	nt	nt	right	tg	ht	0.60149	nh/1012_nh.bmp	0.05	11.05
321.44	0.94712	5	76	mem	lib	low	low	low	tg	tg	tg	nt	right	tg	ht	0.54712	wh/0121.bmp	0.05	11.1
325.76	0.96959	5	77	mem	lib	low	low	low	nt	nt	nt	nt	right	tg	fa	0.56959	nh/0127_nh.bmp	0	11.1
329.36	1.22873	5	78	mem	lib	low	low	low	tg	tg	nt	tg	right	nt	ms	0.82873	nh/0423_nh.bmp	-0.1	11
332.24	0.91278	5	79	mem	lib	low	low	low	nt	nt	nt	nt	right	tg	fa	0.51278	nh/0492_nh.bmp	0	11
335.84	1.14481	5	80	mem	lib	low	low	low	nt	nt	nt	nt	right	tg	fa	0.74481	nh/0607_nh.bmp	0	11
339.84	3.6	5	n/a	mem	lib	low	n/a	n/a	feedback	n/a	n/a	n/a	n/a	n/a	n/a	n/a	n/a	n/a	n/a
343.44	7.2	6	n/a	mem	lib	mod	n/a	n/a	instructions	n/a	n/a	n/a	n/a	n/a	n/a	n/a	n/a	n/a	n/a
352.4	0.83385	6	81	mem	lib	mod	mod	mod	tg	tg	tg	nt	right	tg	ht	0.43385	wh/0189.bmp	0.05	11.05
356.72	0.77854	6	82	mem	lib	mod	mod	mod	nt	nt	tg	nt	right	tg	fa	0.37854	wh/0943.bmp	0	11.05
359.6	1.01551	6	83	mem	lib	mod	mod	mod	nt	nt	tg	tg	left	tg	fa	0.61551	wh/0061.bmp	0	11.05
363.2	0.8989	6	84	mem	lib	mod	mod	mod	tg	tg	tg	tg	left	tg	ht	0.4989	wh/0775.bmp	0.05	11.1
367.52	0.88083	6	85	mem	lib	mod	mod	mod	tg	tg	nt	tg	left	tg	ht	0.48083	nh/0975_nh.bmp	0.05	11.15
371.12	1.04631	6	86	mem	lib	mod	mod	mod	nt	nt	nt	tg	right	nt	cr	0.64631	nh/0604_nh.bmp	0.05	11.2
374.72	1.10481	6	87	mem	lib	mod	mod	mod	nt	nt	tg	tg	left	tg	fa	0.70481	wh/0072.bmp	0	11.2
377.6	0.90705	6	88	mem	lib	mod	mod	mod	tg	tg	tg	nt	right	tg	ht	0.50705	wh/0274.bmp	0.05	11.25
380.48	1.09658	6	89	mem	lib	mod	mod	mod	tg	tg	nt	tg	left	tg	ht	0.69658	nh/0959_nh.bmp	0.05	11.3
383.36	1.14468	6	90	mem	lib	mod	mod	mod	nt	nt	nt	tg	right	nt	cr	0.74468	nh/0365_nh.bmp	0.05	11.35
386.24	0.92898	6	91	mem	lib	mod	mod	mod	tg	tg	tg	tg	left	tg	ht	0.52898	wh/0405.bmp	0.05	11.4
390.56	0.89782	6	92	mem	lib	mod	mod	mod	nt	nt	tg	tg	left	tg	fa	0.49782	wh/0427.bmp	0	11.4
393.44	0.87472	6	93	mem	lib	mod	mod	mod	tg	tg	nt	tg	left	tg	ht	0.47472	nh/0017_nh.bmp	0.05	11.45
396.32	0.87707	6	94	mem	lib	mod	mod	mod	tg	tg	nt	nt	right	tg	ht	0.47707	nh/0393_nh.bmp	0.05	11.5
400.64	0.84175	6	95	mem	lib	mod	mod	mod	nt	nt	nt	nt	right	tg	fa	0.44175	nh/0931_nh.bmp	0	11.5
404.24	1.00596	6	96	mem	lib	mod	mod	mod	nt	nt	nt	nt	right	tg	fa	0.60596	nh/0049_nh.bmp	0	11.5
407.52	3.6	6	n/a	mem	lib	mod	n/a	n/a	feedback	n/a	n/a	n/a	n/a	n/a	n/a	n/a	n/a	n/a	n/a
411.12	7.2	7	n/a	per	con	low	n/a	n/a	instructions	n/a	n/a	n/a	n/a	n/a	n/a	n/a	n/a	n/a	n/a
418.64	1.12179	7	97	per	con	low	low	low	nt	tg	nt	nt	left	nt	cr	0.72179	nh/0119_nh.bmp	0.05	11.55
422.96	0.92484	7	98	per	con	low	low	low	nt	tg	nt	nt	left	nt	cr	0.52484	nh/0747_nh.bmp	0.05	11.6
427.28	1.19183	7	99	per	con	low	low	low	tg	tg	tg	nt	right	tg	ht	0.79183	wh/0159.bmp	0.05	11.65
430.88	0.95039	7	100	per	con	low	low	low	nt	tg	nt	nt	left	nt	cr	0.55039	nh/0996_nh.bmp	0.05	11.7
434.48	0.87714	7	101	per	con	low	low	low	nt	tg	nt	tg	right	nt	cr	0.47714	nh/0330_nh.bmp	0.05	11.75
438.08	1.03485	7	102	per	con	low	low	low	nt	nt	nt	nt	left	nt	cr	0.63485	nh/0117_nh.bmp	0.05	11.8
440.96	1.14285	7	103	per	con	low	low	low	tg	nt	tg	tg	left	tg	ht	0.74285	wh/0713.bmp	0.05	11.85
443.84	1.24989	7	104	per	con	low	low	low	tg	nt	tg	nt	left	nt	ms	0.84989	wh/0653.bmp	0	11.85
446.72	1.20382	7	105	per	con	low	low	low	tg	nt	tg	nt	left	nt	ms	0.80382	wh/0171.bmp	0	11.85
449.6	2.56	7	106	per	con	low	low	low	nt	nt	nt	nt	n/a	err	n/a	n/a	nh/0242_nh.bmp	0	11.85
452.48	0.92326	7	107	per	con	low	low	low	nt	nt	nt	tg	right	nt	cr	0.52326	nh/0877_nh.bmp	0.05	11.9
456.08	1.15574	7	108	per	con	low	low	low	tg	tg	tg	nt	left	nt	ms	0.75574	wh/0008.bmp	0	11.9
459.68	1.03997	7	109	per	con	low	low	low	tg	nt	tg	tg	right	nt	ms	0.63997	wh/0500.bmp	0	11.9
464	0.9114	7	110	per	con	low	low	low	nt	nt	nt	tg	right	nt	cr	0.5114	nh/0026_nh.bmp	0.05	11.95
467.6	0.83271	7	111	per	con	low	low	low	tg	tg	tg	tg	right	nt	ms	0.43271	wh/0485.bmp	0	11.95
470.48	0.97208	7	112	per	con	low	low	low	tg	tg	tg	tg	right	nt	ms	0.57208	wh/0979.bmp	0	11.95
473.04	3.6	7	n/a	per	con	low	n/a	n/a	feedback	n/a	n/a	n/a	n/a	n/a	n/a	n/a	n/a	n/a	n/a
476.64	7.2	8	n/a	mem	con	low	n/a	n/a	instructions	n/a	n/a	n/a	n/a	n/a	n/a	n/a	n/a	n/a	n/a
484.88	1.05986	8	113	mem	con	low	low	low	tg	tg	nt	nt	left	nt	ms	0.65986	nh/0015_nh.bmp	0	11.95
487.76	1.09467	8	114	mem	con	low	low	low	tg	tg	tg	tg	left	tg	ht	0.69467	wh/0786.bmp	0.05	12
492.08	0.85671	8	115	mem	con	low	low	low	nt	nt	nt	tg	right	nt	cr	0.45671	nh/1003_nh.bmp	0.05	12.05
495.68	0.95497	8	116	mem	con	low	low	low	tg	tg	nt	tg	left	tg	ht	0.55497	nh/0141_nh.bmp	0.05	12.1
498.56	1.09565	8	117	mem	con	low	low	low	nt	nt	nt	nt	left	nt	cr	0.69565	nh/0824_nh.bmp	0.05	12.15
501.44	1.10075	8	118	mem	con	low	low	low	nt	nt	tg	tg	right	nt	cr	0.70075	wh/0743.bmp	0.05	12.2
504.32	0.96844	8	119	mem	con	low	low	low	nt	nt	nt	tg	right	nt	cr	0.56844	nh/0314_nh.bmp	0.05	12.25
507.2	0.931	8	120	mem	con	low	low	low	nt	nt	tg	tg	right	nt	cr	0.531	wh/0819.bmp	0.05	12.3
510.8	1.05807	8	121	mem	con	low	low	low	tg	tg	tg	nt	right	tg	ht	0.65807	wh/0533.bmp	0.05	12.35
513.68	0.89288	8	122	mem	con	low	low	low	tg	tg	nt	tg	right	nt	ms	0.49288	nh/0006_nh.bmp	0	12.35
517.28	0.88936	8	123	mem	con	low	low	low	tg	tg	tg	nt	left	nt	ms	0.48936	wh/0076.bmp	0	12.35
520.16	0.98149	8	124	mem	con	low	low	low	nt	nt	tg	tg	right	nt	cr	0.58149	wh/0243.bmp	0.05	12.4
523.76	1.17172	8	125	mem	con	low	low	low	tg	tg	nt	tg	right	nt	ms	0.77172	nh/0432_nh.bmp	0	12.4
528.08	1.1818	8	126	mem	con	low	low	low	tg	tg	tg	nt	left	nt	ms	0.7818	wh/0790.bmp	0	12.4
531.68	0.90825	8	127	mem	con	low	low	low	nt	nt	nt	tg	right	nt	cr	0.50825	nh/0356_nh.bmp	0.05	12.45
536	0.84793	8	128	mem	con	low	low	low	nt	nt	tg	tg	right	nt	cr	0.44793	wh/0276.bmp	0.05	12.5
538.56	3.6	8	n/a	mem	con	low	n/a	n/a	feedback	n/a	n/a	n/a	n/a	n/a	n/a	n/a	n/a	n/a	n/a
