onset	duration	trial	pres	ts_blk	ts_trl	task	crit	disc	mem_disc	per_disc	per_type	accuracy	stim_file
7.20	0.72	1	1	6	127	mem	con	mod	mod	mod	tg	ms	wh/0378.bmp
7.92	0.72	2	1	5	122	per	lib	mod	mod	mod	nt	cr	nh/0871_nh.bmp
8.64	0.72	3	1	6	3	per	con	low	low	low	nt	cr	nh/0376_nh.bmp
9.36	0.72	4	1	7	97	per	con	mod	mod	mod	nt	cr	nh/0385_nh.bmp
10.08	0.72	5	1	6	27	per	lib	low	mod	low	nt	fa	nh/0793_nh.bmp
10.80	0.72	6	1	5	53	mem	lib	mod	mod	low	tg	ht	wh/1014.bmp
11.52	0.72	7	1	6	101	per	con	mod	mod	mod	tg	ht	wh/0337.bmp
12.24	0.72	8	1	5	124	per	lib	mod	mod	mod	nt	cr	nh/0269_nh.bmp
12.96	0.72	9	1	7	2	mem	con	mod	mod	mod	nt	ht	nh/0666_nh.bmp
13.68	0.72	10	1	7	101	per	con	mod	mod	mod	tg	ht	wh/0564.bmp
14.40	0.72	11	1	5	78	mem	con	low	low	low	nt	ht	nh/0181_nh.bmp
15.12	0.72	12	1	8	98	mem	lib	mod	mod	mod	nt	ht	nh/0544_nh.bmp
15.84	0.72	13	1	6	123	mem	con	mod	mod	mod	tg	ht	wh/0717.bmp
16.56	0.72	14	1	8	16	mem	con	mod	mod	low	tg	ms	wh/0247.bmp
17.28	0.72	15	1	6	19	per	lib	low	mod	low	tg	ht	wh/0374.bmp
18.00	0.72	16	1	6	112	per	con	mod	mod	mod	tg	ht	wh/0560.bmp
18.72	0.72	17	1	7	25	per	con	low	mod	low	nt	cr	nh/0401_nh.bmp
19.44	0.72	18	1	8	41	mem	lib	low	low	low	nt	ht	nh/1011_nh.bmp
20.16	0.72	19	1	7	48	per	lib	low	mod	low	nt	cr	nh/0883_nh.bmp
20.88	0.72	20	2	7	48	per	lib	low	mod	low	nt	cr	nh/0883_nh.bmp
21.60	0.72	21	1	8	105	mem	lib	mod	mod	mod	nt	ht	nh/0763_nh.bmp
22.32	0.72	22	1	8	107	mem	lib	mod	mod	mod	tg	ht	wh/0586.bmp
23.04	0.72	23	1	5	94	mem	con	mod	mod	low	nt	ht	nh/1019_nh.bmp
23.76	0.72	24	1	5	33	per	con	low	mod	low	nt	cr	nh/0582_nh.bmp
24.48	0.72	25	1	7	121	mem	con	low	low	mod	tg	ms	wh/0373.bmp
25.20	0.72	26	1	7	62	per	lib	mod	mod	mod	nt	cr	nh/0546_nh.bmp
25.92	0.72	27	1	7	53	per	lib	mod	mod	mod	tg	ht	wh/0441.bmp
26.64	0.72	28	1	5	14	mem	lib	low	low	low	tg	ht	wh/0825.bmp
27.36	0.72	29	1	7	28	per	con	low	mod	low	nt	fa	nh/0453_nh.bmp
28.08	0.72	30	1	6	121	mem	con	mod	mod	mod	nt	ht	nh/0556_nh.bmp
28.80	0.72	31	1	6	100	per	con	mod	mod	mod	tg	ht	wh/0995.bmp
29.52	0.72	32	1	8	38	mem	lib	low	low	low	tg	ht	wh/0587.bmp
30.24	0.72	33	1	8	111	mem	lib	mod	mod	mod	nt	ht	nh/0552_nh.bmp
30.96	0.72	34	2	7	62	per	lib	mod	mod	mod	nt	cr	nh/0546_nh.bmp
31.68	0.72	35	1	7	34	per	lib	low	mod	low	tg	ht	wh/0612.bmp
32.40	0.72	36	1	7	1	mem	con	mod	mod	mod	tg	ht	wh/0827.bmp
33.12	0.72	37	1	7	42	per	lib	low	mod	low	nt	fa	nh/0297_nh.bmp
33.84	0.72	38	1	5	49	mem	lib	mod	mod	low	tg	ht	wh/0064.bmp
34.56	0.72	39	1	8	57	per	lib	low	low	low	nt	fa	nh/0636_nh.bmp
35.28	0.72	40	1	6	109	per	con	mod	mod	mod	tg	ht	wh/0623.bmp
36.00	0.72	41	2	8	107	mem	lib	mod	mod	mod	tg	ht	wh/0586.bmp
36.72	0.72	42	1	7	37	per	lib	low	mod	low	nt	fa	nh/0253_nh.bmp
37.44	0.72	43	1	6	119	mem	con	mod	mod	mod	tg	ht	wh/0020.bmp
38.16	0.72	44	1	6	50	mem	lib	mod	mod	mod	tg	ht	wh/0179.bmp
38.88	0.72	45	1	8	106	mem	lib	mod	mod	mod	tg	ht	wh/0832.bmp
39.60	0.72	46	2	7	25	per	con	low	mod	low	nt	cr	nh/0401_nh.bmp
40.32	0.72	47	1	7	10	mem	con	mod	mod	mod	tg	ht	wh/0915.bmp
41.04	0.72	48	1	7	105	per	con	mod	mod	mod	nt	cr	nh/0778_nh.bmp
41.76	0.72	49	1	8	95	mem	con	low	low	low	tg	ms	wh/0041.bmp
42.48	0.72	50	1	5	58	mem	lib	mod	mod	low	nt	ht	nh/0254_nh.bmp
43.20	0.72	51	1	7	63	per	lib	mod	mod	mod	tg	ht	wh/0888.bmp
43.92	0.72	52	1	7	22	per	con	low	mod	low	tg	ms	wh/0176.bmp
44.64	0.72	53	1	8	127	per	lib	mod	low	mod	tg	ht	wh/0732.bmp
45.36	0.72	54	1	5	81	mem	con	mod	mod	low	nt	ht	nh/0986_nh.bmp
46.08	0.72	55	1	6	17	per	lib	low	mod	low	tg	ht	wh/0193.bmp
46.80	0.72	56	2	6	123	mem	con	mod	mod	mod	tg	ht	wh/0717.bmp
47.52	0.72	57	2	7	1	mem	con	mod	mod	mod	tg	ht	wh/0827.bmp
48.24	0.72	58	1	5	50	mem	lib	mod	mod	low	tg	ht	wh/0111.bmp
48.96	0.72	59	1	7	64	per	lib	mod	mod	mod	tg	ht	wh/0294.bmp
49.68	0.72	60	1	6	62	mem	lib	mod	mod	mod	tg	ht	wh/0366.bmp
50.40	0.72	61	1	7	99	per	con	mod	mod	mod	nt	cr	nh/0735_nh.bmp
51.12	0.72	62	1	7	104	per	con	mod	mod	mod	tg	ht	wh/0318.bmp
51.84	0.72	63	1	6	29	per	lib	low	mod	low	tg	ht	wh/0165.bmp
52.56	0.72	64	1	5	42	per	con	low	mod	low	nt	cr	nh/0491_nh.bmp
53.28	0.72	65	2	5	124	per	lib	mod	mod	mod	nt	cr	nh/0269_nh.bmp
54.00	0.72	66	1	8	108	mem	lib	mod	mod	mod	tg	ht	wh/0300.bmp
54.72	0.72	67	1	5	88	mem	con	mod	mod	low	tg	ht	wh/0618.bmp
55.44	0.72	68	2	6	17	per	lib	low	mod	low	tg	ht	wh/0193.bmp
56.16	0.72	69	1	6	57	mem	lib	mod	mod	mod	tg	ht	wh/0629.bmp
56.88	0.72	70	1	8	73	per	con	mod	low	mod	tg	ht	wh/0381.bmp
57.60	0.72	71	1	8	10	mem	con	mod	mod	low	tg	ht	wh/0164.bmp
58.32	0.72	72	1	6	93	mem	lib	low	low	mod	nt	ht	nh/0037_nh.bmp
59.04	0.72	73	2	5	42	per	con	low	mod	low	nt	cr	nh/0491_nh.bmp
59.76	0.72	74	1	7	69	mem	lib	mod	mod	low	nt	ht	nh/0521_nh.bmp
60.48	0.72	75	1	8	29	per	con	low	low	low	tg	ms	wh/0285.bmp
61.20	0.72	76	2	7	64	per	lib	mod	mod	mod	tg	ht	wh/0294.bmp
61.92	0.72	77	2	8	106	mem	lib	mod	mod	mod	tg	ht	wh/0832.bmp
62.64	0.72	78	1	8	52	per	lib	low	low	low	tg	ht	wh/0034.bmp
63.36	0.72	79	1	8	19	per	con	low	low	low	nt	cr	nh/0258_nh.bmp
64.08	0.72	80	1	5	87	mem	con	mod	mod	low	nt	ht	nh/0892_nh.bmp
64.80	0.72	81	2	6	119	mem	con	mod	mod	mod	tg	ht	wh/0020.bmp
65.52	0.72	82	3	5	42	per	con	low	mod	low	nt	cr	nh/0491_nh.bmp
66.24	0.72	83	2	5	49	mem	lib	mod	mod	low	tg	ht	wh/0064.bmp
66.96	0.72	84	2	7	104	per	con	mod	mod	mod	tg	ht	wh/0318.bmp
67.68	0.72	85	1	7	90	mem	lib	low	low	mod	tg	ht	wh/0921.bmp
68.40	0.72	86	2	8	10	mem	con	mod	mod	low	tg	ht	wh/0164.bmp
69.12	0.72	87	2	5	33	per	con	low	mod	low	nt	cr	nh/0582_nh.bmp
69.84	0.72	88	1	5	46	per	con	low	mod	low	nt	cr	nh/0820_nh.bmp
70.56	0.72	89	2	6	29	per	lib	low	mod	low	tg	ht	wh/0165.bmp
71.28	0.72	90	1	7	112	per	con	mod	mod	mod	nt	cr	nh/0399_nh.bmp
72.00	0.72	91	1	6	97	per	con	mod	mod	mod	nt	cr	nh/0833_nh.bmp
72.72	0.72	92	1	6	128	mem	con	mod	mod	mod	nt	ms	nh/0603_nh.bmp
73.44	0.72	93	1	7	36	per	lib	low	mod	low	tg	ms	wh/0863.bmp
74.16	0.72	94	1	8	97	mem	lib	mod	mod	mod	tg	ht	wh/0852.bmp
74.88	0.72	95	2	5	50	mem	lib	mod	mod	low	tg	ht	wh/0111.bmp
75.60	0.72	96	1	5	119	per	lib	mod	mod	mod	nt	fa	nh/0609_nh.bmp
76.32	0.72	97	3	8	106	mem	lib	mod	mod	mod	tg	ht	wh/0832.bmp
77.04	0.72	98	1	5	37	per	con	low	mod	low	nt	cr	nh/0073_nh.bmp
77.76	0.72	99	1	8	104	mem	lib	mod	mod	mod	nt	ht	nh/0978_nh.bmp
78.48	0.72	100	1	8	115	per	lib	mod	low	mod	nt	fa	nh/0091_nh.bmp
79.20	0.72	101	2	5	58	mem	lib	mod	mod	low	nt	ht	nh/0254_nh.bmp
79.92	0.72	102	2	7	36	per	lib	low	mod	low	tg	ms	wh/0863.bmp
80.64	0.72	103	1	8	4	mem	con	mod	mod	low	nt	ht	nh/0108_nh.bmp
81.36	0.72	104	1	6	16	per	con	low	low	low	tg	ht	wh/0135.bmp
82.08	0.72	105	1	7	80	mem	lib	mod	mod	low	tg	ht	wh/0042.bmp
82.80	0.72	106	1	8	62	per	lib	low	low	low	nt	fa	nh/0106_nh.bmp
83.52	0.72	107	1	5	28	per	lib	low	low	low	nt	fa	nh/0244_nh.bmp
84.24	0.72	108	1	5	23	per	lib	low	low	low	tg	ht	wh/0929.bmp
84.96	0.72	109	1	7	119	mem	con	low	low	mod	nt	ms	nh/0622_nh.bmp
85.68	0.72	110	2	8	4	mem	con	mod	mod	low	nt	ht	nh/0108_nh.bmp
86.40	0.72	111	2	7	10	mem	con	mod	mod	mod	tg	ht	wh/0915.bmp
87.12	0.72	112	1	8	44	mem	lib	low	low	low	nt	ms	nh/0226_nh.bmp
87.84	0.72	113	1	7	73	mem	lib	mod	mod	low	nt	ht	nh/0172_nh.bmp
88.56	0.72	114	1	7	31	per	con	low	mod	low	tg	ms	wh/0814.bmp
89.28	0.72	115	1	5	116	per	lib	mod	mod	mod	tg	ht	wh/0764.bmp
90.00	0.72	116	1	7	30	per	con	low	mod	low	tg	ms	wh/0114.bmp
90.72	0.72	117	1	5	70	mem	con	low	low	low	tg	ms	wh/0219.bmp
91.44	0.72	118	2	5	88	mem	con	mod	mod	low	tg	ht	wh/0618.bmp
92.16	0.72	119	2	6	127	mem	con	mod	mod	mod	tg	ms	wh/0378.bmp
92.88	0.72	120	2	8	108	mem	lib	mod	mod	mod	tg	ht	wh/0300.bmp
93.60	0.72	121	1	5	34	per	con	low	mod	low	tg	ht	wh/0875.bmp
94.32	0.72	122	3	6	127	mem	con	mod	mod	mod	tg	ms	wh/0378.bmp
95.04	0.72	123	1	7	66	mem	lib	mod	mod	low	tg	ht	wh/0255.bmp
95.76	0.72	124	1	5	55	mem	lib	mod	mod	low	tg	ht	wh/0640.bmp
96.48	0.72	125	2	8	111	mem	lib	mod	mod	mod	nt	ht	nh/0552_nh.bmp
97.20	0.72	126	2	6	101	per	con	mod	mod	mod	tg	ht	wh/0337.bmp
97.92	0.72	127	1	6	106	per	con	mod	mod	mod	nt	cr	nh/0797_nh.bmp
98.64	0.72	128	1	7	7	mem	con	mod	mod	mod	tg	ms	wh/0968.bmp
99.36	0.72	129	1	7	72	mem	lib	mod	mod	low	nt	ht	nh/0450_nh.bmp
100.08	0.72	130	1	7	3	mem	con	mod	mod	mod	nt	ht	nh/0638_nh.bmp
100.80	0.72	131	1	7	38	per	lib	low	mod	low	nt	cr	nh/0157_nh.bmp
101.52	0.72	132	2	6	112	per	con	mod	mod	mod	tg	ht	wh/0560.bmp
102.24	0.72	133	1	5	92	mem	con	mod	mod	low	nt	ms	nh/0170_nh.bmp
102.96	0.72	134	2	7	42	per	lib	low	mod	low	nt	fa	nh/0297_nh.bmp
103.68	0.72	135	2	7	38	per	lib	low	mod	low	nt	cr	nh/0157_nh.bmp
104.40	0.72	136	2	6	100	per	con	mod	mod	mod	tg	ht	wh/0995.bmp
105.12	0.72	137	2	6	62	mem	lib	mod	mod	mod	tg	ht	wh/0366.bmp
105.84	0.72	138	1	7	21	per	con	low	mod	low	tg	ms	wh/0248.bmp
106.56	0.72	139	1	6	49	mem	lib	mod	mod	mod	nt	ht	nh/0822_nh.bmp
107.28	0.72	140	1	5	95	mem	con	mod	mod	low	tg	ht	wh/0018.bmp
108.00	0.72	141	1	8	13	mem	con	mod	mod	low	tg	ht	wh/0647.bmp
108.72	0.72	142	2	7	53	per	lib	mod	mod	mod	tg	ht	wh/0441.bmp
109.44	0.72	143	1	7	65	mem	lib	mod	mod	low	tg	ht	wh/0848.bmp
110.16	0.72	144	1	7	13	mem	con	mod	mod	mod	nt	ht	nh/0275_nh.bmp
110.88	0.72	145	1	7	27	per	con	low	mod	low	nt	cr	nh/0756_nh.bmp
111.60	0.72	146	3	7	25	per	con	low	mod	low	nt	cr	nh/0401_nh.bmp
112.32	0.72	147	3	7	64	per	lib	mod	mod	mod	tg	ht	wh/0294.bmp
113.04	0.72	148	1	5	40	per	con	low	mod	low	tg	ms	wh/1004.bmp
113.76	0.72	149	1	7	15	mem	con	mod	mod	mod	nt	ht	nh/0821_nh.bmp
114.48	0.72	150	1	6	58	mem	lib	mod	mod	mod	nt	ht	nh/0436_nh.bmp
115.20	0.72	151	2	8	97	mem	lib	mod	mod	mod	tg	ht	wh/0852.bmp
115.92	0.72	152	1	6	32	per	lib	low	mod	low	nt	cr	nh/0118_nh.bmp
116.64	0.72	153	3	8	97	mem	lib	mod	mod	mod	tg	ht	wh/0852.bmp
117.36	0.72	154	2	6	32	per	lib	low	mod	low	nt	cr	nh/0118_nh.bmp
118.08	0.72	155	1	6	124	mem	con	mod	mod	mod	nt	ms	nh/0694_nh.bmp
118.80	0.72	156	2	5	87	mem	con	mod	mod	low	nt	ht	nh/0892_nh.bmp
119.52	0.72	157	2	7	80	mem	lib	mod	mod	low	tg	ht	wh/0042.bmp
120.24	0.72	158	2	7	13	mem	con	mod	mod	mod	nt	ht	nh/0275_nh.bmp
120.96	0.72	159	1	5	69	mem	con	low	low	low	nt	ht	nh/0224_nh.bmp
121.68	0.72	160	3	7	13	mem	con	mod	mod	mod	nt	ht	nh/0275_nh.bmp
122.40	0.72	161	1	7	78	mem	lib	mod	mod	low	tg	ht	wh/0939.bmp
123.12	0.72	162	2	5	37	per	con	low	mod	low	nt	cr	nh/0073_nh.bmp
123.84	0.72	163	1	8	21	per	con	low	low	low	tg	ms	wh/0468.bmp
124.56	0.72	164	2	7	22	per	con	low	mod	low	tg	ms	wh/0176.bmp
125.28	0.72	165	2	6	128	mem	con	mod	mod	mod	nt	ms	nh/0603_nh.bmp
126.00	0.72	166	1	6	89	mem	lib	low	low	mod	tg	ht	wh/0625.bmp
126.72	0.72	167	2	7	37	per	lib	low	mod	low	nt	fa	nh/0253_nh.bmp
127.44	0.72	168	1	6	104	per	con	mod	mod	mod	nt	cr	nh/0599_nh.bmp
128.16	0.72	169	3	7	53	per	lib	mod	mod	mod	tg	ht	wh/0441.bmp
128.88	0.72	170	3	5	58	mem	lib	mod	mod	low	nt	ht	nh/0254_nh.bmp
129.60	0.72	171	2	5	34	per	con	low	mod	low	tg	ht	wh/0875.bmp
130.32	0.72	172	1	5	90	mem	con	mod	mod	low	tg	ht	wh/0023.bmp
131.04	0.72	173	2	7	31	per	con	low	mod	low	tg	ms	wh/0814.bmp
131.76	0.72	174	3	7	42	per	lib	low	mod	low	nt	fa	nh/0297_nh.bmp
132.48	0.72	175	3	7	31	per	con	low	mod	low	tg	ms	wh/0814.bmp
133.20	0.72	176	3	8	4	mem	con	mod	mod	low	nt	ht	nh/0108_nh.bmp
133.92	0.72	177	1	5	17	per	lib	low	low	low	nt	cr	nh/0045_nh.bmp
134.64	0.72	178	1	6	56	mem	lib	mod	mod	mod	nt	ht	nh/0971_nh.bmp
135.36	0.72	179	1	6	38	mem	con	low	low	mod	tg	ms	wh/0779.bmp
136.08	0.72	180	3	6	112	per	con	mod	mod	mod	tg	ht	wh/0560.bmp
136.80	0.72	181	1	6	21	per	lib	low	mod	low	tg	ht	wh/0578.bmp
137.52	0.72	182	1	8	47	mem	lib	low	low	low	tg	ht	wh/0506.bmp
138.24	0.72	183	3	5	49	mem	lib	mod	mod	low	tg	ht	wh/0064.bmp
138.96	0.72	184	2	6	19	per	lib	low	mod	low	tg	ht	wh/0374.bmp
139.68	0.72	185	2	7	15	mem	con	mod	mod	mod	nt	ht	nh/0821_nh.bmp
140.40	0.72	186	2	5	122	per	lib	mod	mod	mod	nt	cr	nh/0871_nh.bmp
141.12	0.72	187	3	5	122	per	lib	mod	mod	mod	nt	cr	nh/0871_nh.bmp
141.84	0.72	188	3	7	15	mem	con	mod	mod	mod	nt	ht	nh/0821_nh.bmp
142.56	0.72	189	1	5	127	per	lib	mod	mod	mod	tg	ht	wh/0495.bmp
143.28	0.72	190	4	8	4	mem	con	mod	mod	low	nt	ht	nh/0108_nh.bmp
144.00	0.72	191	1	7	58	per	lib	mod	mod	mod	nt	fa	nh/0420_nh.bmp
144.72	0.72	192	1	5	121	per	lib	mod	mod	mod	tg	ht	wh/0851.bmp
145.44	0.72	193	4	5	42	per	con	low	mod	low	nt	cr	nh/0491_nh.bmp
146.16	0.72	194	2	6	124	mem	con	mod	mod	mod	nt	ms	nh/0694_nh.bmp
146.88	0.72	195	1	8	11	mem	con	mod	mod	low	nt	ht	nh/0262_nh.bmp
147.60	0.72	196	2	7	73	mem	lib	mod	mod	low	nt	ht	nh/0172_nh.bmp
148.32	0.72	197	2	7	3	mem	con	mod	mod	mod	nt	ht	nh/0638_nh.bmp
149.04	0.72	198	2	6	97	per	con	mod	mod	mod	nt	cr	nh/0833_nh.bmp
149.76	0.72	199	2	5	92	mem	con	mod	mod	low	nt	ms	nh/0170_nh.bmp
150.48	0.72	200	1	5	47	per	con	low	mod	low	tg	ms	wh/0574.bmp
151.20	0.72	201	2	5	121	per	lib	mod	mod	mod	tg	ht	wh/0851.bmp
151.92	0.72	202	2	6	50	mem	lib	mod	mod	mod	tg	ht	wh/0179.bmp
152.64	0.72	203	3	6	128	mem	con	mod	mod	mod	nt	ms	nh/0603_nh.bmp
153.36	0.72	204	3	7	48	per	lib	low	mod	low	nt	cr	nh/0883_nh.bmp
154.08	0.72	205	3	5	121	per	lib	mod	mod	mod	tg	ht	wh/0851.bmp
154.80	0.72	206	3	7	10	mem	con	mod	mod	mod	tg	ht	wh/0915.bmp
155.52	0.72	207	3	7	22	per	con	low	mod	low	tg	ms	wh/0176.bmp
156.24	0.72	208	3	7	73	mem	lib	mod	mod	low	nt	ht	nh/0172_nh.bmp
156.96	0.72	209	3	5	92	mem	con	mod	mod	low	nt	ms	nh/0170_nh.bmp
157.68	0.72	210	1	6	28	per	lib	low	mod	low	nt	cr	nh/0746_nh.bmp
158.40	0.72	211	3	6	32	per	lib	low	mod	low	nt	cr	nh/0118_nh.bmp
159.12	0.72	212	3	5	33	per	con	low	mod	low	nt	cr	nh/0582_nh.bmp
159.84	0.72	213	3	5	124	per	lib	mod	mod	mod	nt	cr	nh/0269_nh.bmp
160.56	0.72	214	1	8	91	mem	con	low	low	low	nt	ms	nh/0737_nh.bmp
161.28	0.72	215	2	7	105	per	con	mod	mod	mod	nt	cr	nh/0778_nh.bmp
162.00	0.72	216	2	8	13	mem	con	mod	mod	low	tg	ht	wh/0647.bmp
162.72	0.72	217	1	5	64	mem	lib	mod	mod	low	nt	ht	nh/0139_nh.bmp
163.44	0.72	218	1	6	94	mem	lib	low	low	mod	tg	ht	wh/0234.bmp
164.16	0.72	219	2	5	94	mem	con	mod	mod	low	nt	ht	nh/1019_nh.bmp
164.88	0.72	220	3	6	19	per	lib	low	mod	low	tg	ht	wh/0374.bmp
165.60	0.72	221	2	6	21	per	lib	low	mod	low	tg	ht	wh/0578.bmp
166.32	0.72	222	2	5	53	mem	lib	mod	mod	low	tg	ht	wh/1014.bmp
167.04	0.72	223	1	7	51	per	lib	mod	mod	mod	tg	ht	wh/0060.bmp
167.76	0.72	224	2	7	101	per	con	mod	mod	mod	tg	ht	wh/0564.bmp
168.48	0.72	225	3	7	62	per	lib	mod	mod	mod	nt	cr	nh/0546_nh.bmp
169.20	0.72	226	1	6	103	per	con	mod	mod	mod	nt	cr	nh/0408_nh.bmp
169.92	0.72	227	3	7	105	per	con	mod	mod	mod	nt	cr	nh/0778_nh.bmp
170.64	0.72	228	2	5	119	per	lib	mod	mod	mod	nt	fa	nh/0609_nh.bmp
171.36	0.72	229	3	7	3	mem	con	mod	mod	mod	nt	ht	nh/0638_nh.bmp
172.08	0.72	230	1	6	53	mem	lib	mod	mod	mod	nt	ht	nh/0549_nh.bmp
172.80	0.72	231	2	5	127	per	lib	mod	mod	mod	tg	ht	wh/0495.bmp
173.52	0.72	232	4	7	31	per	con	low	mod	low	tg	ms	wh/0814.bmp
174.24	0.72	233	2	7	2	mem	con	mod	mod	mod	nt	ht	nh/0666_nh.bmp
174.96	0.72	234	2	8	105	mem	lib	mod	mod	mod	nt	ht	nh/0763_nh.bmp
175.68	0.72	235	3	7	104	per	con	mod	mod	mod	tg	ht	wh/0318.bmp
176.40	0.72	236	3	5	94	mem	con	mod	mod	low	nt	ht	nh/1019_nh.bmp
177.12	0.72	237	4	6	128	mem	con	mod	mod	mod	nt	ms	nh/0603_nh.bmp
177.84	0.72	238	2	7	78	mem	lib	mod	mod	low	tg	ht	wh/0939.bmp
178.56	0.72	239	1	8	37	mem	lib	low	low	low	tg	ht	wh/0147.bmp
179.28	0.72	240	1	5	89	mem	con	mod	mod	low	tg	ht	wh/0678.bmp
180.00	0.72	241	2	7	65	mem	lib	mod	mod	low	tg	ht	wh/0848.bmp
180.72	0.72	242	3	6	50	mem	lib	mod	mod	mod	tg	ht	wh/0179.bmp
181.44	0.72	243	2	8	11	mem	con	mod	mod	low	nt	ht	nh/0262_nh.bmp
182.16	0.72	244	2	6	27	per	lib	low	mod	low	nt	fa	nh/0793_nh.bmp
182.88	0.72	245	2	8	104	mem	lib	mod	mod	mod	nt	ht	nh/0978_nh.bmp
183.60	0.72	246	1	8	80	per	con	mod	low	mod	nt	cr	nh/0867_nh.bmp
184.32	0.72	247	4	8	97	mem	lib	mod	mod	mod	tg	ht	wh/0852.bmp
185.04	0.72	248	3	6	123	mem	con	mod	mod	mod	tg	ht	wh/0717.bmp
185.76	0.72	249	2	7	30	per	con	low	mod	low	tg	ms	wh/0114.bmp
186.48	0.72	250	4	6	19	per	lib	low	mod	low	tg	ht	wh/0374.bmp
187.20	0.72	251	1	8	58	per	lib	low	low	low	nt	fa	nh/0728_nh.bmp
187.92	0.72	252	4	7	10	mem	con	mod	mod	mod	tg	ht	wh/0915.bmp
188.64	0.72	253	1	5	66	mem	con	low	low	low	tg	ms	wh/0639.bmp
189.36	0.72	254	3	6	100	per	con	mod	mod	mod	tg	ht	wh/0995.bmp
190.08	0.72	255	3	7	2	mem	con	mod	mod	mod	nt	ht	nh/0666_nh.bmp
190.80	0.72	256	5	7	31	per	con	low	mod	low	tg	ms	wh/0814.bmp
191.52	0.72	257	2	6	56	mem	lib	mod	mod	mod	nt	ht	nh/0971_nh.bmp
192.24	0.72	258	3	5	50	mem	lib	mod	mod	low	tg	ht	wh/0111.bmp
192.96	0.72	259	2	5	64	mem	lib	mod	mod	low	nt	ht	nh/0139_nh.bmp
193.68	0.72	260	1	8	12	mem	con	mod	mod	low	tg	ht	wh/0734.bmp
194.40	0.72	261	2	7	72	mem	lib	mod	mod	low	nt	ht	nh/0450_nh.bmp
195.12	0.72	262	1	5	120	per	lib	mod	mod	mod	tg	ht	wh/0715.bmp
195.84	0.72	263	2	7	7	mem	con	mod	mod	mod	tg	ms	wh/0968.bmp
196.56	0.72	264	1	6	118	mem	con	mod	mod	mod	tg	ht	wh/0952.bmp
197.28	0.72	265	3	7	30	per	con	low	mod	low	tg	ms	wh/0114.bmp
198.00	0.72	266	2	6	28	per	lib	low	mod	low	nt	cr	nh/0746_nh.bmp
198.72	0.72	267	2	6	58	mem	lib	mod	mod	mod	nt	ht	nh/0436_nh.bmp
199.44	0.72	268	1	7	57	per	lib	mod	mod	mod	nt	fa	nh/0686_nh.bmp
200.16	0.72	269	1	7	117	mem	con	low	low	mod	tg	ht	wh/0945.bmp
200.88	0.72	270	1	7	59	per	lib	mod	mod	mod	nt	fa	nh/0958_nh.bmp
201.60	0.72	271	1	5	98	per	con	mod	low	mod	nt	cr	nh/0207_nh.bmp
202.32	0.72	272	2	7	34	per	lib	low	mod	low	tg	ht	wh/0612.bmp
203.04	0.72	273	4	7	64	per	lib	mod	mod	mod	tg	ht	wh/0294.bmp
203.76	0.72	274	1	5	38	per	con	low	mod	low	tg	ms	wh/0241.bmp
204.48	0.72	275	1	5	101	per	con	mod	low	mod	nt	cr	nh/0016_nh.bmp
205.20	0.72	276	3	6	17	per	lib	low	mod	low	tg	ht	wh/0193.bmp
205.92	0.72	277	2	6	104	per	con	mod	mod	mod	nt	cr	nh/0599_nh.bmp
206.64	0.72	278	1	5	4	mem	lib	low	low	low	nt	ht	nh/0859_nh.bmp
207.36	0.72	279	2	8	98	mem	lib	mod	mod	mod	nt	ht	nh/0544_nh.bmp
208.08	0.72	280	4	7	104	per	con	mod	mod	mod	tg	ht	wh/0318.bmp
208.80	0.72	281	4	7	73	mem	lib	mod	mod	low	nt	ht	nh/0172_nh.bmp
209.52	0.72	282	1	5	61	mem	lib	mod	mod	low	nt	ht	nh/0780_nh.bmp
210.24	0.72	283	2	6	53	mem	lib	mod	mod	mod	nt	ht	nh/0549_nh.bmp
210.96	0.72	284	3	8	104	mem	lib	mod	mod	mod	nt	ht	nh/0978_nh.bmp
211.68	0.72	285	3	6	104	per	con	mod	mod	mod	nt	cr	nh/0599_nh.bmp
212.40	0.72	286	2	5	40	per	con	low	mod	low	tg	ms	wh/1004.bmp
213.12	0.72	287	2	5	95	mem	con	mod	mod	low	tg	ht	wh/0018.bmp
213.84	0.72	288	3	7	72	mem	lib	mod	mod	low	nt	ht	nh/0450_nh.bmp
214.56	0.72	289	2	5	55	mem	lib	mod	mod	low	tg	ht	wh/0640.bmp
215.28	0.72	290	2	5	46	per	con	low	mod	low	nt	cr	nh/0820_nh.bmp
216.00	0.72	291	2	6	109	per	con	mod	mod	mod	tg	ht	wh/0623.bmp
216.72	0.72	292	1	8	124	per	lib	mod	low	mod	nt	cr	nh/0084_nh.bmp
217.44	0.72	293	1	7	71	mem	lib	mod	mod	low	nt	ht	nh/0388_nh.bmp
218.16	0.72	294	2	5	90	mem	con	mod	mod	low	tg	ht	wh/0023.bmp
218.88	0.72	295	2	7	66	mem	lib	mod	mod	low	tg	ht	wh/0255.bmp
219.60	0.72	296	1	7	113	mem	con	low	low	mod	nt	ht	nh/0751_nh.bmp
220.32	0.72	297	1	6	26	per	lib	low	mod	low	nt	fa	nh/0403_nh.bmp
221.04	0.72	298	3	6	56	mem	lib	mod	mod	mod	nt	ht	nh/0971_nh.bmp
221.76	0.72	299	3	6	101	per	con	mod	mod	mod	tg	ht	wh/0337.bmp
222.48	0.72	300	1	7	84	mem	lib	low	low	mod	nt	ht	nh/0186_nh.bmp
223.20	0.72	301	3	5	119	per	lib	mod	mod	mod	nt	fa	nh/0609_nh.bmp
223.92	0.72	302	3	5	95	mem	con	mod	mod	low	tg	ht	wh/0018.bmp
224.64	0.72	303	4	6	123	mem	con	mod	mod	mod	tg	ht	wh/0717.bmp
225.36	0.72	304	3	7	66	mem	lib	mod	mod	low	tg	ht	wh/0255.bmp
226.08	0.72	305	2	5	61	mem	lib	mod	mod	low	nt	ht	nh/0780_nh.bmp
226.80	0.72	306	2	7	51	per	lib	mod	mod	mod	tg	ht	wh/0060.bmp
227.52	0.72	307	5	6	19	per	lib	low	mod	low	tg	ht	wh/0374.bmp
228.24	0.72	308	2	7	63	per	lib	mod	mod	mod	tg	ht	wh/0888.bmp
228.96	0.72	309	3	7	34	per	lib	low	mod	low	tg	ht	wh/0612.bmp
229.68	0.72	310	1	8	5	mem	con	mod	mod	low	nt	ht	nh/0249_nh.bmp
230.40	0.72	311	1	6	90	mem	lib	low	low	mod	tg	ht	wh/0051.bmp
231.12	0.72	312	3	7	65	mem	lib	mod	mod	low	tg	ht	wh/0848.bmp
231.84	0.72	313	4	5	94	mem	con	mod	mod	low	nt	ht	nh/1019_nh.bmp
232.56	0.72	314	2	6	49	mem	lib	mod	mod	mod	nt	ht	nh/0822_nh.bmp
233.28	0.72	315	3	6	53	mem	lib	mod	mod	mod	nt	ht	nh/0549_nh.bmp
234.00	0.72	316	3	6	58	mem	lib	mod	mod	mod	nt	ht	nh/0436_nh.bmp
234.72	0.72	317	4	8	104	mem	lib	mod	mod	mod	nt	ht	nh/0978_nh.bmp
235.44	0.72	318	2	7	21	per	con	low	mod	low	tg	ms	wh/0248.bmp
236.16	0.72	319	3	8	111	mem	lib	mod	mod	mod	nt	ht	nh/0552_nh.bmp
236.88	0.72	320	3	6	109	per	con	mod	mod	mod	tg	ht	wh/0623.bmp
237.60	0.72	321	3	6	49	mem	lib	mod	mod	mod	nt	ht	nh/0822_nh.bmp
238.32	0.72	322	1	7	11	mem	con	mod	mod	mod	tg	ht	wh/0590.bmp
239.04	0.72	323	3	6	119	mem	con	mod	mod	mod	tg	ht	wh/0020.bmp
239.76	0.72	324	4	7	22	per	con	low	mod	low	tg	ms	wh/0176.bmp
240.48	0.72	325	3	6	124	mem	con	mod	mod	mod	nt	ms	nh/0694_nh.bmp
241.20	0.72	326	3	7	37	per	lib	low	mod	low	nt	fa	nh/0253_nh.bmp
241.92	0.72	327	4	7	65	mem	lib	mod	mod	low	tg	ht	wh/0848.bmp
242.64	0.72	328	1	6	85	mem	lib	low	low	mod	tg	ht	wh/0537.bmp
243.36	0.72	329	4	7	62	per	lib	mod	mod	mod	nt	cr	nh/0546_nh.bmp
244.08	0.72	330	2	7	57	per	lib	mod	mod	mod	nt	fa	nh/0686_nh.bmp
244.80	0.72	331	3	8	98	mem	lib	mod	mod	mod	nt	ht	nh/0544_nh.bmp
245.52	0.72	332	2	7	112	per	con	mod	mod	mod	nt	cr	nh/0399_nh.bmp
246.24	0.72	333	5	8	97	mem	lib	mod	mod	mod	tg	ht	wh/0852.bmp
246.96	0.72	334	5	6	123	mem	con	mod	mod	mod	tg	ht	wh/0717.bmp
247.68	0.72	335	4	7	25	per	con	low	mod	low	nt	cr	nh/0401_nh.bmp
248.40	0.72	336	3	8	108	mem	lib	mod	mod	mod	tg	ht	wh/0300.bmp
249.12	0.72	337	3	5	46	per	con	low	mod	low	nt	cr	nh/0820_nh.bmp
249.84	0.72	338	3	5	88	mem	con	mod	mod	low	tg	ht	wh/0618.bmp
250.56	0.72	339	3	7	38	per	lib	low	mod	low	nt	cr	nh/0157_nh.bmp
251.28	0.72	340	3	8	105	mem	lib	mod	mod	mod	nt	ht	nh/0763_nh.bmp
252.00	0.72	341	4	5	46	per	con	low	mod	low	nt	cr	nh/0820_nh.bmp
252.72	0.72	342	1	7	26	per	con	low	mod	low	nt	cr	nh/0394_nh.bmp
253.44	0.72	343	3	5	127	per	lib	mod	mod	mod	tg	ht	wh/0495.bmp
254.16	0.72	344	2	7	11	mem	con	mod	mod	mod	tg	ht	wh/0590.bmp
254.88	0.72	345	2	6	26	per	lib	low	mod	low	nt	fa	nh/0403_nh.bmp
255.60	0.72	346	3	5	37	per	con	low	mod	low	nt	cr	nh/0073_nh.bmp
256.32	0.72	347	5	5	94	mem	con	mod	mod	low	nt	ht	nh/1019_nh.bmp
257.04	0.72	348	3	6	97	per	con	mod	mod	mod	nt	cr	nh/0833_nh.bmp
257.76	0.72	349	4	5	49	mem	lib	mod	mod	low	tg	ht	wh/0064.bmp
258.48	0.72	350	4	7	48	per	lib	low	mod	low	nt	cr	nh/0883_nh.bmp
259.20	0.72	351	5	7	62	per	lib	mod	mod	mod	nt	cr	nh/0546_nh.bmp
259.92	0.72	352	2	7	26	per	con	low	mod	low	nt	cr	nh/0394_nh.bmp
260.64	0.72	353	4	6	49	mem	lib	mod	mod	mod	nt	ht	nh/0822_nh.bmp
261.36	0.72	354	5	7	25	per	con	low	mod	low	nt	cr	nh/0401_nh.bmp
262.08	0.72	355	1	5	8	mem	lib	low	low	low	tg	ht	wh/0677.bmp
262.80	0.72	356	1	8	48	mem	lib	low	low	low	nt	ht	nh/0058_nh.bmp
263.52	0.72	357	3	5	53	mem	lib	mod	mod	low	tg	ht	wh/1014.bmp
264.24	0.72	358	1	7	41	per	lib	low	mod	low	tg	ms	wh/0519.bmp
264.96	0.72	359	3	8	10	mem	con	mod	mod	low	tg	ht	wh/0164.bmp
265.68	0.72	360	1	5	108	per	con	mod	low	mod	nt	cr	nh/0948_nh.bmp
266.40	0.72	361	4	8	108	mem	lib	mod	mod	mod	tg	ht	wh/0300.bmp
267.12	0.72	362	3	5	61	mem	lib	mod	mod	low	nt	ht	nh/0780_nh.bmp
267.84	0.72	363	4	7	38	per	lib	low	mod	low	nt	cr	nh/0157_nh.bmp
268.56	0.72	364	2	7	71	mem	lib	mod	mod	low	nt	ht	nh/0388_nh.bmp
269.28	0.72	365	3	7	57	per	lib	mod	mod	mod	nt	fa	nh/0686_nh.bmp
270.00	0.72	366	2	5	47	per	con	low	mod	low	tg	ms	wh/0574.bmp
270.72	0.72	367	2	5	116	per	lib	mod	mod	mod	tg	ht	wh/0764.bmp
271.44	0.72	368	2	5	81	mem	con	mod	mod	low	nt	ht	nh/0986_nh.bmp
272.16	0.72	369	3	6	28	per	lib	low	mod	low	nt	cr	nh/0746_nh.bmp
272.88	0.72	370	2	8	5	mem	con	mod	mod	low	nt	ht	nh/0249_nh.bmp
273.60	0.72	371	3	5	34	per	con	low	mod	low	tg	ht	wh/0875.bmp
274.32	0.72	372	2	5	120	per	lib	mod	mod	mod	tg	ht	wh/0715.bmp
275.04	0.72	373	1	5	54	mem	lib	mod	mod	low	nt	ht	nh/0012_nh.bmp
275.76	0.72	374	4	7	105	per	con	mod	mod	mod	nt	cr	nh/0778_nh.bmp
276.48	0.72	375	2	7	41	per	lib	low	mod	low	tg	ms	wh/0519.bmp
277.20	0.72	376	4	7	72	mem	lib	mod	mod	low	nt	ht	nh/0450_nh.bmp
277.92	0.72	377	4	8	10	mem	con	mod	mod	low	tg	ht	wh/0164.bmp
278.64	0.72	378	4	8	106	mem	lib	mod	mod	mod	tg	ht	wh/0832.bmp
279.36	0.72	379	5	8	106	mem	lib	mod	mod	mod	tg	ht	wh/0832.bmp
280.08	0.72	380	5	6	128	mem	con	mod	mod	mod	nt	ms	nh/0603_nh.bmp
280.80	0.72	381	6	7	62	per	lib	mod	mod	mod	nt	cr	nh/0546_nh.bmp
281.52	0.72	382	1	6	43	mem	con	low	low	mod	nt	ms	nh/0093_nh.bmp
282.24	0.72	383	3	6	27	per	lib	low	mod	low	nt	fa	nh/0793_nh.bmp
282.96	0.72	384	3	7	1	mem	con	mod	mod	mod	tg	ht	wh/0827.bmp
283.68	0.72	385	6	6	128	mem	con	mod	mod	mod	nt	ms	nh/0603_nh.bmp
284.40	0.72	386	3	8	107	mem	lib	mod	mod	mod	tg	ht	wh/0586.bmp
285.12	0.72	387	5	8	104	mem	lib	mod	mod	mod	nt	ht	nh/0978_nh.bmp
285.84	0.72	388	4	6	109	per	con	mod	mod	mod	tg	ht	wh/0623.bmp
286.56	0.72	389	1	8	67	per	con	mod	low	mod	nt	cr	nh/0372_nh.bmp
287.28	0.72	390	1	7	82	mem	lib	low	low	mod	nt	ms	nh/0349_nh.bmp
288.00	0.72	391	4	6	127	mem	con	mod	mod	mod	tg	ms	wh/0378.bmp
288.72	0.72	392	3	5	87	mem	con	mod	mod	low	nt	ht	nh/0892_nh.bmp
289.44	0.72	393	1	8	14	mem	con	mod	mod	low	nt	ms	nh/0143_nh.bmp
290.16	0.72	394	3	8	11	mem	con	mod	mod	low	nt	ht	nh/0262_nh.bmp
290.88	0.72	395	4	6	101	per	con	mod	mod	mod	tg	ht	wh/0337.bmp
291.60	0.72	396	1	8	85	mem	con	low	low	low	nt	ms	nh/0990_nh.bmp
292.32	0.72	397	4	8	98	mem	lib	mod	mod	mod	nt	ht	nh/0544_nh.bmp
293.04	0.72	398	4	5	37	per	con	low	mod	low	nt	cr	nh/0073_nh.bmp
293.76	0.72	399	3	7	63	per	lib	mod	mod	mod	tg	ht	wh/0888.bmp
294.48	0.72	400	4	5	58	mem	lib	mod	mod	low	nt	ht	nh/0254_nh.bmp
295.20	0.72	401	4	7	53	per	lib	mod	mod	mod	tg	ht	wh/0441.bmp
295.92	0.72	402	1	6	75	per	lib	mod	low	mod	tg	ht	wh/0389.bmp
296.64	0.72	403	3	7	26	per	con	low	mod	low	nt	cr	nh/0394_nh.bmp
297.36	0.72	404	3	7	80	mem	lib	mod	mod	low	tg	ht	wh/0042.bmp
298.08	0.72	405	3	5	116	per	lib	mod	mod	mod	tg	ht	wh/0764.bmp
298.80	0.72	406	2	6	57	mem	lib	mod	mod	mod	tg	ht	wh/0629.bmp
299.52	0.72	407	4	5	127	per	lib	mod	mod	mod	tg	ht	wh/0495.bmp
300.24	0.72	408	1	8	120	per	lib	mod	low	mod	tg	ht	wh/0924.bmp
300.96	0.72	409	1	6	40	mem	con	low	low	mod	tg	ht	wh/0308.bmp
301.68	0.72	410	1	5	67	mem	con	low	low	low	tg	ms	wh/0144.bmp
302.40	0.72	411	1	6	54	mem	lib	mod	mod	mod	tg	ht	wh/0056.bmp
303.12	0.72	412	1	7	111	per	con	mod	mod	mod	tg	ms	wh/0835.bmp
303.84	0.72	413	2	6	54	mem	lib	mod	mod	mod	tg	ht	wh/0056.bmp
304.56	0.72	414	3	6	62	mem	lib	mod	mod	mod	tg	ht	wh/0366.bmp
305.28	0.72	415	3	7	101	per	con	mod	mod	mod	tg	ht	wh/0564.bmp
306.00	0.72	416	4	5	124	per	lib	mod	mod	mod	nt	cr	nh/0269_nh.bmp
306.72	0.72	417	3	7	21	per	con	low	mod	low	tg	ms	wh/0248.bmp
307.44	0.72	418	2	7	69	mem	lib	mod	mod	low	nt	ht	nh/0521_nh.bmp
308.16	0.72	419	4	6	17	per	lib	low	mod	low	tg	ht	wh/0193.bmp
308.88	0.72	420	3	8	13	mem	con	mod	mod	low	tg	ht	wh/0647.bmp
309.60	0.72	421	2	5	89	mem	con	mod	mod	low	tg	ht	wh/0678.bmp
310.32	0.72	422	2	7	27	per	con	low	mod	low	nt	cr	nh/0756_nh.bmp
311.04	0.72	423	3	5	81	mem	con	mod	mod	low	nt	ht	nh/0986_nh.bmp
311.76	0.72	424	4	8	111	mem	lib	mod	mod	mod	nt	ht	nh/0552_nh.bmp
312.48	0.72	425	4	7	34	per	lib	low	mod	low	tg	ht	wh/0612.bmp
313.20	0.72	426	5	8	98	mem	lib	mod	mod	mod	nt	ht	nh/0544_nh.bmp
313.92	0.72	427	5	7	65	mem	lib	mod	mod	low	tg	ht	wh/0848.bmp
314.64	0.72	428	3	7	78	mem	lib	mod	mod	low	tg	ht	wh/0939.bmp
315.36	0.72	429	5	5	42	per	con	low	mod	low	nt	cr	nh/0491_nh.bmp
316.08	0.72	430	6	8	104	mem	lib	mod	mod	mod	nt	ht	nh/0978_nh.bmp
316.80	0.72	431	4	7	101	per	con	mod	mod	mod	tg	ht	wh/0564.bmp
317.52	0.72	432	1	6	15	per	con	low	low	low	nt	cr	nh/0767_nh.bmp
318.24	0.72	433	4	7	30	per	con	low	mod	low	tg	ms	wh/0114.bmp
318.96	0.72	434	4	6	119	mem	con	mod	mod	mod	tg	ht	wh/0020.bmp
319.68	0.72	435	2	6	121	mem	con	mod	mod	mod	nt	ht	nh/0556_nh.bmp
320.40	0.72	436	5	6	17	per	lib	low	mod	low	tg	ht	wh/0193.bmp
321.12	0.72	437	4	7	66	mem	lib	mod	mod	low	tg	ht	wh/0255.bmp
321.84	0.72	438	1	7	39	per	lib	low	mod	low	tg	ms	wh/0024.bmp
322.56	0.72	439	2	7	58	per	lib	mod	mod	mod	nt	fa	nh/0420_nh.bmp
323.28	0.72	440	3	5	40	per	con	low	mod	low	tg	ms	wh/1004.bmp
324.00	0.72	441	2	6	118	mem	con	mod	mod	mod	tg	ht	wh/0952.bmp
324.72	0.72	442	2	8	12	mem	con	mod	mod	low	tg	ht	wh/0734.bmp
325.44	0.72	443	4	5	53	mem	lib	mod	mod	low	tg	ht	wh/1014.bmp
326.16	0.72	444	3	7	71	mem	lib	mod	mod	low	nt	ht	nh/0388_nh.bmp
326.88	0.72	445	1	8	60	per	lib	low	low	low	tg	ht	wh/0043.bmp
327.60	0.72	446	2	8	14	mem	con	mod	mod	low	nt	ms	nh/0143_nh.bmp
328.32	0.72	447	1	8	23	per	con	low	low	low	nt	cr	nh/0482_nh.bmp
329.04	0.72	448	3	6	26	per	lib	low	mod	low	nt	fa	nh/0403_nh.bmp
329.76	0.72	449	5	7	22	per	con	low	mod	low	tg	ms	wh/0176.bmp
330.48	0.72	450	4	7	21	per	con	low	mod	low	tg	ms	wh/0248.bmp
331.20	0.72	451	4	6	53	mem	lib	mod	mod	mod	nt	ht	nh/0549_nh.bmp
331.92	0.72	452	4	5	50	mem	lib	mod	mod	low	tg	ht	wh/0111.bmp
332.64	0.72	453	1	6	115	mem	con	mod	mod	mod	nt	ht	nh/0239_nh.bmp
333.36	0.72	454	4	6	27	per	lib	low	mod	low	nt	fa	nh/0793_nh.bmp
334.08	0.72	455	3	5	89	mem	con	mod	mod	low	tg	ht	wh/0678.bmp
334.80	0.72	456	4	5	95	mem	con	mod	mod	low	tg	ht	wh/0018.bmp
335.52	0.72	457	5	6	49	mem	lib	mod	mod	mod	nt	ht	nh/0822_nh.bmp
336.24	0.72	458	3	6	29	per	lib	low	mod	low	tg	ht	wh/0165.bmp
336.96	0.72	459	4	6	100	per	con	mod	mod	mod	tg	ht	wh/0995.bmp
337.68	0.72	460	4	5	92	mem	con	mod	mod	low	nt	ms	nh/0170_nh.bmp
338.40	0.72	461	5	7	105	per	con	mod	mod	mod	nt	cr	nh/0778_nh.bmp
339.12	0.72	462	3	7	51	per	lib	mod	mod	mod	tg	ht	wh/0060.bmp
339.84	0.72	463	4	7	51	per	lib	mod	mod	mod	tg	ht	wh/0060.bmp
340.56	0.72	464	2	6	103	per	con	mod	mod	mod	nt	cr	nh/0408_nh.bmp
341.28	0.72	465	1	7	102	per	con	mod	mod	mod	tg	ms	wh/0086.bmp
342.00	0.72	466	4	6	58	mem	lib	mod	mod	mod	nt	ht	nh/0436_nh.bmp
342.72	0.72	467	5	5	92	mem	con	mod	mod	low	nt	ms	nh/0170_nh.bmp
343.44	0.72	468	1	5	106	per	con	mod	low	mod	tg	ms	wh/0180.bmp
344.16	0.72	469	3	7	69	mem	lib	mod	mod	low	nt	ht	nh/0521_nh.bmp
344.88	0.72	470	1	8	45	mem	lib	low	low	low	tg	ht	wh/0089.bmp
345.60	0.72	471	3	6	21	per	lib	low	mod	low	tg	ht	wh/0578.bmp
346.32	0.72	472	4	5	119	per	lib	mod	mod	mod	nt	fa	nh/0609_nh.bmp
347.04	0.72	473	4	6	56	mem	lib	mod	mod	mod	nt	ht	nh/0971_nh.bmp
347.76	0.72	474	5	5	53	mem	lib	mod	mod	low	tg	ht	wh/1014.bmp
348.48	0.72	475	3	5	90	mem	con	mod	mod	low	tg	ht	wh/0023.bmp
349.20	0.72	476	1	6	77	per	lib	mod	low	mod	nt	cr	nh/0101_nh.bmp
349.92	0.72	477	1	8	122	per	lib	mod	low	mod	tg	ht	wh/0663.bmp
350.64	0.72	478	5	7	101	per	con	mod	mod	mod	tg	ht	wh/0564.bmp
351.36	0.72	479	3	6	103	per	con	mod	mod	mod	nt	cr	nh/0408_nh.bmp
352.08	0.72	480	2	8	16	mem	con	mod	mod	low	tg	ms	wh/0247.bmp
352.80	0.72	481	3	5	55	mem	lib	mod	mod	low	tg	ht	wh/0640.bmp
353.52	0.72	482	5	6	127	mem	con	mod	mod	mod	tg	ms	wh/0378.bmp
354.24	0.72	483	4	7	3	mem	con	mod	mod	mod	nt	ht	nh/0638_nh.bmp
354.96	0.72	484	1	6	12	per	con	low	low	low	tg	ms	wh/0268.bmp
355.68	0.72	485	3	5	120	per	lib	mod	mod	mod	tg	ht	wh/0715.bmp
356.40	0.72	486	1	8	93	mem	con	low	low	low	tg	ht	wh/0022.bmp
357.12	0.72	487	4	8	13	mem	con	mod	mod	low	tg	ht	wh/0647.bmp
357.84	0.72	488	1	7	94	mem	lib	low	low	mod	tg	ht	wh/0227.bmp
358.56	0.72	489	4	7	13	mem	con	mod	mod	mod	nt	ht	nh/0275_nh.bmp
359.28	0.72	490	5	7	34	per	lib	low	mod	low	tg	ht	wh/0612.bmp
360.00	0.72	491	5	5	119	per	lib	mod	mod	mod	nt	fa	nh/0609_nh.bmp
360.72	0.72	492	4	6	62	mem	lib	mod	mod	mod	tg	ht	wh/0366.bmp
361.44	0.72	493	3	6	118	mem	con	mod	mod	mod	tg	ht	wh/0952.bmp
362.16	0.72	494	3	8	5	mem	con	mod	mod	low	nt	ht	nh/0249_nh.bmp
362.88	0.72	495	4	7	2	mem	con	mod	mod	mod	nt	ht	nh/0666_nh.bmp
363.60	0.72	496	5	8	111	mem	lib	mod	mod	mod	nt	ht	nh/0552_nh.bmp
364.32	0.72	497	4	6	32	per	lib	low	mod	low	nt	cr	nh/0118_nh.bmp
365.04	0.72	498	4	6	21	per	lib	low	mod	low	tg	ht	wh/0578.bmp
365.76	0.72	499	1	5	19	per	lib	low	low	low	nt	fa	nh/0617_nh.bmp
366.48	0.72	500	1	8	53	per	lib	low	low	low	tg	ht	wh/0657.bmp
367.20	0.72	501	1	5	3	mem	lib	low	low	low	tg	ht	wh/0138.bmp
367.92	0.72	502	1	5	26	per	lib	low	low	low	tg	ms	wh/0280.bmp
368.64	0.72	503	1	8	77	per	con	mod	low	mod	nt	cr	nh/0221_nh.bmp
369.36	0.72	504	4	7	57	per	lib	mod	mod	mod	nt	fa	nh/0686_nh.bmp
370.08	0.72	505	5	7	13	mem	con	mod	mod	mod	nt	ht	nh/0275_nh.bmp
370.80	0.72	506	4	8	105	mem	lib	mod	mod	mod	nt	ht	nh/0763_nh.bmp
371.52	0.72	507	4	8	11	mem	con	mod	mod	low	nt	ht	nh/0262_nh.bmp
372.24	0.72	508	6	5	94	mem	con	mod	mod	low	nt	ht	nh/1019_nh.bmp
372.96	0.72	509	2	7	99	per	con	mod	mod	mod	nt	cr	nh/0735_nh.bmp
373.68	0.72	510	4	5	122	per	lib	mod	mod	mod	nt	cr	nh/0871_nh.bmp
374.40	0.72	511	1	5	110	per	con	mod	low	mod	tg	ht	wh/0907.bmp
375.12	0.72	512	2	5	38	per	con	low	mod	low	tg	ms	wh/0241.bmp
375.84	0.72	513	1	7	92	mem	lib	low	low	mod	tg	ht	wh/0046.bmp
376.56	0.72	514	6	5	42	per	con	low	mod	low	nt	cr	nh/0491_nh.bmp
377.28	0.72	515	4	6	26	per	lib	low	mod	low	nt	fa	nh/0403_nh.bmp
378.00	0.72	516	3	7	112	per	con	mod	mod	mod	nt	cr	nh/0399_nh.bmp
378.72	0.72	517	1	6	67	per	lib	mod	low	mod	tg	ht	wh/1008.bmp
379.44	0.72	518	1	6	36	mem	con	low	low	mod	nt	ms	nh/0418_nh.bmp
380.16	0.72	519	3	8	12	mem	con	mod	mod	low	tg	ht	wh/0734.bmp
380.88	0.72	520	1	5	72	mem	con	low	low	low	nt	ht	nh/0240_nh.bmp
381.60	0.72	521	4	7	26	per	con	low	mod	low	nt	cr	nh/0394_nh.bmp
382.32	0.72	522	5	7	104	per	con	mod	mod	mod	tg	ht	wh/0318.bmp
383.04	0.72	523	5	5	37	per	con	low	mod	low	nt	cr	nh/0073_nh.bmp
383.76	0.72	524	4	7	71	mem	lib	mod	mod	low	nt	ht	nh/0388_nh.bmp
384.48	0.72	525	6	7	25	per	con	low	mod	low	nt	cr	nh/0401_nh.bmp
385.20	0.72	526	3	7	41	per	lib	low	mod	low	tg	ms	wh/0519.bmp
385.92	0.72	527	5	7	48	per	lib	low	mod	low	nt	cr	nh/0883_nh.bmp
386.64	0.72	528	5	5	127	per	lib	mod	mod	mod	tg	ht	wh/0495.bmp
387.36	0.72	529	5	7	64	per	lib	mod	mod	mod	tg	ht	wh/0294.bmp
388.08	0.72	530	2	7	59	per	lib	mod	mod	mod	nt	fa	nh/0958_nh.bmp
388.80	0.72	531	5	7	3	mem	con	mod	mod	mod	nt	ht	nh/0638_nh.bmp
389.52	0.72	532	2	5	54	mem	lib	mod	mod	low	nt	ht	nh/0012_nh.bmp
390.24	0.72	533	4	5	121	per	lib	mod	mod	mod	tg	ht	wh/0851.bmp
390.96	0.72	534	2	7	111	per	con	mod	mod	mod	tg	ms	wh/0835.bmp
391.68	0.72	535	6	7	105	per	con	mod	mod	mod	nt	cr	nh/0778_nh.bmp
392.40	0.72	536	4	7	15	mem	con	mod	mod	mod	nt	ht	nh/0821_nh.bmp
393.12	0.72	537	1	5	113	per	lib	mod	mod	mod	nt	fa	nh/0602_nh.bmp
393.84	0.72	538	5	5	124	per	lib	mod	mod	mod	nt	cr	nh/0269_nh.bmp
394.56	0.72	539	2	7	97	per	con	mod	mod	mod	nt	cr	nh/0385_nh.bmp
395.28	0.72	540	4	6	103	per	con	mod	mod	mod	nt	cr	nh/0408_nh.bmp
396.00	0.72	541	1	6	87	mem	lib	low	low	mod	nt	ht	nh/1005_nh.bmp
396.72	0.72	542	5	8	108	mem	lib	mod	mod	mod	tg	ht	wh/0300.bmp
397.44	0.72	543	1	8	64	per	lib	low	low	low	nt	fa	nh/0518_nh.bmp
398.16	0.72	544	4	7	112	per	con	mod	mod	mod	nt	cr	nh/0399_nh.bmp
398.88	0.72	545	4	6	124	mem	con	mod	mod	mod	nt	ms	nh/0694_nh.bmp
399.60	0.72	546	5	6	53	mem	lib	mod	mod	mod	nt	ht	nh/0549_nh.bmp
400.32	0.72	547	5	6	103	per	con	mod	mod	mod	nt	cr	nh/0408_nh.bmp
401.04	0.72	548	5	7	15	mem	con	mod	mod	mod	nt	ht	nh/0821_nh.bmp
401.76	0.72	549	3	7	99	per	con	mod	mod	mod	nt	cr	nh/0735_nh.bmp
402.48	0.72	550	5	6	58	mem	lib	mod	mod	mod	nt	ht	nh/0436_nh.bmp
403.20	0.72	551	4	5	87	mem	con	mod	mod	low	nt	ht	nh/0892_nh.bmp
403.92	0.72	552	1	8	79	per	con	mod	low	mod	nt	cr	nh/0305_nh.bmp
404.64	0.72	553	5	5	87	mem	con	mod	mod	low	nt	ht	nh/0892_nh.bmp
405.36	0.72	554	3	7	36	per	lib	low	mod	low	tg	ms	wh/0863.bmp
406.08	0.72	555	4	5	89	mem	con	mod	mod	low	tg	ht	wh/0678.bmp
406.80	0.72	556	2	5	113	per	lib	mod	mod	mod	nt	fa	nh/0602_nh.bmp
407.52	0.72	557	5	7	73	mem	lib	mod	mod	low	nt	ht	nh/0172_nh.bmp
408.24	0.72	558	5	6	56	mem	lib	mod	mod	mod	nt	ht	nh/0971_nh.bmp
408.96	0.72	559	3	7	7	mem	con	mod	mod	mod	tg	ms	wh/0968.bmp
409.68	0.72	560	4	7	78	mem	lib	mod	mod	low	tg	ht	wh/0939.bmp
410.40	0.72	561	5	8	13	mem	con	mod	mod	low	tg	ht	wh/0647.bmp
411.12	0.72	562	6	6	58	mem	lib	mod	mod	mod	nt	ht	nh/0436_nh.bmp
411.84	0.72	563	3	5	113	per	lib	mod	mod	mod	nt	fa	nh/0602_nh.bmp
412.56	0.72	564	1	7	124	mem	con	low	low	mod	tg	ht	wh/0980.bmp
413.28	0.72	565	2	7	39	per	lib	low	mod	low	tg	ms	wh/0024.bmp
414.00	0.72	566	4	6	28	per	lib	low	mod	low	nt	cr	nh/0746_nh.bmp
414.72	0.72	567	6	7	64	per	lib	mod	mod	mod	tg	ht	wh/0294.bmp
415.44	0.72	568	3	5	38	per	con	low	mod	low	tg	ms	wh/0241.bmp
416.16	0.72	569	5	7	57	per	lib	mod	mod	mod	nt	fa	nh/0686_nh.bmp
416.88	0.72	570	3	7	27	per	con	low	mod	low	nt	cr	nh/0756_nh.bmp
417.60	0.72	571	5	6	27	per	lib	low	mod	low	nt	fa	nh/0793_nh.bmp
418.32	0.72	572	3	7	11	mem	con	mod	mod	mod	tg	ht	wh/0590.bmp
419.04	0.72	573	6	7	57	per	lib	mod	mod	mod	nt	fa	nh/0686_nh.bmp
419.76	0.72	574	4	6	50	mem	lib	mod	mod	mod	tg	ht	wh/0179.bmp
420.48	0.72	575	5	7	2	mem	con	mod	mod	mod	nt	ht	nh/0666_nh.bmp
421.20	0.72	576	4	5	120	per	lib	mod	mod	mod	tg	ht	wh/0715.bmp
421.92	0.72	577	1	5	12	mem	lib	low	low	low	nt	ht	nh/0676_nh.bmp
422.64	0.72	578	3	8	16	mem	con	mod	mod	low	tg	ms	wh/0247.bmp
423.36	0.72	579	4	6	29	per	lib	low	mod	low	tg	ht	wh/0165.bmp
424.08	0.72	580	1	8	72	per	con	mod	low	mod	tg	ht	wh/0982.bmp
424.80	0.72	581	5	7	112	per	con	mod	mod	mod	nt	cr	nh/0399_nh.bmp
425.52	0.72	582	5	5	120	per	lib	mod	mod	mod	tg	ht	wh/0715.bmp
426.24	0.72	583	5	8	10	mem	con	mod	mod	low	tg	ht	wh/0164.bmp
426.96	0.72	584	3	8	14	mem	con	mod	mod	low	nt	ms	nh/0143_nh.bmp
427.68	0.72	585	3	5	54	mem	lib	mod	mod	low	nt	ht	nh/0012_nh.bmp
428.40	0.72	586	6	6	103	per	con	mod	mod	mod	nt	cr	nh/0408_nh.bmp
429.12	0.72	587	5	6	32	per	lib	low	mod	low	nt	cr	nh/0118_nh.bmp
429.84	0.72	588	3	7	58	per	lib	mod	mod	mod	nt	fa	nh/0420_nh.bmp
430.56	0.72	589	4	7	42	per	lib	low	mod	low	nt	fa	nh/0297_nh.bmp
431.28	0.72	590	3	5	64	mem	lib	mod	mod	low	nt	ht	nh/0139_nh.bmp
432.00	0.72	591	5	5	50	mem	lib	mod	mod	low	tg	ht	wh/0111.bmp
432.72	0.72	592	5	8	11	mem	con	mod	mod	low	nt	ht	nh/0262_nh.bmp
433.44	0.72	593	3	7	97	per	con	mod	mod	mod	nt	cr	nh/0385_nh.bmp
434.16	0.72	594	4	8	5	mem	con	mod	mod	low	nt	ht	nh/0249_nh.bmp
434.88	0.72	595	1	5	29	per	lib	low	low	low	tg	ht	wh/0880.bmp
435.60	0.72	596	4	5	55	mem	lib	mod	mod	low	tg	ht	wh/0640.bmp
436.32	0.72	597	2	7	28	per	con	low	mod	low	nt	fa	nh/0453_nh.bmp
437.04	0.72	598	1	5	80	mem	con	low	low	low	tg	ht	wh/0005.bmp
437.76	0.72	599	1	5	2	mem	lib	low	low	low	tg	ht	wh/0175.bmp
438.48	0.72	600	6	6	127	mem	con	mod	mod	mod	tg	ms	wh/0378.bmp
439.20	0.72	601	5	7	21	per	con	low	mod	low	tg	ms	wh/0248.bmp
439.92	0.72	602	2	6	106	per	con	mod	mod	mod	nt	cr	nh/0797_nh.bmp
440.64	0.72	603	4	8	107	mem	lib	mod	mod	mod	tg	ht	wh/0586.bmp
441.36	0.72	604	6	8	106	mem	lib	mod	mod	mod	tg	ht	wh/0832.bmp
442.08	0.72	605	5	7	71	mem	lib	mod	mod	low	nt	ht	nh/0388_nh.bmp
442.80	0.72	606	3	7	59	per	lib	mod	mod	mod	nt	fa	nh/0958_nh.bmp
443.52	0.72	607	6	8	98	mem	lib	mod	mod	mod	nt	ht	nh/0544_nh.bmp
444.24	0.72	608	2	7	102	per	con	mod	mod	mod	tg	ms	wh/0086.bmp
444.96	0.72	609	5	6	109	per	con	mod	mod	mod	tg	ht	wh/0623.bmp
445.68	0.72	610	1	5	99	per	con	mod	low	mod	tg	ht	wh/0545.bmp
446.40	0.72	611	4	7	59	per	lib	mod	mod	mod	nt	fa	nh/0958_nh.bmp
447.12	0.72	612	1	8	55	per	lib	low	low	low	tg	ms	wh/0994.bmp
447.84	0.72	613	1	8	90	mem	con	low	low	low	tg	ms	wh/0830.bmp
448.56	0.72	614	6	6	19	per	lib	low	mod	low	tg	ht	wh/0374.bmp
449.28	0.72	615	5	6	28	per	lib	low	mod	low	nt	cr	nh/0746_nh.bmp
450.00	0.72	616	6	5	87	mem	con	mod	mod	low	nt	ht	nh/0892_nh.bmp
450.72	0.72	617	1	6	79	per	lib	mod	low	mod	tg	ht	wh/0668.bmp
451.44	0.72	618	4	6	97	per	con	mod	mod	mod	nt	cr	nh/0833_nh.bmp
452.16	0.72	619	4	7	7	mem	con	mod	mod	mod	tg	ms	wh/0968.bmp
452.88	0.72	620	5	7	72	mem	lib	mod	mod	low	nt	ht	nh/0450_nh.bmp
453.60	0.72	621	4	6	118	mem	con	mod	mod	mod	tg	ht	wh/0952.bmp
454.32	0.72	622	2	6	115	mem	con	mod	mod	mod	nt	ht	nh/0239_nh.bmp
455.04	0.72	623	6	8	11	mem	con	mod	mod	low	nt	ht	nh/0262_nh.bmp
455.76	0.72	624	5	7	59	per	lib	mod	mod	mod	nt	fa	nh/0958_nh.bmp
456.48	0.72	625	6	5	119	per	lib	mod	mod	mod	nt	fa	nh/0609_nh.bmp
457.20	0.72	626	1	6	7	per	con	low	low	low	nt	cr	nh/0480_nh.bmp
457.92	0.72	627	6	7	59	per	lib	mod	mod	mod	nt	fa	nh/0958_nh.bmp
458.64	0.72	628	4	7	1	mem	con	mod	mod	mod	tg	ht	wh/0827.bmp
459.36	0.72	629	4	7	58	per	lib	mod	mod	mod	nt	fa	nh/0420_nh.bmp
460.08	0.72	630	1	8	26	per	con	low	low	low	nt	cr	nh/1015_nh.bmp
460.80	0.72	631	5	7	42	per	lib	low	mod	low	nt	fa	nh/0297_nh.bmp
461.52	0.72	632	3	6	106	per	con	mod	mod	mod	nt	cr	nh/0797_nh.bmp
462.24	0.72	633	6	5	120	per	lib	mod	mod	mod	tg	ht	wh/0715.bmp
462.96	0.72	634	1	6	14	per	con	low	low	low	nt	cr	nh/0352_nh.bmp
463.68	0.72	635	4	7	37	per	lib	low	mod	low	nt	fa	nh/0253_nh.bmp
464.40	0.72	636	4	7	80	mem	lib	mod	mod	low	tg	ht	wh/0042.bmp
465.12	0.72	637	3	5	47	per	con	low	mod	low	tg	ms	wh/0574.bmp
465.84	0.72	638	4	5	61	mem	lib	mod	mod	low	nt	ht	nh/0780_nh.bmp
466.56	0.72	639	1	8	94	mem	con	low	low	low	nt	ht	nh/0516_nh.bmp
467.28	0.72	640	4	5	33	per	con	low	mod	low	nt	cr	nh/0582_nh.bmp
468.00	0.72	641	4	5	64	mem	lib	mod	mod	low	nt	ht	nh/0139_nh.bmp
468.72	0.72	642	5	6	119	mem	con	mod	mod	mod	tg	ht	wh/0020.bmp
469.44	0.72	643	4	5	116	per	lib	mod	mod	mod	tg	ht	wh/0764.bmp
470.16	0.72	644	4	8	14	mem	con	mod	mod	low	nt	ms	nh/0143_nh.bmp
470.88	0.72	645	4	5	113	per	lib	mod	mod	mod	nt	fa	nh/0602_nh.bmp
471.60	0.72	646	5	7	58	per	lib	mod	mod	mod	nt	fa	nh/0420_nh.bmp
472.32	0.72	647	5	5	46	per	con	low	mod	low	nt	cr	nh/0820_nh.bmp
473.04	0.72	648	6	7	71	mem	lib	mod	mod	low	nt	ht	nh/0388_nh.bmp
473.76	0.72	649	3	7	102	per	con	mod	mod	mod	tg	ms	wh/0086.bmp
474.48	0.72	650	6	8	10	mem	con	mod	mod	low	tg	ht	wh/0164.bmp
475.20	0.72	651	6	5	124	per	lib	mod	mod	mod	nt	cr	nh/0269_nh.bmp
475.92	0.72	652	4	7	69	mem	lib	mod	mod	low	nt	ht	nh/0521_nh.bmp
476.64	0.72	653	1	6	68	per	lib	mod	low	mod	nt	fa	nh/0631_nh.bmp
477.36	0.72	654	6	6	49	mem	lib	mod	mod	mod	nt	ht	nh/0822_nh.bmp
478.08	0.72	655	4	6	104	per	con	mod	mod	mod	nt	cr	nh/0599_nh.bmp
478.80	0.72	656	4	7	36	per	lib	low	mod	low	tg	ms	wh/0863.bmp
479.52	0.72	657	6	6	119	mem	con	mod	mod	mod	tg	ht	wh/0020.bmp
480.24	0.72	658	5	6	124	mem	con	mod	mod	mod	nt	ms	nh/0694_nh.bmp
480.96	0.72	659	3	7	28	per	con	low	mod	low	nt	fa	nh/0453_nh.bmp
481.68	0.72	660	1	6	37	mem	con	low	low	mod	tg	ht	wh/0869.bmp
482.40	0.72	661	4	7	99	per	con	mod	mod	mod	nt	cr	nh/0735_nh.bmp
483.12	0.72	662	5	5	122	per	lib	mod	mod	mod	nt	cr	nh/0871_nh.bmp
483.84	0.72	663	6	7	72	mem	lib	mod	mod	low	nt	ht	nh/0450_nh.bmp
484.56	0.72	664	1	5	103	per	con	mod	low	mod	tg	ht	wh/0749.bmp
485.28	0.72	665	6	6	32	per	lib	low	mod	low	nt	cr	nh/0118_nh.bmp
486.00	0.72	666	5	8	5	mem	con	mod	mod	low	nt	ht	nh/0249_nh.bmp
486.72	0.72	667	1	5	21	per	lib	low	low	low	nt	fa	nh/0063_nh.bmp
487.44	0.72	668	5	8	107	mem	lib	mod	mod	mod	tg	ht	wh/0586.bmp
488.16	0.72	669	5	7	80	mem	lib	mod	mod	low	tg	ht	wh/0042.bmp
488.88	0.72	670	4	7	41	per	lib	low	mod	low	tg	ms	wh/0519.bmp
489.60	0.72	671	6	7	3	mem	con	mod	mod	mod	nt	ht	nh/0638_nh.bmp
490.32	0.72	672	1	8	116	per	lib	mod	low	mod	nt	fa	nh/0416_nh.bmp
491.04	0.72	673	1	8	89	mem	con	low	low	low	nt	ms	nh/0610_nh.bmp
491.76	0.72	674	5	6	118	mem	con	mod	mod	mod	tg	ht	wh/0952.bmp
492.48	0.72	675	6	5	37	per	con	low	mod	low	nt	cr	nh/0073_nh.bmp
493.20	0.72	676	5	6	97	per	con	mod	mod	mod	nt	cr	nh/0833_nh.bmp
493.92	0.72	677	4	7	102	per	con	mod	mod	mod	tg	ms	wh/0086.bmp
494.64	0.72	678	4	5	40	per	con	low	mod	low	tg	ms	wh/1004.bmp
495.36	0.72	679	3	6	57	mem	lib	mod	mod	mod	tg	ht	wh/0629.bmp
496.08	0.72	680	4	7	27	per	con	low	mod	low	nt	cr	nh/0756_nh.bmp
496.80	0.72	681	4	5	90	mem	con	mod	mod	low	tg	ht	wh/0023.bmp
497.52	0.72	682	4	7	97	per	con	mod	mod	mod	nt	cr	nh/0385_nh.bmp
498.24	0.72	683	6	5	46	per	con	low	mod	low	nt	cr	nh/0820_nh.bmp
498.96	0.72	684	5	7	36	per	lib	low	mod	low	tg	ms	wh/0863.bmp
499.68	0.72	685	6	7	22	per	con	low	mod	low	tg	ms	wh/0176.bmp
500.40	0.72	686	5	7	26	per	con	low	mod	low	nt	cr	nh/0394_nh.bmp
501.12	0.72	687	5	6	50	mem	lib	mod	mod	mod	tg	ht	wh/0179.bmp
501.84	0.72	688	4	6	57	mem	lib	mod	mod	mod	tg	ht	wh/0629.bmp
502.56	0.72	689	1	5	10	mem	lib	low	low	low	nt	ht	nh/0842_nh.bmp
503.28	0.72	690	3	6	54	mem	lib	mod	mod	mod	tg	ht	wh/0056.bmp
504.00	0.72	691	3	6	115	mem	con	mod	mod	mod	nt	ht	nh/0239_nh.bmp
504.72	0.72	692	5	6	101	per	con	mod	mod	mod	tg	ht	wh/0337.bmp
505.44	0.72	693	3	7	111	per	con	mod	mod	mod	tg	ms	wh/0835.bmp
506.16	0.72	694	4	7	11	mem	con	mod	mod	mod	tg	ht	wh/0590.bmp
506.88	0.72	695	4	8	16	mem	con	mod	mod	low	tg	ms	wh/0247.bmp
507.60	0.72	696	5	6	62	mem	lib	mod	mod	mod	tg	ht	wh/0366.bmp
508.32	0.72	697	5	6	29	per	lib	low	mod	low	tg	ht	wh/0165.bmp
509.04	0.72	698	1	6	83	mem	lib	low	low	mod	nt	ht	nh/0334_nh.bmp
509.76	0.72	699	5	7	27	per	con	low	mod	low	nt	cr	nh/0756_nh.bmp
510.48	0.72	700	5	5	58	mem	lib	mod	mod	low	nt	ht	nh/0254_nh.bmp
511.20	0.72	701	5	5	64	mem	lib	mod	mod	low	nt	ht	nh/0139_nh.bmp
511.92	0.72	702	4	5	34	per	con	low	mod	low	tg	ht	wh/0875.bmp
512.64	0.72	703	1	7	88	mem	lib	low	low	mod	nt	ht	nh/0839_nh.bmp
513.36	0.72	704	5	7	51	per	lib	mod	mod	mod	tg	ht	wh/0060.bmp
514.08	0.72	705	4	6	54	mem	lib	mod	mod	mod	tg	ht	wh/0056.bmp
514.80	0.72	706	5	5	95	mem	con	mod	mod	low	tg	ht	wh/0018.bmp
515.52	0.72	707	5	8	16	mem	con	mod	mod	low	tg	ms	wh/0247.bmp
516.24	0.72	708	1	6	48	mem	con	low	low	mod	nt	ms	nh/0188_nh.bmp
516.96	0.72	709	5	7	69	mem	lib	mod	mod	low	nt	ht	nh/0521_nh.bmp
517.68	0.72	710	4	6	112	per	con	mod	mod	mod	tg	ht	wh/0560.bmp
518.40	0.72	711	4	5	88	mem	con	mod	mod	low	tg	ht	wh/0618.bmp
519.12	0.72	712	6	6	123	mem	con	mod	mod	mod	tg	ht	wh/0717.bmp
519.84	0.72	713	4	6	106	per	con	mod	mod	mod	nt	cr	nh/0797_nh.bmp
520.56	0.72	714	1	8	87	mem	con	low	low	low	tg	ms	wh/0198.bmp
521.28	0.72	715	5	7	11	mem	con	mod	mod	mod	tg	ht	wh/0590.bmp
522.00	0.72	716	4	6	115	mem	con	mod	mod	mod	nt	ht	nh/0239_nh.bmp
522.72	0.72	717	5	7	7	mem	con	mod	mod	mod	tg	ms	wh/0968.bmp
523.44	0.72	718	6	7	26	per	con	low	mod	low	nt	cr	nh/0394_nh.bmp
524.16	0.72	719	5	6	100	per	con	mod	mod	mod	tg	ht	wh/0995.bmp
524.88	0.72	720	6	7	48	per	lib	low	mod	low	nt	cr	nh/0883_nh.bmp
525.60	0.72	721	6	7	2	mem	con	mod	mod	mod	nt	ht	nh/0666_nh.bmp
526.32	0.72	722	6	6	17	per	lib	low	mod	low	tg	ht	wh/0193.bmp
527.04	0.72	723	5	5	116	per	lib	mod	mod	mod	tg	ht	wh/0764.bmp
527.76	0.72	724	6	6	101	per	con	mod	mod	mod	tg	ht	wh/0337.bmp
528.48	0.72	725	6	7	58	per	lib	mod	mod	mod	nt	fa	nh/0420_nh.bmp
529.20	0.72	726	3	6	121	mem	con	mod	mod	mod	nt	ht	nh/0556_nh.bmp
529.92	0.72	727	5	6	26	per	lib	low	mod	low	nt	fa	nh/0403_nh.bmp
530.64	0.72	728	5	5	61	mem	lib	mod	mod	low	nt	ht	nh/0780_nh.bmp
531.36	0.72	729	4	7	111	per	con	mod	mod	mod	tg	ms	wh/0835.bmp
532.08	0.72	730	5	5	49	mem	lib	mod	mod	low	tg	ht	wh/0064.bmp
532.80	0.72	731	5	7	66	mem	lib	mod	mod	low	tg	ht	wh/0255.bmp
533.52	0.72	732	4	5	81	mem	con	mod	mod	low	nt	ht	nh/0986_nh.bmp
534.24	0.72	733	6	7	34	per	lib	low	mod	low	tg	ht	wh/0612.bmp
534.96	0.72	734	1	8	117	per	lib	mod	low	mod	tg	ht	wh/0673.bmp
535.68	0.72	735	6	5	50	mem	lib	mod	mod	low	tg	ht	wh/0111.bmp
536.40	0.72	736	6	7	7	mem	con	mod	mod	mod	tg	ms	wh/0968.bmp
537.12	0.72	737	4	7	28	per	con	low	mod	low	nt	fa	nh/0453_nh.bmp
537.84	0.72	738	4	6	121	mem	con	mod	mod	mod	nt	ht	nh/0556_nh.bmp
538.56	0.72	739	6	6	26	per	lib	low	mod	low	nt	fa	nh/0403_nh.bmp
539.28	0.72	740	6	5	95	mem	con	mod	mod	low	tg	ht	wh/0018.bmp
540.00	0.72	741	5	5	34	per	con	low	mod	low	tg	ht	wh/0875.bmp
540.72	0.72	742	5	8	105	mem	lib	mod	mod	mod	nt	ht	nh/0763_nh.bmp
541.44	0.72	743	6	5	34	per	con	low	mod	low	tg	ht	wh/0875.bmp
542.16	0.72	744	5	5	33	per	con	low	mod	low	nt	cr	nh/0582_nh.bmp
542.88	0.72	745	6	7	15	mem	con	mod	mod	mod	nt	ht	nh/0821_nh.bmp
543.60	0.72	746	5	7	41	per	lib	low	mod	low	tg	ms	wh/0519.bmp
544.32	0.72	747	4	5	38	per	con	low	mod	low	tg	ms	wh/0241.bmp
545.04	0.72	748	6	5	61	mem	lib	mod	mod	low	nt	ht	nh/0780_nh.bmp
545.76	0.72	749	6	8	111	mem	lib	mod	mod	mod	nt	ht	nh/0552_nh.bmp
546.48	0.72	750	1	7	85	mem	lib	low	low	mod	tg	ht	wh/0347.bmp
547.20	0.72	751	6	8	5	mem	con	mod	mod	low	nt	ht	nh/0249_nh.bmp
547.92	0.72	752	6	6	124	mem	con	mod	mod	mod	nt	ms	nh/0694_nh.bmp
548.64	0.72	753	5	7	78	mem	lib	mod	mod	low	tg	ht	wh/0939.bmp
549.36	0.72	754	6	8	97	mem	lib	mod	mod	mod	tg	ht	wh/0852.bmp
550.08	0.72	755	1	7	116	mem	con	low	low	mod	nt	ms	nh/1016_nh.bmp
550.80	0.72	756	4	5	54	mem	lib	mod	mod	low	nt	ht	nh/0012_nh.bmp
551.52	0.72	757	6	5	53	mem	lib	mod	mod	low	tg	ht	wh/1014.bmp
552.24	0.72	758	5	5	113	per	lib	mod	mod	mod	nt	fa	nh/0602_nh.bmp
552.96	0.72	759	6	8	107	mem	lib	mod	mod	mod	tg	ht	wh/0586.bmp
553.68	0.72	760	5	6	54	mem	lib	mod	mod	mod	tg	ht	wh/0056.bmp
554.40	0.72	761	6	7	41	per	lib	low	mod	low	tg	ms	wh/0519.bmp
555.12	0.72	762	5	7	28	per	con	low	mod	low	nt	fa	nh/0453_nh.bmp
555.84	0.72	763	5	5	90	mem	con	mod	mod	low	tg	ht	wh/0023.bmp
556.56	0.72	764	5	6	104	per	con	mod	mod	mod	nt	cr	nh/0599_nh.bmp
557.28	0.72	765	5	6	21	per	lib	low	mod	low	tg	ht	wh/0578.bmp
558.00	0.72	766	1	6	72	per	lib	mod	low	mod	nt	cr	nh/0532_nh.bmp
558.72	0.72	767	6	6	21	per	lib	low	mod	low	tg	ht	wh/0578.bmp
559.44	0.72	768	1	5	15	mem	lib	low	low	low	nt	ht	nh/0360_nh.bmp
560.16	0.72	769	1	8	69	per	con	mod	low	mod	tg	ht	wh/0395.bmp
560.88	0.72	770	4	8	12	mem	con	mod	mod	low	tg	ht	wh/0734.bmp
561.60	0.72	771	6	7	31	per	con	low	mod	low	tg	ms	wh/0814.bmp
562.32	0.72	772	6	5	122	per	lib	mod	mod	mod	nt	cr	nh/0871_nh.bmp
563.04	0.72	773	6	7	42	per	lib	low	mod	low	nt	fa	nh/0297_nh.bmp
563.76	0.72	774	6	7	73	mem	lib	mod	mod	low	nt	ht	nh/0172_nh.bmp
564.48	0.72	775	5	5	121	per	lib	mod	mod	mod	tg	ht	wh/0851.bmp
565.20	0.72	776	4	5	47	per	con	low	mod	low	tg	ms	wh/0574.bmp
565.92	0.72	777	6	6	53	mem	lib	mod	mod	mod	nt	ht	nh/0549_nh.bmp
566.64	0.72	778	1	8	25	per	con	low	low	low	tg	ms	wh/0136.bmp
567.36	0.72	779	3	7	39	per	lib	low	mod	low	tg	ms	wh/0024.bmp
568.08	0.72	780	5	6	121	mem	con	mod	mod	mod	nt	ht	nh/0556_nh.bmp
568.80	0.72	781	6	7	51	per	lib	mod	mod	mod	tg	ht	wh/0060.bmp
569.52	0.72	782	5	7	38	per	lib	low	mod	low	nt	cr	nh/0157_nh.bmp
570.24	0.72	783	1	5	24	per	lib	low	low	low	tg	ht	wh/0570.bmp
570.96	0.72	784	1	6	88	mem	lib	low	low	mod	nt	ht	nh/0475_nh.bmp
571.68	0.72	785	1	8	20	per	con	low	low	low	nt	cr	nh/0154_nh.bmp
572.40	0.72	786	5	7	10	mem	con	mod	mod	mod	tg	ht	wh/0915.bmp
573.12	0.72	787	6	5	64	mem	lib	mod	mod	low	nt	ht	nh/0139_nh.bmp
573.84	0.72	788	5	6	115	mem	con	mod	mod	mod	nt	ht	nh/0239_nh.bmp
574.56	0.72	789	5	5	40	per	con	low	mod	low	tg	ms	wh/1004.bmp
575.28	0.72	790	5	8	14	mem	con	mod	mod	low	nt	ms	nh/0143_nh.bmp
576.00	0.72	791	5	5	38	per	con	low	mod	low	tg	ms	wh/0241.bmp
576.72	0.72	792	5	8	4	mem	con	mod	mod	low	nt	ht	nh/0108_nh.bmp
577.44	0.72	793	6	5	33	per	con	low	mod	low	nt	cr	nh/0582_nh.bmp
578.16	0.72	794	6	5	90	mem	con	mod	mod	low	tg	ht	wh/0023.bmp
578.88	0.72	795	1	8	121	per	lib	mod	low	mod	nt	cr	nh/0342_nh.bmp
579.60	0.72	796	5	5	47	per	con	low	mod	low	tg	ms	wh/0574.bmp
580.32	0.72	797	6	7	27	per	con	low	mod	low	nt	cr	nh/0756_nh.bmp
581.04	0.72	798	6	8	14	mem	con	mod	mod	low	nt	ms	nh/0143_nh.bmp
581.76	0.72	799	5	7	97	per	con	mod	mod	mod	nt	cr	nh/0385_nh.bmp
582.48	0.72	800	4	7	63	per	lib	mod	mod	mod	tg	ht	wh/0888.bmp
583.20	0.72	801	5	6	106	per	con	mod	mod	mod	nt	cr	nh/0797_nh.bmp
583.92	0.72	802	5	5	54	mem	lib	mod	mod	low	nt	ht	nh/0012_nh.bmp
584.64	0.72	803	4	7	39	per	lib	low	mod	low	tg	ms	wh/0024.bmp
585.36	0.72	804	6	5	127	per	lib	mod	mod	mod	tg	ht	wh/0495.bmp
586.08	0.72	805	1	8	35	mem	lib	low	low	low	nt	ms	nh/0202_nh.bmp
586.80	0.72	806	1	8	30	per	con	low	low	low	tg	ms	wh/0865.bmp
587.52	0.72	807	6	5	49	mem	lib	mod	mod	low	tg	ht	wh/0064.bmp
588.24	0.72	808	6	6	28	per	lib	low	mod	low	nt	cr	nh/0746_nh.bmp
588.96	0.72	809	6	5	38	per	con	low	mod	low	tg	ms	wh/0241.bmp
589.68	0.72	810	6	5	113	per	lib	mod	mod	mod	nt	fa	nh/0602_nh.bmp
590.40	0.72	811	6	5	54	mem	lib	mod	mod	low	nt	ht	nh/0012_nh.bmp
591.12	0.72	812	5	7	102	per	con	mod	mod	mod	tg	ms	wh/0086.bmp
591.84	0.72	813	6	8	4	mem	con	mod	mod	low	nt	ht	nh/0108_nh.bmp
592.56	0.72	814	5	7	39	per	lib	low	mod	low	tg	ms	wh/0024.bmp
593.28	0.72	815	6	7	66	mem	lib	mod	mod	low	tg	ht	wh/0255.bmp
594.00	0.72	816	6	7	97	per	con	mod	mod	mod	nt	cr	nh/0385_nh.bmp
594.72	0.72	817	6	6	121	mem	con	mod	mod	mod	nt	ht	nh/0556_nh.bmp
595.44	0.72	818	1	7	83	mem	lib	low	low	mod	nt	ht	nh/0611_nh.bmp
596.16	0.72	819	5	5	88	mem	con	mod	mod	low	tg	ht	wh/0618.bmp
596.88	0.72	820	6	7	28	per	con	low	mod	low	nt	fa	nh/0453_nh.bmp
597.60	0.72	821	6	7	101	per	con	mod	mod	mod	tg	ht	wh/0564.bmp
598.32	0.72	822	5	5	89	mem	con	mod	mod	low	tg	ht	wh/0678.bmp
599.04	0.72	823	5	7	63	per	lib	mod	mod	mod	tg	ht	wh/0888.bmp
599.76	0.72	824	5	7	1	mem	con	mod	mod	mod	tg	ht	wh/0827.bmp
600.48	0.72	825	6	7	1	mem	con	mod	mod	mod	tg	ht	wh/0827.bmp
601.20	0.72	826	5	7	111	per	con	mod	mod	mod	tg	ms	wh/0835.bmp
601.92	0.72	827	6	7	78	mem	lib	mod	mod	low	tg	ht	wh/0939.bmp
602.64	0.72	828	5	8	12	mem	con	mod	mod	low	tg	ht	wh/0734.bmp
603.36	0.72	829	1	7	126	mem	con	low	low	mod	tg	ms	wh/0688.bmp
604.08	0.72	830	5	7	99	per	con	mod	mod	mod	nt	cr	nh/0735_nh.bmp
604.80	0.72	831	6	6	62	mem	lib	mod	mod	mod	tg	ht	wh/0366.bmp
605.52	0.72	832	5	5	55	mem	lib	mod	mod	low	tg	ht	wh/0640.bmp
606.24	0.72	833	5	6	57	mem	lib	mod	mod	mod	tg	ht	wh/0629.bmp
606.96	0.72	834	6	6	57	mem	lib	mod	mod	mod	tg	ht	wh/0629.bmp
607.68	0.72	835	1	7	118	mem	con	low	low	mod	nt	ms	nh/0402_nh.bmp
608.40	0.72	836	6	5	58	mem	lib	mod	mod	low	nt	ht	nh/0254_nh.bmp
609.12	0.72	837	6	6	118	mem	con	mod	mod	mod	tg	ht	wh/0952.bmp
609.84	0.72	838	6	5	55	mem	lib	mod	mod	low	tg	ht	wh/0640.bmp
610.56	0.72	839	6	6	115	mem	con	mod	mod	mod	nt	ht	nh/0239_nh.bmp
611.28	0.72	840	1	6	41	mem	con	low	low	mod	nt	ms	nh/0951_nh.bmp
612.00	0.72	841	6	6	54	mem	lib	mod	mod	mod	tg	ht	wh/0056.bmp
612.72	0.72	842	6	7	99	per	con	mod	mod	mod	nt	cr	nh/0735_nh.bmp
613.44	0.72	843	6	7	80	mem	lib	mod	mod	low	tg	ht	wh/0042.bmp
614.16	0.72	844	6	6	50	mem	lib	mod	mod	mod	tg	ht	wh/0179.bmp
614.88	0.72	845	6	7	10	mem	con	mod	mod	mod	tg	ht	wh/0915.bmp
615.60	0.72	846	6	6	29	per	lib	low	mod	low	tg	ht	wh/0165.bmp
616.32	0.72	847	6	7	63	per	lib	mod	mod	mod	tg	ht	wh/0888.bmp
617.04	0.72	848	6	6	109	per	con	mod	mod	mod	tg	ht	wh/0623.bmp
617.76	0.72	849	6	7	21	per	con	low	mod	low	tg	ms	wh/0248.bmp
618.48	0.72	850	1	6	33	mem	con	low	low	mod	tg	ms	wh/0953.bmp
619.20	0.72	851	6	8	16	mem	con	mod	mod	low	tg	ms	wh/0247.bmp
619.92	0.72	852	6	6	100	per	con	mod	mod	mod	tg	ht	wh/0995.bmp
620.64	0.72	853	6	8	108	mem	lib	mod	mod	mod	tg	ht	wh/0300.bmp
621.36	0.72	854	1	5	76	mem	con	low	low	low	nt	ht	nh/0770_nh.bmp
622.08	0.72	855	6	6	56	mem	lib	mod	mod	mod	nt	ht	nh/0971_nh.bmp
622.80	0.72	856	6	5	40	per	con	low	mod	low	tg	ms	wh/1004.bmp
623.52	0.72	857	1	6	10	per	con	low	low	low	tg	ms	wh/0260.bmp
624.24	0.72	858	6	7	39	per	lib	low	mod	low	tg	ms	wh/0024.bmp
624.96	0.72	859	5	6	112	per	con	mod	mod	mod	tg	ht	wh/0560.bmp
625.68	0.72	860	1	5	112	per	con	mod	low	mod	nt	cr	nh/0837_nh.bmp
626.40	0.72	861	6	7	111	per	con	mod	mod	mod	tg	ms	wh/0835.bmp
627.12	0.72	862	6	8	12	mem	con	mod	mod	low	tg	ht	wh/0734.bmp
627.84	0.72	863	6	7	104	per	con	mod	mod	mod	tg	ht	wh/0318.bmp
628.56	0.72	864	6	7	65	mem	lib	mod	mod	low	tg	ht	wh/0848.bmp
629.28	0.72	865	1	6	66	per	lib	mod	low	mod	nt	fa	nh/0559_nh.bmp
630.00	0.72	866	5	5	81	mem	con	mod	mod	low	nt	ht	nh/0986_nh.bmp
630.72	0.72	867	6	6	104	per	con	mod	mod	mod	nt	cr	nh/0599_nh.bmp
631.44	0.72	868	6	7	112	per	con	mod	mod	mod	nt	cr	nh/0399_nh.bmp
632.16	0.72	869	1	6	6	per	con	low	low	low	tg	ms	wh/0566.bmp
632.88	0.72	870	1	6	80	per	lib	mod	low	mod	tg	ht	wh/0840.bmp
633.60	0.72	871	6	5	88	mem	con	mod	mod	low	tg	ht	wh/0618.bmp
634.32	0.72	872	5	7	53	per	lib	mod	mod	mod	tg	ht	wh/0441.bmp
635.04	0.72	873	6	5	92	mem	con	mod	mod	low	nt	ms	nh/0170_nh.bmp
635.76	0.72	874	6	5	81	mem	con	mod	mod	low	nt	ht	nh/0986_nh.bmp
636.48	0.72	875	6	5	89	mem	con	mod	mod	low	tg	ht	wh/0678.bmp
637.20	0.72	876	1	8	75	per	con	mod	low	mod	tg	ht	wh/1002.bmp
637.92	0.72	877	6	7	13	mem	con	mod	mod	mod	nt	ht	nh/0275_nh.bmp
638.64	0.72	878	6	7	11	mem	con	mod	mod	mod	tg	ht	wh/0590.bmp
639.36	0.72	879	6	6	112	per	con	mod	mod	mod	tg	ht	wh/0560.bmp
640.08	0.72	880	6	7	38	per	lib	low	mod	low	nt	cr	nh/0157_nh.bmp
640.80	0.72	881	6	6	27	per	lib	low	mod	low	nt	fa	nh/0793_nh.bmp
641.52	0.72	882	5	7	30	per	con	low	mod	low	tg	ms	wh/0114.bmp
642.24	0.72	883	6	5	121	per	lib	mod	mod	mod	tg	ht	wh/0851.bmp
642.96	0.72	884	5	7	37	per	lib	low	mod	low	nt	fa	nh/0253_nh.bmp
643.68	0.72	885	6	7	37	per	lib	low	mod	low	nt	fa	nh/0253_nh.bmp
644.40	0.72	886	6	7	30	per	con	low	mod	low	tg	ms	wh/0114.bmp
645.12	0.72	887	6	7	36	per	lib	low	mod	low	tg	ms	wh/0863.bmp
645.84	0.72	888	6	7	53	per	lib	mod	mod	mod	tg	ht	wh/0441.bmp
646.56	0.72	889	6	8	105	mem	lib	mod	mod	mod	nt	ht	nh/0763_nh.bmp
647.28	0.72	890	6	8	13	mem	con	mod	mod	low	tg	ht	wh/0647.bmp
648.00	0.72	891	6	5	47	per	con	low	mod	low	tg	ms	wh/0574.bmp
648.72	0.72	892	6	7	69	mem	lib	mod	mod	low	nt	ht	nh/0521_nh.bmp
649.44	0.72	893	6	7	102	per	con	mod	mod	mod	tg	ms	wh/0086.bmp
650.16	0.72	894	6	6	97	per	con	mod	mod	mod	nt	cr	nh/0833_nh.bmp
650.88	0.72	895	6	6	106	per	con	mod	mod	mod	nt	cr	nh/0797_nh.bmp
651.60	0.72	896	6	5	116	per	lib	mod	mod	mod	tg	ht	wh/0764.bmp
