onset	duration	block	trial	task	crit	disc	mem_disc	per_disc	trial_type	mem_type	per_type	left_option	resp_hand	response	accuracy	response_time	stim_file	pay	pay_tot
7.2	7.2	1	n/a	mem	con	mod	n/a	n/a	instructions	n/a	n/a	n/a	n/a	n/a	n/a	n/a	n/a	n/a	n/a
14.72	1.5845	1	1	mem	con	mod	mod	low	tg	tg	nt	tg	left	tg	ht	1.1845	nh/0067_nh.bmp	0.05	0.05
17.6	1.07403	1	2	mem	con	mod	mod	low	nt	nt	tg	nt	right	tg	fa	0.67403	wh/0515.bmp	-0.1	-0.05
21.92	1.28793	1	3	mem	con	mod	mod	low	nt	nt	tg	tg	right	nt	cr	0.88793	wh/0435.bmp	0.05	0
26.24	1.10587	1	4	mem	con	mod	mod	low	nt	nt	nt	nt	left	nt	cr	0.70587	nh/0392_nh.bmp	0.05	0.05
29.12	1.04945	1	5	mem	con	mod	mod	low	nt	nt	nt	nt	left	nt	cr	0.64945	nh/0031_nh.bmp	0.05	0.1
32	1.27896	1	6	mem	con	mod	mod	low	nt	nt	nt	nt	left	nt	cr	0.87896	nh/0163_nh.bmp	0.05	0.15
34.88	1.0636	1	7	mem	con	mod	mod	low	nt	nt	tg	nt	right	tg	fa	0.6636	wh/0133.bmp	-0.1	0.05
37.76	1.09941	1	8	mem	con	mod	mod	low	nt	nt	tg	tg	right	nt	cr	0.69941	wh/0155.bmp	0.05	0.1
42.08	1.072	1	9	mem	con	mod	mod	low	tg	tg	nt	nt	right	tg	ht	0.672	nh/0757_nh.bmp	0.05	0.15
44.96	1.07867	1	10	mem	con	mod	mod	low	tg	tg	nt	tg	left	tg	ht	0.67867	nh/0174_nh.bmp	0.05	0.2
47.84	1.09278	1	11	mem	con	mod	mod	low	tg	tg	tg	nt	right	tg	ht	0.69278	wh/0792.bmp	0.05	0.25
50.72	1.03265	1	12	mem	con	mod	mod	low	tg	tg	tg	tg	left	tg	ht	0.63265	wh/0683.bmp	0.05	0.3
53.6	1.1379	1	13	mem	con	mod	mod	low	nt	nt	nt	nt	left	nt	cr	0.7379	nh/0353_nh.bmp	0.05	0.35
56.48	1.05027	1	14	mem	con	mod	mod	low	tg	tg	tg	nt	right	tg	ht	0.65027	wh/0976.bmp	0.05	0.4
59.36	1.03491	1	15	mem	con	mod	mod	low	tg	tg	tg	nt	right	tg	ht	0.63491	wh/0512.bmp	0.05	0.45
62.96	1.17492	1	16	mem	con	mod	mod	low	tg	tg	nt	nt	right	tg	ht	0.77492	nh/0643_nh.bmp	0.05	0.5
65.52	3.6	1	n/a	mem	con	mod	n/a	n/a	feedback	n/a	n/a	n/a	n/a	n/a	n/a	n/a	n/a	n/a	n/a
69.84	7.2	2	n/a	per	con	mod	n/a	n/a	instructions	n/a	n/a	n/a	n/a	n/a	n/a	n/a	n/a	n/a	n/a
77.36	1.1659	2	17	per	con	mod	low	mod	tg	tg	tg	tg	right	nt	ms	0.7659	wh/0346.bmp	0	0.5
81.68	1.12987	2	18	per	con	mod	low	mod	tg	nt	tg	nt	left	nt	ms	0.72987	wh/0270.bmp	0	0.5
85.28	1.18488	2	19	per	con	mod	low	mod	tg	nt	tg	nt	left	nt	ms	0.78488	wh/0856.bmp	0	0.5
88.16	0.94838	2	20	per	con	mod	low	mod	tg	nt	tg	nt	right	tg	ht	0.54838	wh/0218.bmp	0.05	0.55
91.04	1.38196	2	21	per	con	mod	low	mod	nt	nt	nt	tg	right	nt	cr	0.98196	nh/0149_nh.bmp	0.05	0.6
93.92	1.05427	2	22	per	con	mod	low	mod	nt	nt	nt	nt	left	nt	cr	0.65427	nh/0589_nh.bmp	0.05	0.65
97.52	1.13087	2	23	per	con	mod	low	mod	tg	nt	tg	nt	left	nt	ms	0.73087	wh/0918.bmp	0	0.65
101.84	1.0606	2	24	per	con	mod	low	mod	nt	tg	nt	nt	left	nt	cr	0.6606	nh/0539_nh.bmp	0.05	0.7
105.44	1.01847	2	25	per	con	mod	low	mod	nt	nt	nt	nt	left	nt	cr	0.61847	nh/0776_nh.bmp	0.05	0.75
109.04	1.13192	2	26	per	con	mod	low	mod	nt	tg	nt	tg	right	nt	cr	0.73192	nh/0670_nh.bmp	0.05	0.8
111.92	0.9515	2	27	per	con	mod	low	mod	tg	tg	tg	tg	left	tg	ht	0.5515	wh/0993.bmp	0.05	0.85
115.52	1.0615	2	28	per	con	mod	low	mod	tg	tg	tg	tg	left	tg	ht	0.6615	wh/0557.bmp	0.05	0.9
118.4	1.12886	2	29	per	con	mod	low	mod	tg	tg	tg	nt	left	nt	ms	0.72886	wh/0606.bmp	0	0.9
122	1.11497	2	30	per	con	mod	low	mod	nt	nt	nt	nt	left	nt	cr	0.71497	nh/0922_nh.bmp	0.05	0.95
126.32	1.05037	2	31	per	con	mod	low	mod	nt	tg	nt	nt	left	nt	cr	0.65037	nh/0667_nh.bmp	0.05	1
129.92	1.14789	2	32	per	con	mod	low	mod	nt	tg	nt	nt	left	nt	cr	0.74789	nh/1020_nh.bmp	0.05	1.05
133.92	3.6	2	n/a	per	con	mod	n/a	n/a	feedback	n/a	n/a	n/a	n/a	n/a	n/a	n/a	n/a	n/a	n/a
138.96	7.2	3	n/a	per	lib	low	n/a	n/a	instructions	n/a	n/a	n/a	n/a	n/a	n/a	n/a	n/a	n/a	n/a
146.48	1.17091	3	33	per	lib	low	low	low	tg	tg	tg	tg	right	nt	ms	0.77091	wh/0356.bmp	-0.1	0.95
150.8	1.08406	3	34	per	lib	low	low	low	tg	tg	tg	tg	right	nt	ms	0.68406	wh/1003.bmp	-0.1	0.85
153.68	1.04713	3	35	per	lib	low	low	low	nt	nt	nt	tg	right	nt	cr	0.64713	nh/0533_nh.bmp	0.05	0.9
157.28	1.02195	3	36	per	lib	low	low	low	nt	nt	nt	nt	left	nt	cr	0.62195	nh/0076_nh.bmp	0.05	0.95
160.16	1.08853	3	37	per	lib	low	low	low	tg	tg	tg	tg	left	tg	ht	0.68853	wh/0824.bmp	0.05	1
163.04	1.34188	3	38	per	lib	low	low	low	tg	nt	tg	nt	right	tg	ht	0.94188	wh/0006.bmp	0.05	1.05
165.92	1.12289	3	39	per	lib	low	low	low	nt	tg	nt	tg	right	nt	cr	0.72289	nh/0743_nh.bmp	0.05	1.1
168.8	1.03204	3	40	per	lib	low	low	low	tg	tg	tg	nt	right	tg	ht	0.63204	wh/0314.bmp	0.05	1.15
171.68	0.97869	3	41	per	lib	low	low	low	nt	tg	nt	nt	left	nt	cr	0.57869	nh/0819_nh.bmp	0.05	1.2
175.28	1.0722	3	42	per	lib	low	low	low	nt	nt	nt	nt	left	nt	cr	0.6722	nh/0786_nh.bmp	0.05	1.25
178.16	1.02086	3	43	per	lib	low	low	low	nt	tg	nt	nt	left	nt	cr	0.62086	nh/0243_nh.bmp	0.05	1.3
182.48	1.00054	3	44	per	lib	low	low	low	nt	tg	nt	nt	left	nt	cr	0.60054	nh/0276_nh.bmp	0.05	1.35
185.36	1.20091	3	45	per	lib	low	low	low	tg	nt	tg	nt	right	tg	ht	0.80091	wh/0141.bmp	0.05	1.4
188.96	1.35492	3	46	per	lib	low	low	low	tg	nt	tg	tg	right	nt	ms	0.95492	wh/0432.bmp	-0.1	1.3
191.84	1.17489	3	47	per	lib	low	low	low	nt	nt	nt	tg	right	nt	cr	0.77489	nh/0790_nh.bmp	0.05	1.35
196.16	1.03679	3	48	per	lib	low	low	low	tg	nt	tg	nt	left	nt	ms	0.63679	wh/0015.bmp	-0.1	1.25
199.44	3.6	3	n/a	per	lib	low	n/a	n/a	feedback	n/a	n/a	n/a	n/a	n/a	n/a	n/a	n/a	n/a	n/a
203.76	7.2	4	n/a	per	lib	mod	n/a	n/a	instructions	n/a	n/a	n/a	n/a	n/a	n/a	n/a	n/a	n/a	n/a
211.28	0.9611	4	49	per	lib	mod	mod	mod	tg	tg	tg	nt	right	tg	ht	0.5611	wh/0664.bmp	0.05	1.3
214.16	1.26377	4	50	per	lib	mod	mod	mod	tg	tg	tg	tg	left	tg	ht	0.86377	wh/0895.bmp	0.05	1.35
218.48	1.33579	4	51	per	lib	mod	mod	mod	nt	tg	nt	tg	right	nt	cr	0.93579	nh/0689_nh.bmp	0.05	1.4
222.08	1.26982	4	52	per	lib	mod	mod	mod	tg	tg	tg	tg	left	tg	ht	0.86982	wh/0448.bmp	0.05	1.45
224.96	1.32787	4	53	per	lib	mod	mod	mod	nt	nt	nt	tg	left	tg	fa	0.92787	nh/0183_nh.bmp	0	1.45
227.84	1.26893	4	54	per	lib	mod	mod	mod	tg	nt	tg	nt	left	nt	ms	0.86893	wh/0637.bmp	-0.1	1.35
231.44	1.22192	4	55	per	lib	mod	mod	mod	nt	tg	nt	tg	left	tg	fa	0.82192	nh/0806_nh.bmp	0	1.35
235.76	1.10276	4	56	per	lib	mod	mod	mod	tg	nt	tg	tg	left	tg	ht	0.70276	wh/0942.bmp	0.05	1.4
240.08	0.92504	4	57	per	lib	mod	mod	mod	tg	nt	tg	tg	left	tg	ht	0.52504	wh/0884.bmp	0.05	1.45
244.4	0.98371	4	58	per	lib	mod	mod	mod	nt	nt	nt	tg	right	nt	cr	0.58371	nh/0750_nh.bmp	0.05	1.5
248.72	0.93758	4	59	per	lib	mod	mod	mod	tg	nt	tg	tg	left	tg	ht	0.53758	wh/0679.bmp	0.05	1.55
251.6	1.00563	4	60	per	lib	mod	mod	mod	tg	tg	tg	tg	left	tg	ht	0.60563	wh/0229.bmp	0.05	1.6
254.48	0.9488	4	61	per	lib	mod	mod	mod	nt	nt	nt	tg	right	nt	cr	0.5488	nh/0100_nh.bmp	0.05	1.65
258.08	1.19188	4	62	per	lib	mod	mod	mod	nt	nt	nt	tg	right	nt	cr	0.79188	nh/0473_nh.bmp	0.05	1.7
260.96	1.5029	4	63	per	lib	mod	mod	mod	nt	tg	nt	tg	right	nt	cr	1.1029	nh/0479_nh.bmp	0.05	1.75
265.28	1.07331	4	64	per	lib	mod	mod	mod	nt	tg	nt	nt	left	nt	cr	0.67331	nh/0592_nh.bmp	0.05	1.8
269.28	3.6	4	n/a	per	lib	mod	n/a	n/a	feedback	n/a	n/a	n/a	n/a	n/a	n/a	n/a	n/a	n/a	n/a
273.6	7.2	5	n/a	mem	lib	mod	n/a	n/a	instructions	n/a	n/a	n/a	n/a	n/a	n/a	n/a	n/a	n/a	n/a
281.12	1.03853	5	65	mem	lib	mod	mod	mod	tg	tg	nt	nt	right	tg	ht	0.63853	nh/0490_nh.bmp	0.05	1.85
284.72	0.93598	5	66	mem	lib	mod	mod	mod	tg	tg	tg	tg	left	tg	ht	0.53598	wh/0343.bmp	0.05	1.9
287.6	1.34691	5	67	mem	lib	mod	mod	mod	nt	nt	nt	nt	left	nt	cr	0.94691	nh/0724_nh.bmp	0.05	1.95
290.48	1.29691	5	68	mem	lib	mod	mod	mod	tg	tg	nt	nt	right	tg	ht	0.89691	nh/0282_nh.bmp	0.05	2
293.36	1.02568	5	69	mem	lib	mod	mod	mod	tg	tg	tg	tg	left	tg	ht	0.62568	wh/0705.bmp	0.05	2.05
297.68	1.25387	5	70	mem	lib	mod	mod	mod	nt	nt	tg	nt	left	nt	cr	0.85387	wh/0879.bmp	0.05	2.1
300.56	1.14484	5	71	mem	lib	mod	mod	mod	nt	nt	nt	tg	right	nt	cr	0.74484	nh/0920_nh.bmp	0.05	2.15
304.88	1.2169	5	72	mem	lib	mod	mod	mod	nt	nt	nt	nt	right	tg	fa	0.8169	nh/0002_nh.bmp	0	2.15
307.76	1.7549	5	73	mem	lib	mod	mod	mod	nt	nt	tg	nt	right	tg	fa	1.3549	wh/0600.bmp	0	2.15
310.64	1.01465	5	74	mem	lib	mod	mod	mod	tg	tg	nt	tg	left	tg	ht	0.61465	nh/0445_nh.bmp	0.05	2.2
313.52	0.97366	5	75	mem	lib	mod	mod	mod	nt	nt	tg	tg	right	nt	cr	0.57366	wh/0596.bmp	0.05	2.25
317.12	0.97179	5	76	mem	lib	mod	mod	mod	tg	tg	tg	tg	left	tg	ht	0.57179	wh/0538.bmp	0.05	2.3
320	1.2589	5	77	mem	lib	mod	mod	mod	tg	tg	tg	nt	right	tg	ht	0.8589	wh/0151.bmp	0.05	2.35
323.6	1.09762	5	78	mem	lib	mod	mod	mod	nt	nt	nt	tg	right	nt	cr	0.69762	nh/0526_nh.bmp	0.05	2.4
326.48	1.15682	5	79	mem	lib	mod	mod	mod	nt	nt	tg	nt	left	nt	cr	0.75682	wh/0162.bmp	0.05	2.45
330.8	1.02613	5	80	mem	lib	mod	mod	mod	tg	tg	nt	nt	right	tg	ht	0.62613	nh/0753_nh.bmp	0.05	2.5
334.8	3.6	5	n/a	mem	lib	mod	n/a	n/a	feedback	n/a	n/a	n/a	n/a	n/a	n/a	n/a	n/a	n/a	n/a
339.84	7.2	6	n/a	mem	con	low	n/a	n/a	instructions	n/a	n/a	n/a	n/a	n/a	n/a	n/a	n/a	n/a	n/a
347.36	0.90992	6	81	mem	con	low	low	mod	tg	tg	tg	tg	left	tg	ht	0.50992	wh/0004.bmp	0.05	2.55
351.68	1.33492	6	82	mem	con	low	low	mod	tg	tg	nt	nt	left	nt	ms	0.93492	nh/0894_nh.bmp	0	2.55
354.56	1.15684	6	83	mem	con	low	low	mod	tg	tg	nt	tg	left	tg	ht	0.75684	nh/0214_nh.bmp	0.05	2.6
357.44	1.06686	6	84	mem	con	low	low	mod	nt	nt	nt	nt	left	nt	cr	0.66686	nh/0752_nh.bmp	0.05	2.65
360.32	1.14491	6	85	mem	con	low	low	mod	tg	tg	nt	nt	left	nt	ms	0.74491	nh/0872_nh.bmp	0	2.65
363.2	1.17486	6	86	mem	con	low	low	mod	nt	nt	tg	tg	right	nt	cr	0.77486	wh/0324.bmp	0.05	2.7
367.52	1.19491	6	87	mem	con	low	low	mod	nt	nt	nt	nt	left	nt	cr	0.79491	nh/0286_nh.bmp	0.05	2.75
370.4	0.99786	6	88	mem	con	low	low	mod	nt	nt	tg	tg	left	tg	fa	0.59786	wh/0087.bmp	-0.1	2.65
374.72	1.22792	6	89	mem	con	low	low	mod	tg	tg	nt	nt	left	nt	ms	0.82792	nh/0304_nh.bmp	0	2.65
377.6	1.39189	6	90	mem	con	low	low	mod	nt	nt	tg	nt	left	nt	cr	0.99189	wh/0659.bmp	0.05	2.7
380.48	1.08044	6	91	mem	con	low	low	mod	tg	tg	tg	tg	left	tg	ht	0.68044	wh/0707.bmp	0.05	2.75
383.36	1.4639	6	92	mem	con	low	low	mod	nt	nt	nt	tg	right	nt	cr	1.0639	nh/0553_nh.bmp	0.05	2.8
386.24	1.3939	6	93	mem	con	low	low	mod	nt	nt	tg	nt	left	nt	cr	0.9939	wh/0551.bmp	0.05	2.85
389.12	1.28591	6	94	mem	con	low	low	mod	nt	nt	nt	tg	left	tg	fa	0.88591	nh/0296_nh.bmp	-0.1	2.75
392	1.5289	6	95	mem	con	low	low	mod	tg	tg	tg	tg	right	nt	ms	1.1289	wh/0230.bmp	0	2.75
394.88	1.22886	6	96	mem	con	low	low	mod	tg	tg	tg	tg	left	tg	ht	0.82886	wh/0192.bmp	0.05	2.8
398.88	3.6	6	n/a	mem	con	low	n/a	n/a	feedback	n/a	n/a	n/a	n/a	n/a	n/a	n/a	n/a	n/a	n/a
402.48	7.2	7	n/a	mem	lib	low	n/a	n/a	instructions	n/a	n/a	n/a	n/a	n/a	n/a	n/a	n/a	n/a	n/a
410	0.97392	7	97	mem	lib	low	low	mod	tg	tg	nt	tg	left	tg	ht	0.57392	nh/0409_nh.bmp	0.05	2.85
412.88	1.19189	7	98	mem	lib	low	low	mod	nt	nt	tg	nt	right	tg	fa	0.79189	wh/0321.bmp	0	2.85
415.76	1.02484	7	99	mem	lib	low	low	mod	tg	tg	nt	tg	left	tg	ht	0.62484	nh/0474_nh.bmp	0.05	2.9
420.08	1.08796	7	100	mem	lib	low	low	mod	nt	nt	nt	nt	right	tg	fa	0.68796	nh/0974_nh.bmp	0	2.9
422.96	1.4009	7	101	mem	lib	low	low	mod	tg	tg	tg	nt	right	tg	ht	1.0009	wh/0969.bmp	0.05	2.95
425.84	1.4739	7	102	mem	lib	low	low	mod	nt	nt	tg	nt	right	tg	fa	1.0739	wh/0272.bmp	0	2.95
430.16	1.28782	7	103	mem	lib	low	low	mod	nt	nt	nt	tg	left	tg	fa	0.88782	nh/0476_nh.bmp	0	2.95
433.04	1.14887	7	104	mem	lib	low	low	mod	nt	nt	tg	nt	left	nt	cr	0.74887	wh/0527.bmp	0.05	3
436.64	1.0337	7	105	mem	lib	low	low	mod	nt	nt	tg	nt	right	tg	fa	0.6337	wh/0696.bmp	0	3
440.96	1.4209	7	106	mem	lib	low	low	mod	nt	nt	nt	tg	left	tg	fa	1.0209	nh/0322_nh.bmp	0	3
443.84	1.4149	7	107	mem	lib	low	low	mod	tg	tg	nt	tg	left	tg	ht	1.0149	nh/0085_nh.bmp	0.05	3.05
448.16	1.4249	7	108	mem	lib	low	low	mod	tg	tg	nt	tg	right	nt	ms	1.0249	nh/0201_nh.bmp	-0.1	2.95
452.48	1.10767	7	109	mem	lib	low	low	mod	tg	tg	tg	nt	right	tg	ht	0.70767	wh/0457.bmp	0.05	3
455.36	0.97334	7	110	mem	lib	low	low	mod	tg	tg	tg	tg	left	tg	ht	0.57334	wh/0726.bmp	0.05	3.05
459.68	1.2189	7	111	mem	lib	low	low	mod	nt	nt	nt	nt	right	tg	fa	0.8189	nh/0887_nh.bmp	0	3.05
463.28	1.21588	7	112	mem	lib	low	low	mod	tg	tg	tg	nt	right	tg	ht	0.81588	wh/0620.bmp	0.05	3.1
466.56	3.6	7	n/a	mem	lib	low	n/a	n/a	feedback	n/a	n/a	n/a	n/a	n/a	n/a	n/a	n/a	n/a	n/a
471.6	7.2	8	n/a	per	con	low	n/a	n/a	instructions	n/a	n/a	n/a	n/a	n/a	n/a	n/a	n/a	n/a	n/a
480.56	0.98301	8	113	per	con	low	mod	low	nt	tg	nt	tg	left	tg	fa	0.58301	nh/0283_nh.bmp	-0.1	3
483.44	1.12181	8	114	per	con	low	mod	low	tg	tg	tg	nt	left	nt	ms	0.72181	wh/0703.bmp	0	3
486.32	1.21693	8	115	per	con	low	mod	low	nt	tg	nt	tg	right	nt	cr	0.81693	nh/0400_nh.bmp	0.05	3.05
489.2	1.7119	8	116	per	con	low	mod	low	nt	nt	nt	tg	left	tg	fa	1.3119	nh/0205_nh.bmp	-0.1	2.95
492.8	1.06681	8	117	per	con	low	mod	low	nt	tg	nt	nt	left	nt	cr	0.66681	nh/1000_nh.bmp	0.05	3
496.4	1.25285	8	118	per	con	low	mod	low	tg	nt	tg	nt	right	tg	ht	0.85285	wh/0200.bmp	0.05	3.05
499.28	1.4789	8	119	per	con	low	mod	low	nt	nt	nt	tg	right	nt	cr	1.0789	nh/0755_nh.bmp	0.05	3.1
502.16	1.08719	8	120	per	con	low	mod	low	nt	tg	nt	nt	right	tg	fa	0.68719	nh/0195_nh.bmp	-0.1	3
506.48	1.17188	8	121	per	con	low	mod	low	tg	nt	tg	tg	left	tg	ht	0.77188	wh/1021.bmp	0.05	3.05
510.08	1.04041	8	122	per	con	low	mod	low	tg	tg	tg	tg	right	nt	ms	0.64041	wh/0641.bmp	0	3.05
512.96	1.1439	8	123	per	con	low	mod	low	tg	tg	tg	nt	left	nt	ms	0.7439	wh/0132.bmp	0	3.05
515.84	1.4089	8	124	per	con	low	mod	low	tg	nt	tg	nt	left	nt	ms	1.0089	wh/0727.bmp	0	3.05
520.16	1.15785	8	125	per	con	low	mod	low	tg	tg	tg	tg	right	nt	ms	0.75785	wh/0454.bmp	0	3.05
523.04	1.04619	8	126	per	con	low	mod	low	tg	nt	tg	nt	left	nt	ms	0.64619	wh/0116.bmp	0	3.05
527.36	1.07485	8	127	per	con	low	mod	low	nt	nt	nt	tg	right	nt	cr	0.67485	nh/0168_nh.bmp	0.05	3.1
531.68	1.16985	8	128	per	con	low	mod	low	nt	nt	nt	nt	left	nt	cr	0.76985	nh/0455_nh.bmp	0.05	3.15
534.24	3.6	8	n/a	per	con	low	n/a	n/a	feedback	n/a	n/a	n/a	n/a	n/a	n/a	n/a	n/a	n/a	n/a
