onset	duration	trial	pres	ts_blk	ts_trl	task	crit	disc	mem_disc	per_disc	per_type	accuracy	stim_file
7.20	0.72	1	1	4	81	mem	con	mod	mod	low	tg	ht	wh/0124.bmp
7.92	0.72	2	1	2	41	per	con	low	low	low	tg	ms	wh/0808.bmp
8.64	0.72	3	1	2	12	per	lib	mod	low	mod	tg	ht	wh/0052.bmp
9.36	0.72	4	1	4	93	mem	con	mod	mod	low	tg	ht	wh/0511.bmp
10.08	0.72	5	1	3	17	per	lib	low	low	low	tg	ms	wh/0357.bmp
10.80	0.72	6	1	1	76	mem	lib	mod	mod	mod	tg	ht	wh/0538.bmp
11.52	0.72	7	1	2	29	per	con	mod	mod	mod	tg	ms	wh/0604.bmp
12.24	0.72	8	1	4	27	per	lib	mod	mod	mod	nt	cr	nh/0279_nh.bmp
12.96	0.72	9	1	1	83	mem	con	low	low	mod	nt	ht	nh/0214_nh.bmp
13.68	0.72	10	1	3	106	mem	con	mod	mod	mod	tg	ht	wh/0983.bmp
14.40	0.72	11	1	3	63	mem	lib	mod	mod	mod	tg	ht	wh/0320.bmp
15.12	0.72	12	1	3	48	per	con	low	mod	low	tg	ms	wh/0882.bmp
15.84	0.72	13	1	3	41	per	con	low	mod	low	tg	ms	wh/0496.bmp
16.56	0.72	14	1	3	60	mem	lib	mod	mod	mod	nt	ht	nh/0576_nh.bmp
17.28	0.72	15	1	2	73	mem	lib	mod	mod	low	tg	ht	wh/0390.bmp
18.00	0.72	16	1	2	115	per	lib	low	mod	low	tg	ms	wh/0410.bmp
18.72	0.72	17	1	3	104	mem	con	mod	mod	mod	tg	ht	wh/0761.bmp
19.44	0.72	18	1	4	68	per	con	mod	mod	mod	tg	ht	wh/0562.bmp
20.16	0.72	19	1	1	10	mem	con	mod	mod	low	nt	ht	nh/0174_nh.bmp
20.88	0.72	20	1	1	123	per	con	low	mod	low	tg	ms	wh/0132.bmp
21.60	0.72	21	1	4	32	per	lib	mod	mod	mod	tg	ht	wh/0961.bmp
22.32	0.72	22	1	4	103	per	lib	low	mod	low	nt	cr	nh/0554_nh.bmp
23.04	0.72	23	2	4	93	mem	con	mod	mod	low	tg	ht	wh/0511.bmp
23.76	0.72	24	2	1	123	per	con	low	mod	low	tg	ms	wh/0132.bmp
24.48	0.72	25	1	4	45	mem	lib	low	low	mod	tg	ht	wh/0944.bmp
25.20	0.72	26	1	1	49	per	lib	mod	mod	mod	tg	ht	wh/0664.bmp
25.92	0.72	27	1	3	42	per	con	low	mod	low	tg	ms	wh/0302.bmp
26.64	0.72	28	1	2	28	per	con	mod	mod	mod	nt	cr	nh/0061_nh.bmp
27.36	0.72	29	1	1	122	per	con	low	mod	low	tg	ms	wh/0641.bmp
28.08	0.72	30	1	3	99	mem	con	mod	mod	mod	nt	ht	nh/0348_nh.bmp
28.80	0.72	31	1	4	33	mem	lib	low	low	mod	nt	ht	nh/0886_nh.bmp
29.52	0.72	32	1	4	29	per	lib	mod	mod	mod	nt	cr	nh/0645_nh.bmp
30.24	0.72	33	1	3	121	mem	con	low	low	mod	tg	ms	wh/0467.bmp
30.96	0.72	34	1	1	113	per	con	low	mod	low	nt	fa	nh/0283_nh.bmp
31.68	0.72	35	1	4	56	mem	lib	mod	mod	low	nt	ms	nh/0791_nh.bmp
32.40	0.72	36	1	2	90	mem	con	mod	mod	mod	nt	ht	nh/0344_nh.bmp
33.12	0.72	37	1	1	65	mem	lib	mod	mod	mod	nt	ht	nh/0490_nh.bmp
33.84	0.72	38	1	4	21	per	lib	mod	mod	mod	nt	cr	nh/0665_nh.bmp
34.56	0.72	39	1	2	50	mem	con	low	low	low	tg	n/a	wh/0565.bmp
35.28	0.72	40	2	2	29	per	con	mod	mod	mod	tg	ms	wh/0604.bmp
36.00	0.72	41	1	3	115	mem	con	low	low	mod	nt	ht	nh/0502_nh.bmp
36.72	0.72	42	1	1	63	per	lib	mod	mod	mod	nt	cr	nh/0479_nh.bmp
37.44	0.72	43	3	1	123	per	con	low	mod	low	tg	ms	wh/0132.bmp
38.16	0.72	44	1	3	98	mem	con	mod	mod	mod	nt	ht	nh/0583_nh.bmp
38.88	0.72	45	1	4	91	mem	con	mod	mod	low	tg	ht	wh/0988.bmp
39.60	0.72	46	1	2	118	per	lib	low	mod	low	tg	ht	wh/0246.bmp
40.32	0.72	47	1	4	79	per	con	mod	mod	mod	tg	ht	wh/0628.bmp
41.04	0.72	48	2	3	98	mem	con	mod	mod	mod	nt	ht	nh/0583_nh.bmp
41.76	0.72	49	1	4	50	mem	lib	mod	mod	low	nt	ht	nh/1013_nh.bmp
42.48	0.72	50	1	4	105	per	lib	low	mod	low	tg	ht	wh/0412.bmp
43.20	0.72	51	1	4	61	mem	lib	mod	mod	low	nt	ms	nh/0494_nh.bmp
43.92	0.72	52	1	2	85	mem	con	mod	mod	mod	nt	ht	nh/0358_nh.bmp
44.64	0.72	53	1	1	74	mem	lib	mod	mod	mod	nt	ht	nh/0445_nh.bmp
45.36	0.72	54	1	3	64	mem	lib	mod	mod	mod	nt	ht	nh/0487_nh.bmp
46.08	0.72	55	1	1	33	per	lib	low	low	low	tg	ms	wh/0356.bmp
46.80	0.72	56	1	1	82	mem	con	low	low	mod	nt	ms	nh/0894_nh.bmp
47.52	0.72	57	1	2	124	per	lib	low	mod	low	tg	ms	wh/0166.bmp
48.24	0.72	58	1	1	11	mem	con	mod	mod	low	tg	ht	wh/0792.bmp
48.96	0.72	59	1	1	115	per	con	low	mod	low	nt	cr	nh/0400_nh.bmp
49.68	0.72	60	1	4	22	per	lib	mod	mod	mod	tg	ht	wh/0796.bmp
50.40	0.72	61	1	3	74	per	lib	mod	low	mod	nt	cr	nh/0567_nh.bmp
51.12	0.72	62	2	4	50	mem	lib	mod	mod	low	nt	ht	nh/1013_nh.bmp
51.84	0.72	63	1	4	73	per	con	mod	mod	mod	nt	cr	nh/0359_nh.bmp
52.56	0.72	64	1	2	22	per	con	mod	mod	mod	tg	ht	wh/0931.bmp
53.28	0.72	65	1	3	43	per	con	low	mod	low	nt	cr	nh/0259_nh.bmp
54.00	0.72	66	1	2	72	mem	lib	mod	mod	low	tg	ht	wh/0291.bmp
54.72	0.72	67	1	1	60	per	lib	mod	mod	mod	tg	ht	wh/0229.bmp
55.44	0.72	68	1	2	117	per	lib	low	mod	low	tg	ht	wh/0030.bmp
56.16	0.72	69	1	3	44	per	con	low	mod	low	nt	cr	nh/0671_nh.bmp
56.88	0.72	70	1	3	38	per	con	low	mod	low	nt	cr	nh/0422_nh.bmp
57.60	0.72	71	1	1	114	per	con	low	mod	low	tg	ms	wh/0703.bmp
58.32	0.72	72	1	2	65	mem	lib	mod	mod	low	tg	ht	wh/0523.bmp
59.04	0.72	73	1	1	14	mem	con	mod	mod	low	tg	ht	wh/0976.bmp
59.76	0.72	74	2	3	44	per	con	low	mod	low	nt	cr	nh/0671_nh.bmp
60.48	0.72	75	1	4	108	per	lib	low	mod	low	tg	ht	wh/0263.bmp
61.20	0.72	76	2	3	64	mem	lib	mod	mod	mod	nt	ht	nh/0487_nh.bmp
61.92	0.72	77	3	2	29	per	con	mod	mod	mod	tg	ms	wh/0604.bmp
62.64	0.72	78	1	1	39	per	lib	low	low	low	nt	cr	nh/0743_nh.bmp
63.36	0.72	79	1	4	78	per	con	mod	mod	mod	tg	ht	wh/0333.bmp
64.08	0.72	80	1	2	119	per	lib	low	mod	low	nt	fa	nh/0575_nh.bmp
64.80	0.72	81	1	1	68	mem	lib	mod	mod	mod	nt	ht	nh/0282_nh.bmp
65.52	0.72	82	3	3	44	per	con	low	mod	low	nt	cr	nh/0671_nh.bmp
66.24	0.72	83	2	4	91	mem	con	mod	mod	low	tg	ht	wh/0988.bmp
66.96	0.72	84	2	4	29	per	lib	mod	mod	mod	nt	cr	nh/0645_nh.bmp
67.68	0.72	85	1	1	120	per	con	low	mod	low	nt	fa	nh/0195_nh.bmp
68.40	0.72	86	2	4	56	mem	lib	mod	mod	low	nt	ms	nh/0791_nh.bmp
69.12	0.72	87	1	3	46	per	con	low	mod	low	nt	cr	nh/0672_nh.bmp
69.84	0.72	88	2	2	90	mem	con	mod	mod	mod	nt	ht	nh/0344_nh.bmp
70.56	0.72	89	2	2	22	per	con	mod	mod	mod	tg	ht	wh/0931.bmp
71.28	0.72	90	2	3	60	mem	lib	mod	mod	mod	nt	ht	nh/0576_nh.bmp
72.00	0.72	91	2	4	68	per	con	mod	mod	mod	tg	ht	wh/0562.bmp
72.72	0.72	92	2	4	21	per	lib	mod	mod	mod	nt	cr	nh/0665_nh.bmp
73.44	0.72	93	1	4	119	per	con	low	low	low	tg	ms	wh/0987.bmp
74.16	0.72	94	1	2	89	mem	con	mod	mod	mod	nt	ht	nh/0834_nh.bmp
74.88	0.72	95	1	2	84	mem	con	mod	mod	mod	nt	ms	nh/0759_nh.bmp
75.60	0.72	96	1	1	125	per	con	low	mod	low	tg	ms	wh/0454.bmp
76.32	0.72	97	2	2	117	per	lib	low	mod	low	tg	ht	wh/0030.bmp
77.04	0.72	98	1	3	50	mem	lib	mod	mod	mod	tg	ht	wh/0901.bmp
77.76	0.72	99	1	2	81	mem	con	mod	mod	mod	tg	ms	wh/0039.bmp
78.48	0.72	100	1	3	108	mem	con	mod	mod	mod	tg	ms	wh/0104.bmp
79.20	0.72	101	3	3	98	mem	con	mod	mod	mod	nt	ht	nh/0583_nh.bmp
79.92	0.72	102	1	3	56	mem	lib	mod	mod	mod	nt	ht	nh/1006_nh.bmp
80.64	0.72	103	1	4	115	per	con	low	low	low	tg	ms	wh/0011.bmp
81.36	0.72	104	1	4	72	per	con	mod	mod	mod	tg	ht	wh/0799.bmp
82.08	0.72	105	2	2	89	mem	con	mod	mod	mod	nt	ht	nh/0834_nh.bmp
82.80	0.72	106	1	3	62	mem	lib	mod	mod	mod	tg	ht	wh/0742.bmp
83.52	0.72	107	1	3	51	mem	lib	mod	mod	mod	tg	ht	wh/0071.bmp
84.24	0.72	108	2	1	10	mem	con	mod	mod	low	nt	ht	nh/0174_nh.bmp
84.96	0.72	109	2	1	114	per	con	low	mod	low	tg	ms	wh/0703.bmp
85.68	0.72	110	2	4	103	per	lib	low	mod	low	nt	cr	nh/0554_nh.bmp
86.40	0.72	111	2	3	50	mem	lib	mod	mod	mod	tg	ht	wh/0901.bmp
87.12	0.72	112	1	2	76	mem	lib	mod	mod	low	nt	ht	nh/0798_nh.bmp
87.84	0.72	113	2	1	125	per	con	low	mod	low	tg	ms	wh/0454.bmp
88.56	0.72	114	2	3	104	mem	con	mod	mod	mod	tg	ht	wh/0761.bmp
89.28	0.72	115	2	3	43	per	con	low	mod	low	nt	cr	nh/0259_nh.bmp
90.00	0.72	116	1	1	1	mem	con	mod	mod	low	nt	ht	nh/0067_nh.bmp
90.72	0.72	117	1	4	49	mem	lib	mod	mod	low	tg	ms	wh/0444.bmp
91.44	0.72	118	3	1	125	per	con	low	mod	low	tg	ms	wh/0454.bmp
92.16	0.72	119	1	2	68	mem	lib	mod	mod	low	nt	ht	nh/0424_nh.bmp
92.88	0.72	120	1	1	12	mem	con	mod	mod	low	tg	ht	wh/0683.bmp
93.60	0.72	121	1	4	54	mem	lib	mod	mod	low	tg	ht	wh/0312.bmp
94.32	0.72	122	2	4	78	per	con	mod	mod	mod	tg	ht	wh/0333.bmp
95.04	0.72	123	1	2	60	mem	con	low	low	low	nt	ht	nh/0021_nh.bmp
95.76	0.72	124	1	4	64	mem	lib	mod	mod	low	tg	ht	wh/0415.bmp
96.48	0.72	125	1	2	114	per	lib	low	mod	low	nt	cr	nh/0509_nh.bmp
97.20	0.72	126	3	4	29	per	lib	mod	mod	mod	nt	cr	nh/0645_nh.bmp
97.92	0.72	127	2	4	73	per	con	mod	mod	mod	nt	cr	nh/0359_nh.bmp
98.64	0.72	128	2	1	68	mem	lib	mod	mod	mod	nt	ht	nh/0282_nh.bmp
99.36	0.72	129	3	3	60	mem	lib	mod	mod	mod	nt	ht	nh/0576_nh.bmp
100.08	0.72	130	1	4	107	per	lib	low	mod	low	tg	ht	wh/0459.bmp
100.80	0.72	131	2	2	65	mem	lib	mod	mod	low	tg	ht	wh/0523.bmp
101.52	0.72	132	1	1	55	per	lib	mod	mod	mod	nt	fa	nh/0806_nh.bmp
102.24	0.72	133	3	4	91	mem	con	mod	mod	low	tg	ht	wh/0988.bmp
102.96	0.72	134	1	4	71	per	con	mod	mod	mod	nt	cr	nh/0313_nh.bmp
103.68	0.72	135	2	2	68	mem	lib	mod	mod	low	nt	ht	nh/0424_nh.bmp
104.40	0.72	136	1	2	120	per	lib	low	mod	low	nt	cr	nh/0315_nh.bmp
105.12	0.72	137	1	2	110	mem	lib	low	low	low	nt	ht	nh/0653_nh.bmp
105.84	0.72	138	2	1	49	per	lib	mod	mod	mod	tg	ht	wh/0664.bmp
106.56	0.72	139	1	2	57	mem	con	low	low	low	tg	ms	wh/0632.bmp
107.28	0.72	140	1	1	64	per	lib	mod	mod	mod	nt	cr	nh/0592_nh.bmp
108.00	0.72	141	2	4	108	per	lib	low	mod	low	tg	ht	wh/0263.bmp
108.72	0.72	142	2	4	105	per	lib	low	mod	low	tg	ht	wh/0412.bmp
109.44	0.72	143	2	2	119	per	lib	low	mod	low	nt	fa	nh/0575_nh.bmp
110.16	0.72	144	2	4	49	mem	lib	mod	mod	low	tg	ms	wh/0444.bmp
110.88	0.72	145	2	3	48	per	con	low	mod	low	tg	ms	wh/0882.bmp
111.60	0.72	146	2	4	27	per	lib	mod	mod	mod	nt	cr	nh/0279_nh.bmp
112.32	0.72	147	1	1	51	per	lib	mod	mod	mod	nt	cr	nh/0689_nh.bmp
113.04	0.72	148	3	2	22	per	con	mod	mod	mod	tg	ht	wh/0931.bmp
113.76	0.72	149	2	1	12	mem	con	mod	mod	low	tg	ht	wh/0683.bmp
114.48	0.72	150	2	1	120	per	con	low	mod	low	nt	fa	nh/0195_nh.bmp
115.20	0.72	151	1	2	88	mem	con	mod	mod	mod	tg	ht	wh/0477.bmp
115.92	0.72	152	4	2	29	per	con	mod	mod	mod	tg	ms	wh/0604.bmp
116.64	0.72	153	4	1	125	per	con	low	mod	low	tg	ms	wh/0454.bmp
117.36	0.72	154	1	4	31	per	lib	mod	mod	mod	tg	ht	wh/0738.bmp
118.08	0.72	155	2	2	118	per	lib	low	mod	low	tg	ht	wh/0246.bmp
118.80	0.72	156	1	1	50	per	lib	mod	mod	mod	tg	ht	wh/0895.bmp
119.52	0.72	157	2	4	61	mem	lib	mod	mod	low	nt	ms	nh/0494_nh.bmp
120.24	0.72	158	1	1	110	mem	lib	low	low	mod	tg	ht	wh/0726.bmp
120.96	0.72	159	1	2	93	mem	con	mod	mod	mod	tg	ht	wh/0861.bmp
121.68	0.72	160	2	3	41	per	con	low	mod	low	tg	ms	wh/0496.bmp
122.40	0.72	161	3	4	61	mem	lib	mod	mod	low	nt	ms	nh/0494_nh.bmp
123.12	0.72	162	1	2	17	per	con	mod	mod	mod	nt	cr	nh/0427_nh.bmp
123.84	0.72	163	2	2	93	mem	con	mod	mod	mod	tg	ht	wh/0861.bmp
124.56	0.72	164	1	3	52	mem	lib	mod	mod	mod	nt	ht	nh/1010_nh.bmp
125.28	0.72	165	1	4	48	mem	lib	low	low	mod	tg	ht	wh/0950.bmp
126.00	0.72	166	3	4	93	mem	con	mod	mod	low	tg	ht	wh/0511.bmp
126.72	0.72	167	1	4	62	mem	lib	mod	mod	low	tg	ht	wh/0295.bmp
127.44	0.72	168	2	1	14	mem	con	mod	mod	low	tg	ht	wh/0976.bmp
128.16	0.72	169	1	3	111	mem	con	mod	mod	mod	nt	ht	nh/0970_nh.bmp
128.88	0.72	170	1	3	107	mem	con	mod	mod	mod	nt	ht	nh/0674_nh.bmp
129.60	0.72	171	1	2	64	mem	con	low	low	low	nt	ms	nh/0310_nh.bmp
130.32	0.72	172	1	3	81	per	con	mod	low	mod	nt	cr	nh/0811_nh.bmp
131.04	0.72	173	2	1	60	per	lib	mod	mod	mod	tg	ht	wh/0229.bmp
131.76	0.72	174	2	3	108	mem	con	mod	mod	mod	tg	ms	wh/0104.bmp
132.48	0.72	175	2	2	88	mem	con	mod	mod	mod	tg	ht	wh/0477.bmp
133.20	0.72	176	3	3	64	mem	lib	mod	mod	mod	nt	ht	nh/0487_nh.bmp
133.92	0.72	177	1	3	68	per	lib	mod	low	mod	tg	ht	wh/0033.bmp
134.64	0.72	178	1	4	23	per	lib	mod	mod	mod	nt	cr	nh/0925_nh.bmp
135.36	0.72	179	1	4	112	per	lib	low	mod	low	nt	cr	nh/0765_nh.bmp
136.08	0.72	180	1	2	42	per	con	low	low	low	tg	ms	wh/0492.bmp
136.80	0.72	181	1	1	16	mem	con	mod	mod	low	nt	ht	nh/0643_nh.bmp
137.52	0.72	182	1	1	9	mem	con	mod	mod	low	nt	ht	nh/0757_nh.bmp
138.24	0.72	183	2	4	62	mem	lib	mod	mod	low	tg	ht	wh/0295.bmp
138.96	0.72	184	3	1	120	per	con	low	mod	low	nt	fa	nh/0195_nh.bmp
139.68	0.72	185	1	4	60	mem	lib	mod	mod	low	nt	ht	nh/0007_nh.bmp
140.40	0.72	186	1	1	69	mem	lib	mod	mod	mod	tg	ht	wh/0705.bmp
141.12	0.72	187	1	2	31	per	con	mod	mod	mod	nt	cr	nh/0943_nh.bmp
141.84	0.72	188	2	4	112	per	lib	low	mod	low	nt	cr	nh/0765_nh.bmp
142.56	0.72	189	1	4	128	per	con	low	low	low	tg	ms	wh/0184.bmp
143.28	0.72	190	1	2	34	per	con	low	low	low	nt	cr	nh/0430_nh.bmp
144.00	0.72	191	2	3	62	mem	lib	mod	mod	mod	tg	ht	wh/0742.bmp
144.72	0.72	192	1	1	108	mem	lib	low	low	mod	nt	ms	nh/0201_nh.bmp
145.44	0.72	193	3	4	49	mem	lib	mod	mod	low	tg	ms	wh/0444.bmp
146.16	0.72	194	4	4	91	mem	con	mod	mod	low	tg	ht	wh/0988.bmp
146.88	0.72	195	2	2	31	per	con	mod	mod	mod	nt	cr	nh/0943_nh.bmp
147.60	0.72	196	1	4	106	per	lib	low	mod	low	nt	fa	nh/0914_nh.bmp
148.32	0.72	197	3	4	73	per	con	mod	mod	mod	nt	cr	nh/0359_nh.bmp
149.04	0.72	198	2	4	23	per	lib	mod	mod	mod	nt	cr	nh/0925_nh.bmp
149.76	0.72	199	1	1	91	mem	con	low	low	mod	tg	ht	wh/0707.bmp
150.48	0.72	200	1	2	18	per	con	mod	mod	mod	tg	ms	wh/0049.bmp
151.20	0.72	201	2	4	72	per	con	mod	mod	mod	tg	ht	wh/0799.bmp
151.92	0.72	202	1	2	8	per	lib	mod	low	mod	nt	cr	nh/0595_nh.bmp
152.64	0.72	203	1	1	15	mem	con	mod	mod	low	tg	ht	wh/0512.bmp
153.36	0.72	204	2	4	22	per	lib	mod	mod	mod	tg	ht	wh/0796.bmp
154.08	0.72	205	2	4	54	mem	lib	mod	mod	low	tg	ht	wh/0312.bmp
154.80	0.72	206	2	4	106	per	lib	low	mod	low	nt	fa	nh/0914_nh.bmp
155.52	0.72	207	3	4	27	per	lib	mod	mod	mod	nt	cr	nh/0279_nh.bmp
156.24	0.72	208	3	4	108	per	lib	low	mod	low	tg	ht	wh/0263.bmp
156.96	0.72	209	4	3	60	mem	lib	mod	mod	mod	nt	ht	nh/0576_nh.bmp
157.68	0.72	210	2	3	42	per	con	low	mod	low	tg	ms	wh/0302.bmp
158.40	0.72	211	2	3	107	mem	con	mod	mod	mod	nt	ht	nh/0674_nh.bmp
159.12	0.72	212	2	2	84	mem	con	mod	mod	mod	nt	ms	nh/0759_nh.bmp
159.84	0.72	213	1	2	86	mem	con	mod	mod	mod	tg	ms	wh/0809.bmp
160.56	0.72	214	5	2	29	per	con	mod	mod	mod	tg	ms	wh/0604.bmp
161.28	0.72	215	3	3	62	mem	lib	mod	mod	mod	tg	ht	wh/0742.bmp
162.00	0.72	216	3	2	118	per	lib	low	mod	low	tg	ht	wh/0246.bmp
162.72	0.72	217	1	4	96	mem	con	mod	mod	low	nt	ht	nh/0368_nh.bmp
163.44	0.72	218	4	1	123	per	con	low	mod	low	tg	ms	wh/0132.bmp
164.16	0.72	219	3	4	105	per	lib	low	mod	low	tg	ht	wh/0412.bmp
164.88	0.72	220	3	3	104	mem	con	mod	mod	mod	tg	ht	wh/0761.bmp
165.60	0.72	221	1	3	30	per	lib	low	low	low	tg	ht	wh/0916.bmp
166.32	0.72	222	3	4	103	per	lib	low	mod	low	nt	cr	nh/0554_nh.bmp
167.04	0.72	223	2	1	15	mem	con	mod	mod	low	tg	ht	wh/0512.bmp
167.76	0.72	224	3	3	48	per	con	low	mod	low	tg	ms	wh/0882.bmp
168.48	0.72	225	1	2	71	mem	lib	mod	mod	low	nt	ht	nh/0615_nh.bmp
169.20	0.72	226	2	1	55	per	lib	mod	mod	mod	nt	fa	nh/0806_nh.bmp
169.92	0.72	227	1	1	66	mem	lib	mod	mod	mod	tg	ht	wh/0343.bmp
170.64	0.72	228	1	2	21	per	con	mod	mod	mod	tg	ms	wh/0365.bmp
171.36	0.72	229	3	2	84	mem	con	mod	mod	mod	nt	ms	nh/0759_nh.bmp
172.08	0.72	230	2	3	51	mem	lib	mod	mod	mod	tg	ht	wh/0071.bmp
172.80	0.72	231	1	4	121	per	con	low	low	low	nt	cr	nh/0309_nh.bmp
173.52	0.72	232	4	2	84	mem	con	mod	mod	mod	nt	ms	nh/0759_nh.bmp
174.24	0.72	233	4	2	118	per	lib	low	mod	low	tg	ht	wh/0246.bmp
174.96	0.72	234	1	1	101	mem	lib	low	low	mod	tg	ht	wh/0969.bmp
175.68	0.72	235	3	1	15	mem	con	mod	mod	low	tg	ht	wh/0512.bmp
176.40	0.72	236	3	1	55	per	lib	mod	mod	mod	nt	fa	nh/0806_nh.bmp
177.12	0.72	237	2	4	107	per	lib	low	mod	low	tg	ht	wh/0459.bmp
177.84	0.72	238	3	2	88	mem	con	mod	mod	mod	tg	ht	wh/0477.bmp
178.56	0.72	239	2	1	65	mem	lib	mod	mod	mod	nt	ht	nh/0490_nh.bmp
179.28	0.72	240	4	3	44	per	con	low	mod	low	nt	cr	nh/0671_nh.bmp
180.00	0.72	241	1	1	29	per	con	mod	low	mod	tg	ms	wh/0606.bmp
180.72	0.72	242	3	2	68	mem	lib	mod	mod	low	nt	ht	nh/0424_nh.bmp
181.44	0.72	243	2	1	115	per	con	low	mod	low	nt	cr	nh/0400_nh.bmp
182.16	0.72	244	2	2	17	per	con	mod	mod	mod	nt	cr	nh/0427_nh.bmp
182.88	0.72	245	5	4	91	mem	con	mod	mod	low	tg	ht	wh/0988.bmp
183.60	0.72	246	3	4	54	mem	lib	mod	mod	low	tg	ht	wh/0312.bmp
184.32	0.72	247	2	3	38	per	con	low	mod	low	nt	cr	nh/0422_nh.bmp
185.04	0.72	248	2	1	11	mem	con	mod	mod	low	tg	ht	wh/0792.bmp
185.76	0.72	249	2	2	76	mem	lib	mod	mod	low	nt	ht	nh/0798_nh.bmp
186.48	0.72	250	2	2	114	per	lib	low	mod	low	nt	cr	nh/0509_nh.bmp
187.20	0.72	251	2	1	113	per	con	low	mod	low	nt	fa	nh/0283_nh.bmp
187.92	0.72	252	3	3	41	per	con	low	mod	low	tg	ms	wh/0496.bmp
188.64	0.72	253	2	4	31	per	lib	mod	mod	mod	tg	ht	wh/0738.bmp
189.36	0.72	254	1	1	24	per	con	mod	low	mod	nt	cr	nh/0539_nh.bmp
190.08	0.72	255	3	4	50	mem	lib	mod	mod	low	nt	ht	nh/1013_nh.bmp
190.80	0.72	256	1	2	36	per	con	low	low	low	nt	cr	nh/0120_nh.bmp
191.52	0.72	257	1	1	52	per	lib	mod	mod	mod	tg	ht	wh/0448.bmp
192.24	0.72	258	1	1	80	mem	lib	mod	mod	mod	nt	ht	nh/0753_nh.bmp
192.96	0.72	259	4	4	93	mem	con	mod	mod	low	tg	ht	wh/0511.bmp
193.68	0.72	260	4	4	103	per	lib	low	mod	low	nt	cr	nh/0554_nh.bmp
194.40	0.72	261	2	1	9	mem	con	mod	mod	low	nt	ht	nh/0757_nh.bmp
195.12	0.72	262	2	2	28	per	con	mod	mod	mod	nt	cr	nh/0061_nh.bmp
195.84	0.72	263	1	4	102	per	lib	low	mod	low	nt	cr	nh/0438_nh.bmp
196.56	0.72	264	3	4	62	mem	lib	mod	mod	low	tg	ht	wh/0295.bmp
197.28	0.72	265	4	2	88	mem	con	mod	mod	mod	tg	ht	wh/0477.bmp
198.00	0.72	266	3	2	93	mem	con	mod	mod	mod	tg	ht	wh/0861.bmp
198.72	0.72	267	4	4	105	per	lib	low	mod	low	tg	ht	wh/0412.bmp
199.44	0.72	268	3	2	119	per	lib	low	mod	low	nt	fa	nh/0575_nh.bmp
200.16	0.72	269	2	3	52	mem	lib	mod	mod	mod	nt	ht	nh/1010_nh.bmp
200.88	0.72	270	1	3	40	per	con	low	mod	low	tg	ms	wh/0212.bmp
201.60	0.72	271	3	3	52	mem	lib	mod	mod	mod	nt	ht	nh/1010_nh.bmp
202.32	0.72	272	5	3	44	per	con	low	mod	low	nt	cr	nh/0671_nh.bmp
203.04	0.72	273	3	4	112	per	lib	low	mod	low	nt	cr	nh/0765_nh.bmp
203.76	0.72	274	4	3	64	mem	lib	mod	mod	mod	nt	ht	nh/0487_nh.bmp
204.48	0.72	275	4	2	93	mem	con	mod	mod	mod	tg	ht	wh/0861.bmp
205.20	0.72	276	2	4	79	per	con	mod	mod	mod	tg	ht	wh/0628.bmp
205.92	0.72	277	1	2	20	per	con	mod	mod	mod	nt	cr	nh/0072_nh.bmp
206.64	0.72	278	2	4	81	mem	con	mod	mod	low	tg	ht	wh/0124.bmp
207.36	0.72	279	2	1	52	per	lib	mod	mod	mod	tg	ht	wh/0448.bmp
208.08	0.72	280	1	4	82	mem	con	mod	mod	low	nt	ht	nh/0323_nh.bmp
208.80	0.72	281	2	1	122	per	con	low	mod	low	tg	ms	wh/0641.bmp
209.52	0.72	282	1	4	94	mem	con	mod	mod	low	nt	ht	nh/0203_nh.bmp
210.24	0.72	283	3	3	38	per	con	low	mod	low	nt	cr	nh/0422_nh.bmp
210.96	0.72	284	3	2	17	per	con	mod	mod	mod	nt	cr	nh/0427_nh.bmp
211.68	0.72	285	5	3	60	mem	lib	mod	mod	mod	nt	ht	nh/0576_nh.bmp
212.40	0.72	286	2	2	115	per	lib	low	mod	low	tg	ms	wh/0410.bmp
213.12	0.72	287	4	3	98	mem	con	mod	mod	mod	nt	ht	nh/0583_nh.bmp
213.84	0.72	288	2	2	85	mem	con	mod	mod	mod	nt	ht	nh/0358_nh.bmp
214.56	0.72	289	3	3	43	per	con	low	mod	low	nt	cr	nh/0259_nh.bmp
215.28	0.72	290	2	2	71	mem	lib	mod	mod	low	nt	ht	nh/0615_nh.bmp
216.00	0.72	291	3	2	115	per	lib	low	mod	low	tg	ms	wh/0410.bmp
216.72	0.72	292	4	1	55	per	lib	mod	mod	mod	nt	fa	nh/0806_nh.bmp
217.44	0.72	293	2	4	102	per	lib	low	mod	low	nt	cr	nh/0438_nh.bmp
218.16	0.72	294	2	1	50	per	lib	mod	mod	mod	tg	ht	wh/0895.bmp
218.88	0.72	295	1	3	92	per	con	mod	low	mod	tg	ht	wh/0102.bmp
219.60	0.72	296	3	3	108	mem	con	mod	mod	mod	tg	ms	wh/0104.bmp
220.32	0.72	297	3	4	102	per	lib	low	mod	low	nt	cr	nh/0438_nh.bmp
221.04	0.72	298	1	2	78	mem	lib	mod	mod	low	nt	ht	nh/0236_nh.bmp
221.76	0.72	299	4	3	48	per	con	low	mod	low	tg	ms	wh/0882.bmp
222.48	0.72	300	3	1	9	mem	con	mod	mod	low	nt	ht	nh/0757_nh.bmp
223.20	0.72	301	4	4	108	per	lib	low	mod	low	tg	ht	wh/0263.bmp
223.92	0.72	302	1	3	110	mem	con	mod	mod	mod	tg	ms	wh/0413.bmp
224.64	0.72	303	4	1	120	per	con	low	mod	low	nt	fa	nh/0195_nh.bmp
225.36	0.72	304	3	1	49	per	lib	mod	mod	mod	tg	ht	wh/0664.bmp
226.08	0.72	305	3	2	114	per	lib	low	mod	low	nt	cr	nh/0509_nh.bmp
226.80	0.72	306	1	4	98	per	lib	low	mod	low	tg	ht	wh/0293.bmp
227.52	0.72	307	2	1	16	mem	con	mod	mod	low	nt	ht	nh/0643_nh.bmp
228.24	0.72	308	1	3	3	mem	lib	low	low	low	nt	ht	nh/0828_nh.bmp
228.96	0.72	309	2	2	18	per	con	mod	mod	mod	tg	ms	wh/0049.bmp
229.68	0.72	310	2	4	98	per	lib	low	mod	low	tg	ht	wh/0293.bmp
230.40	0.72	311	2	4	32	per	lib	mod	mod	mod	tg	ht	wh/0961.bmp
231.12	0.72	312	1	1	117	per	con	low	mod	low	nt	cr	nh/1000_nh.bmp
231.84	0.72	313	3	4	32	per	lib	mod	mod	mod	tg	ht	wh/0961.bmp
232.56	0.72	314	1	3	125	mem	con	low	low	mod	nt	ms	nh/0813_nh.bmp
233.28	0.72	315	5	1	120	per	con	low	mod	low	nt	fa	nh/0195_nh.bmp
234.00	0.72	316	4	4	73	per	con	mod	mod	mod	nt	cr	nh/0359_nh.bmp
234.72	0.72	317	6	3	44	per	con	low	mod	low	nt	cr	nh/0671_nh.bmp
235.44	0.72	318	1	2	14	per	lib	mod	low	mod	tg	ms	wh/0317.bmp
236.16	0.72	319	2	2	81	mem	con	mod	mod	mod	tg	ms	wh/0039.bmp
236.88	0.72	320	3	4	107	per	lib	low	mod	low	tg	ht	wh/0459.bmp
237.60	0.72	321	3	1	11	mem	con	mod	mod	low	tg	ht	wh/0792.bmp
238.32	0.72	322	1	2	9	per	lib	mod	low	mod	nt	cr	nh/0826_nh.bmp
239.04	0.72	323	3	2	76	mem	lib	mod	mod	low	nt	ht	nh/0798_nh.bmp
239.76	0.72	324	3	4	56	mem	lib	mod	mod	low	nt	ms	nh/0791_nh.bmp
240.48	0.72	325	3	2	65	mem	lib	mod	mod	low	tg	ht	wh/0523.bmp
241.20	0.72	326	2	3	106	mem	con	mod	mod	mod	tg	ht	wh/0983.bmp
241.92	0.72	327	4	3	104	mem	con	mod	mod	mod	tg	ht	wh/0761.bmp
242.64	0.72	328	2	3	63	mem	lib	mod	mod	mod	tg	ht	wh/0320.bmp
243.36	0.72	329	3	1	12	mem	con	mod	mod	low	tg	ht	wh/0683.bmp
244.08	0.72	330	3	1	68	mem	lib	mod	mod	mod	nt	ht	nh/0282_nh.bmp
244.80	0.72	331	3	3	106	mem	con	mod	mod	mod	tg	ht	wh/0983.bmp
245.52	0.72	332	2	3	99	mem	con	mod	mod	mod	nt	ht	nh/0348_nh.bmp
246.24	0.72	333	3	4	106	per	lib	low	mod	low	nt	fa	nh/0914_nh.bmp
246.96	0.72	334	3	4	81	mem	con	mod	mod	low	tg	ht	wh/0124.bmp
247.68	0.72	335	1	2	126	per	lib	low	mod	low	nt	cr	nh/0081_nh.bmp
248.40	0.72	336	1	2	98	mem	lib	low	low	low	nt	ms	nh/0713_nh.bmp
249.12	0.72	337	4	1	49	per	lib	mod	mod	mod	tg	ht	wh/0664.bmp
249.84	0.72	338	4	4	106	per	lib	low	mod	low	nt	fa	nh/0914_nh.bmp
250.56	0.72	339	3	2	18	per	con	mod	mod	mod	tg	ms	wh/0049.bmp
251.28	0.72	340	3	4	79	per	con	mod	mod	mod	tg	ht	wh/0628.bmp
252.00	0.72	341	2	1	1	mem	con	mod	mod	low	nt	ht	nh/0067_nh.bmp
252.72	0.72	342	1	4	87	mem	con	mod	mod	low	nt	ms	nh/0386_nh.bmp
253.44	0.72	343	4	4	56	mem	lib	mod	mod	low	nt	ms	nh/0791_nh.bmp
254.16	0.72	344	4	4	29	per	lib	mod	mod	mod	nt	cr	nh/0645_nh.bmp
254.88	0.72	345	1	2	108	mem	lib	low	low	low	tg	ms	wh/0877.bmp
255.60	0.72	346	4	4	54	mem	lib	mod	mod	low	tg	ht	wh/0312.bmp
256.32	0.72	347	4	1	12	mem	con	mod	mod	low	tg	ht	wh/0683.bmp
257.04	0.72	348	1	1	99	mem	lib	low	low	mod	nt	ht	nh/0474_nh.bmp
257.76	0.72	349	3	2	85	mem	con	mod	mod	mod	nt	ht	nh/0358_nh.bmp
258.48	0.72	350	3	4	23	per	lib	mod	mod	mod	nt	cr	nh/0925_nh.bmp
259.20	0.72	351	4	4	107	per	lib	low	mod	low	tg	ht	wh/0459.bmp
259.92	0.72	352	5	4	106	per	lib	low	mod	low	nt	fa	nh/0914_nh.bmp
260.64	0.72	353	2	1	66	mem	lib	mod	mod	mod	tg	ht	wh/0343.bmp
261.36	0.72	354	3	4	68	per	con	mod	mod	mod	tg	ht	wh/0562.bmp
262.08	0.72	355	2	2	20	per	con	mod	mod	mod	nt	cr	nh/0072_nh.bmp
262.80	0.72	356	5	4	108	per	lib	low	mod	low	tg	ht	wh/0263.bmp
263.52	0.72	357	2	4	82	mem	con	mod	mod	low	nt	ht	nh/0323_nh.bmp
264.24	0.72	358	3	3	50	mem	lib	mod	mod	mod	tg	ht	wh/0901.bmp
264.96	0.72	359	2	1	80	mem	lib	mod	mod	mod	nt	ht	nh/0753_nh.bmp
265.68	0.72	360	4	3	43	per	con	low	mod	low	nt	cr	nh/0259_nh.bmp
266.40	0.72	361	3	2	71	mem	lib	mod	mod	low	nt	ht	nh/0615_nh.bmp
267.12	0.72	362	2	3	46	per	con	low	mod	low	nt	cr	nh/0672_nh.bmp
267.84	0.72	363	4	4	23	per	lib	mod	mod	mod	nt	cr	nh/0925_nh.bmp
268.56	0.72	364	4	3	50	mem	lib	mod	mod	mod	tg	ht	wh/0901.bmp
269.28	0.72	365	4	2	18	per	con	mod	mod	mod	tg	ms	wh/0049.bmp
270.00	0.72	366	5	4	23	per	lib	mod	mod	mod	nt	cr	nh/0925_nh.bmp
270.72	0.72	367	3	4	98	per	lib	low	mod	low	tg	ht	wh/0293.bmp
271.44	0.72	368	3	3	63	mem	lib	mod	mod	mod	tg	ht	wh/0320.bmp
272.16	0.72	369	4	1	68	mem	lib	mod	mod	mod	nt	ht	nh/0282_nh.bmp
272.88	0.72	370	6	4	91	mem	con	mod	mod	low	tg	ht	wh/0988.bmp
273.60	0.72	371	2	1	117	per	con	low	mod	low	nt	cr	nh/1000_nh.bmp
274.32	0.72	372	3	1	117	per	con	low	mod	low	nt	cr	nh/1000_nh.bmp
275.04	0.72	373	2	1	69	mem	lib	mod	mod	mod	tg	ht	wh/0705.bmp
275.76	0.72	374	4	1	9	mem	con	mod	mod	low	nt	ht	nh/0757_nh.bmp
276.48	0.72	375	3	4	31	per	lib	mod	mod	mod	tg	ht	wh/0738.bmp
277.20	0.72	376	4	3	108	mem	con	mod	mod	mod	tg	ms	wh/0104.bmp
277.92	0.72	377	1	4	20	per	lib	mod	mod	mod	tg	ht	wh/0137.bmp
278.64	0.72	378	3	2	117	per	lib	low	mod	low	tg	ht	wh/0030.bmp
279.36	0.72	379	3	4	22	per	lib	mod	mod	mod	tg	ht	wh/0796.bmp
280.08	0.72	380	4	4	102	per	lib	low	mod	low	nt	cr	nh/0438_nh.bmp
280.80	0.72	381	4	3	106	mem	con	mod	mod	mod	tg	ht	wh/0983.bmp
281.52	0.72	382	3	4	21	per	lib	mod	mod	mod	nt	cr	nh/0665_nh.bmp
282.24	0.72	383	5	4	107	per	lib	low	mod	low	tg	ht	wh/0459.bmp
282.96	0.72	384	2	2	72	mem	lib	mod	mod	low	tg	ht	wh/0291.bmp
283.68	0.72	385	5	1	12	mem	con	mod	mod	low	tg	ht	wh/0683.bmp
284.40	0.72	386	1	4	86	mem	con	mod	mod	low	tg	ht	wh/0661.bmp
285.12	0.72	387	4	4	61	mem	lib	mod	mod	low	nt	ms	nh/0494_nh.bmp
285.84	0.72	388	1	1	26	per	con	mod	low	mod	nt	cr	nh/0670_nh.bmp
286.56	0.72	389	2	2	120	per	lib	low	mod	low	nt	cr	nh/0315_nh.bmp
287.28	0.72	390	1	3	26	per	lib	low	low	low	nt	fa	nh/0250_nh.bmp
288.00	0.72	391	4	3	52	mem	lib	mod	mod	mod	nt	ht	nh/1010_nh.bmp
288.72	0.72	392	1	3	11	mem	lib	low	low	low	nt	ht	nh/0107_nh.bmp
289.44	0.72	393	1	1	81	mem	con	low	low	mod	tg	ht	wh/0004.bmp
290.16	0.72	394	1	1	77	mem	lib	mod	mod	mod	tg	ht	wh/0151.bmp
290.88	0.72	395	3	1	52	per	lib	mod	mod	mod	tg	ht	wh/0448.bmp
291.60	0.72	396	2	4	71	per	con	mod	mod	mod	nt	cr	nh/0313_nh.bmp
292.32	0.72	397	2	1	76	mem	lib	mod	mod	mod	tg	ht	wh/0538.bmp
293.04	0.72	398	1	4	9	mem	con	low	low	low	tg	ms	wh/0110.bmp
293.76	0.72	399	4	2	17	per	con	mod	mod	mod	nt	cr	nh/0427_nh.bmp
294.48	0.72	400	3	1	1	mem	con	mod	mod	low	nt	ht	nh/0067_nh.bmp
295.20	0.72	401	2	2	86	mem	con	mod	mod	mod	tg	ms	wh/0809.bmp
295.92	0.72	402	2	4	87	mem	con	mod	mod	low	nt	ms	nh/0386_nh.bmp
296.64	0.72	403	1	2	106	mem	lib	low	low	low	tg	ms	wh/0026.bmp
297.36	0.72	404	4	2	71	mem	lib	mod	mod	low	nt	ht	nh/0615_nh.bmp
298.08	0.72	405	5	2	84	mem	con	mod	mod	mod	nt	ms	nh/0759_nh.bmp
298.80	0.72	406	1	2	3	per	lib	mod	low	mod	nt	fa	nh/0644_nh.bmp
299.52	0.72	407	2	4	64	mem	lib	mod	mod	low	tg	ht	wh/0415.bmp
300.24	0.72	408	4	4	81	mem	con	mod	mod	low	tg	ht	wh/0124.bmp
300.96	0.72	409	3	3	51	mem	lib	mod	mod	mod	tg	ht	wh/0071.bmp
301.68	0.72	410	1	2	40	per	con	low	low	low	tg	ms	wh/0127.bmp
302.40	0.72	411	3	4	78	per	con	mod	mod	mod	tg	ht	wh/0333.bmp
303.12	0.72	412	2	3	40	per	con	low	mod	low	tg	ms	wh/0212.bmp
303.84	0.72	413	3	2	89	mem	con	mod	mod	mod	nt	ht	nh/0834_nh.bmp
304.56	0.72	414	5	4	56	mem	lib	mod	mod	low	nt	ms	nh/0791_nh.bmp
305.28	0.72	415	3	1	50	per	lib	mod	mod	mod	tg	ht	wh/0895.bmp
306.00	0.72	416	4	1	117	per	con	low	mod	low	nt	cr	nh/1000_nh.bmp
306.72	0.72	417	5	1	49	per	lib	mod	mod	mod	tg	ht	wh/0664.bmp
307.44	0.72	418	5	4	29	per	lib	mod	mod	mod	nt	cr	nh/0645_nh.bmp
308.16	0.72	419	1	3	19	per	lib	low	low	low	tg	ms	wh/0169.bmp
308.88	0.72	420	2	4	60	mem	lib	mod	mod	low	nt	ht	nh/0007_nh.bmp
309.60	0.72	421	3	1	80	mem	lib	mod	mod	mod	nt	ht	nh/0753_nh.bmp
310.32	0.72	422	2	1	74	mem	lib	mod	mod	mod	nt	ht	nh/0445_nh.bmp
311.04	0.72	423	5	3	43	per	con	low	mod	low	nt	cr	nh/0259_nh.bmp
311.76	0.72	424	4	3	51	mem	lib	mod	mod	mod	tg	ht	wh/0071.bmp
312.48	0.72	425	2	4	86	mem	con	mod	mod	low	tg	ht	wh/0661.bmp
313.20	0.72	426	1	3	28	per	lib	low	low	low	nt	cr	nh/0078_nh.bmp
313.92	0.72	427	1	3	89	per	con	mod	low	mod	tg	ht	wh/0069.bmp
314.64	0.72	428	5	4	93	mem	con	mod	mod	low	tg	ht	wh/0511.bmp
315.36	0.72	429	5	2	71	mem	lib	mod	mod	low	nt	ht	nh/0615_nh.bmp
316.08	0.72	430	1	4	80	per	con	mod	mod	mod	nt	cr	nh/0097_nh.bmp
316.80	0.72	431	3	4	71	per	con	mod	mod	mod	nt	cr	nh/0313_nh.bmp
317.52	0.72	432	3	4	82	mem	con	mod	mod	low	nt	ht	nh/0323_nh.bmp
318.24	0.72	433	4	1	52	per	lib	mod	mod	mod	tg	ht	wh/0448.bmp
318.96	0.72	434	4	4	31	per	lib	mod	mod	mod	tg	ht	wh/0738.bmp
319.68	0.72	435	3	4	64	mem	lib	mod	mod	low	tg	ht	wh/0415.bmp
320.40	0.72	436	6	4	56	mem	lib	mod	mod	low	nt	ms	nh/0791_nh.bmp
321.12	0.72	437	3	3	46	per	con	low	mod	low	nt	cr	nh/0672_nh.bmp
321.84	0.72	438	3	1	122	per	con	low	mod	low	tg	ms	wh/0641.bmp
322.56	0.72	439	2	1	63	per	lib	mod	mod	mod	nt	cr	nh/0479_nh.bmp
323.28	0.72	440	5	1	9	mem	con	mod	mod	low	nt	ht	nh/0757_nh.bmp
324.00	0.72	441	6	4	107	per	lib	low	mod	low	tg	ht	wh/0459.bmp
324.72	0.72	442	4	4	50	mem	lib	mod	mod	low	nt	ht	nh/1013_nh.bmp
325.44	0.72	443	2	2	73	mem	lib	mod	mod	low	tg	ht	wh/0390.bmp
326.16	0.72	444	2	1	64	per	lib	mod	mod	mod	nt	cr	nh/0592_nh.bmp
326.88	0.72	445	1	4	75	per	con	mod	mod	mod	nt	cr	nh/0331_nh.bmp
327.60	0.72	446	5	3	64	mem	lib	mod	mod	mod	nt	ht	nh/0487_nh.bmp
328.32	0.72	447	4	2	115	per	lib	low	mod	low	tg	ms	wh/0410.bmp
329.04	0.72	448	3	4	87	mem	con	mod	mod	low	nt	ms	nh/0386_nh.bmp
329.76	0.72	449	3	2	73	mem	lib	mod	mod	low	tg	ht	wh/0390.bmp
330.48	0.72	450	4	2	73	mem	lib	mod	mod	low	tg	ht	wh/0390.bmp
331.20	0.72	451	4	4	21	per	lib	mod	mod	mod	nt	cr	nh/0665_nh.bmp
331.92	0.72	452	4	2	68	mem	lib	mod	mod	low	nt	ht	nh/0424_nh.bmp
332.64	0.72	453	3	2	120	per	lib	low	mod	low	nt	cr	nh/0315_nh.bmp
333.36	0.72	454	1	1	109	mem	lib	low	low	mod	tg	ht	wh/0457.bmp
334.08	0.72	455	2	4	20	per	lib	mod	mod	mod	tg	ht	wh/0137.bmp
334.80	0.72	456	4	3	38	per	con	low	mod	low	nt	cr	nh/0422_nh.bmp
335.52	0.72	457	1	1	95	mem	con	low	low	mod	tg	ms	wh/0230.bmp
336.24	0.72	458	4	4	62	mem	lib	mod	mod	low	tg	ht	wh/0295.bmp
336.96	0.72	459	2	1	51	per	lib	mod	mod	mod	nt	cr	nh/0689_nh.bmp
337.68	0.72	460	1	3	95	per	con	mod	low	mod	tg	ms	wh/0854.bmp
338.40	0.72	461	4	2	119	per	lib	low	mod	low	nt	fa	nh/0575_nh.bmp
339.12	0.72	462	3	1	51	per	lib	mod	mod	mod	nt	cr	nh/0689_nh.bmp
339.84	0.72	463	1	2	49	mem	con	low	low	low	tg	ms	wh/0264.bmp
340.56	0.72	464	1	1	34	per	lib	low	low	low	tg	ms	wh/1003.bmp
341.28	0.72	465	2	4	96	mem	con	mod	mod	low	nt	ht	nh/0368_nh.bmp
342.00	0.72	466	3	3	42	per	con	low	mod	low	tg	ms	wh/0302.bmp
342.72	0.72	467	2	2	126	per	lib	low	mod	low	nt	cr	nh/0081_nh.bmp
343.44	0.72	468	5	3	48	per	con	low	mod	low	tg	ms	wh/0882.bmp
344.16	0.72	469	1	1	32	per	con	mod	low	mod	nt	cr	nh/1020_nh.bmp
344.88	0.72	470	3	1	64	per	lib	mod	mod	mod	nt	cr	nh/0592_nh.bmp
345.60	0.72	471	4	4	79	per	con	mod	mod	mod	tg	ht	wh/0628.bmp
346.32	0.72	472	3	1	114	per	con	low	mod	low	tg	ms	wh/0703.bmp
347.04	0.72	473	5	4	103	per	lib	low	mod	low	nt	cr	nh/0554_nh.bmp
347.76	0.72	474	2	1	77	mem	lib	mod	mod	mod	tg	ht	wh/0151.bmp
348.48	0.72	475	3	1	76	mem	lib	mod	mod	mod	tg	ht	wh/0538.bmp
349.20	0.72	476	4	3	42	per	con	low	mod	low	tg	ms	wh/0302.bmp
349.92	0.72	477	2	2	124	per	lib	low	mod	low	tg	ms	wh/0166.bmp
350.64	0.72	478	3	4	72	per	con	mod	mod	mod	tg	ht	wh/0799.bmp
351.36	0.72	479	2	3	111	mem	con	mod	mod	mod	nt	ht	nh/0970_nh.bmp
352.08	0.72	480	3	4	20	per	lib	mod	mod	mod	tg	ht	wh/0137.bmp
352.80	0.72	481	5	2	73	mem	lib	mod	mod	low	tg	ht	wh/0390.bmp
353.52	0.72	482	5	2	88	mem	con	mod	mod	mod	tg	ht	wh/0477.bmp
354.24	0.72	483	3	1	63	per	lib	mod	mod	mod	nt	cr	nh/0479_nh.bmp
354.96	0.72	484	5	2	118	per	lib	low	mod	low	tg	ht	wh/0246.bmp
355.68	0.72	485	1	4	15	mem	con	low	low	low	tg	ms	wh/0783.bmp
356.40	0.72	486	4	4	64	mem	lib	mod	mod	low	tg	ht	wh/0415.bmp
357.12	0.72	487	3	3	99	mem	con	mod	mod	mod	nt	ht	nh/0348_nh.bmp
357.84	0.72	488	1	1	85	mem	con	low	low	mod	nt	ms	nh/0872_nh.bmp
358.56	0.72	489	1	4	113	per	con	low	low	low	nt	cr	nh/0505_nh.bmp
359.28	0.72	490	5	4	81	mem	con	mod	mod	low	tg	ht	wh/0124.bmp
360.00	0.72	491	1	4	126	per	con	low	low	low	nt	cr	nh/0911_nh.bmp
360.72	0.72	492	1	1	40	per	lib	low	low	low	tg	ht	wh/0314.bmp
361.44	0.72	493	3	1	115	per	con	low	mod	low	nt	cr	nh/0400_nh.bmp
362.16	0.72	494	2	4	80	per	con	mod	mod	mod	nt	cr	nh/0097_nh.bmp
362.88	0.72	495	3	1	14	mem	con	mod	mod	low	tg	ht	wh/0976.bmp
363.60	0.72	496	5	1	125	per	con	low	mod	low	tg	ms	wh/0454.bmp
364.32	0.72	497	5	3	52	mem	lib	mod	mod	mod	nt	ht	nh/1010_nh.bmp
365.04	0.72	498	3	1	113	per	con	low	mod	low	nt	fa	nh/0283_nh.bmp
365.76	0.72	499	3	4	60	mem	lib	mod	mod	low	nt	ht	nh/0007_nh.bmp
366.48	0.72	500	6	1	12	mem	con	mod	mod	low	tg	ht	wh/0683.bmp
367.20	0.72	501	4	2	22	per	con	mod	mod	mod	tg	ht	wh/0931.bmp
367.92	0.72	502	4	4	60	mem	lib	mod	mod	low	nt	ht	nh/0007_nh.bmp
368.64	0.72	503	2	2	78	mem	lib	mod	mod	low	nt	ht	nh/0236_nh.bmp
369.36	0.72	504	5	4	61	mem	lib	mod	mod	low	nt	ms	nh/0494_nh.bmp
370.08	0.72	505	4	2	114	per	lib	low	mod	low	nt	cr	nh/0509_nh.bmp
370.80	0.72	506	6	3	52	mem	lib	mod	mod	mod	nt	ht	nh/1010_nh.bmp
371.52	0.72	507	4	4	68	per	con	mod	mod	mod	tg	ht	wh/0562.bmp
372.24	0.72	508	6	2	84	mem	con	mod	mod	mod	nt	ms	nh/0759_nh.bmp
372.96	0.72	509	6	4	61	mem	lib	mod	mod	low	nt	ms	nh/0494_nh.bmp
373.68	0.72	510	6	2	118	per	lib	low	mod	low	tg	ht	wh/0246.bmp
374.40	0.72	511	4	4	78	per	con	mod	mod	mod	tg	ht	wh/0333.bmp
375.12	0.72	512	4	2	65	mem	lib	mod	mod	low	tg	ht	wh/0523.bmp
375.84	0.72	513	1	1	43	per	lib	low	low	low	nt	cr	nh/0243_nh.bmp
376.56	0.72	514	6	4	108	per	lib	low	mod	low	tg	ht	wh/0263.bmp
377.28	0.72	515	5	3	50	mem	lib	mod	mod	mod	tg	ht	wh/0901.bmp
378.00	0.72	516	5	1	55	per	lib	mod	mod	mod	nt	fa	nh/0806_nh.bmp
378.72	0.72	517	5	1	68	mem	lib	mod	mod	mod	nt	ht	nh/0282_nh.bmp
379.44	0.72	518	4	1	11	mem	con	mod	mod	low	tg	ht	wh/0792.bmp
380.16	0.72	519	4	2	85	mem	con	mod	mod	mod	nt	ht	nh/0358_nh.bmp
380.88	0.72	520	1	3	124	mem	con	low	low	mod	nt	ht	nh/0555_nh.bmp
381.60	0.72	521	5	2	119	per	lib	low	mod	low	nt	fa	nh/0575_nh.bmp
382.32	0.72	522	1	1	112	mem	lib	low	low	mod	tg	ht	wh/0620.bmp
383.04	0.72	523	1	1	37	per	lib	low	low	low	tg	ht	wh/0824.bmp
383.76	0.72	524	1	3	82	per	con	mod	low	mod	tg	ht	wh/0723.bmp
384.48	0.72	525	3	3	107	mem	con	mod	mod	mod	nt	ht	nh/0674_nh.bmp
385.20	0.72	526	3	4	80	per	con	mod	mod	mod	nt	cr	nh/0097_nh.bmp
385.92	0.72	527	3	1	60	per	lib	mod	mod	mod	tg	ht	wh/0229.bmp
386.64	0.72	528	6	1	49	per	lib	mod	mod	mod	tg	ht	wh/0664.bmp
387.36	0.72	529	3	3	111	mem	con	mod	mod	mod	nt	ht	nh/0970_nh.bmp
388.08	0.72	530	6	4	103	per	lib	low	mod	low	nt	cr	nh/0554_nh.bmp
388.80	0.72	531	5	1	123	per	con	low	mod	low	tg	ms	wh/0132.bmp
389.52	0.72	532	1	2	79	mem	lib	mod	mod	low	tg	ht	wh/0131.bmp
390.24	0.72	533	1	2	48	per	con	low	low	low	nt	cr	nh/0130_nh.bmp
390.96	0.72	534	4	4	71	per	con	mod	mod	mod	nt	cr	nh/0313_nh.bmp
391.68	0.72	535	4	3	46	per	con	low	mod	low	nt	cr	nh/0672_nh.bmp
392.40	0.72	536	2	3	110	mem	con	mod	mod	mod	tg	ms	wh/0413.bmp
393.12	0.72	537	3	1	77	mem	lib	mod	mod	mod	tg	ht	wh/0151.bmp
393.84	0.72	538	3	2	78	mem	lib	mod	mod	low	nt	ht	nh/0236_nh.bmp
394.56	0.72	539	2	2	21	per	con	mod	mod	mod	tg	ms	wh/0365.bmp
395.28	0.72	540	3	2	72	mem	lib	mod	mod	low	tg	ht	wh/0291.bmp
396.00	0.72	541	1	4	11	mem	con	low	low	low	nt	ht	nh/0161_nh.bmp
396.72	0.72	542	4	3	62	mem	lib	mod	mod	mod	tg	ht	wh/0742.bmp
397.44	0.72	543	1	3	8	mem	lib	low	low	low	tg	ht	wh/0245.bmp
398.16	0.72	544	5	4	73	per	con	mod	mod	mod	nt	cr	nh/0359_nh.bmp
398.88	0.72	545	4	4	80	per	con	mod	mod	mod	nt	cr	nh/0097_nh.bmp
399.60	0.72	546	4	4	20	per	lib	mod	mod	mod	tg	ht	wh/0137.bmp
400.32	0.72	547	2	3	56	mem	lib	mod	mod	mod	nt	ht	nh/1006_nh.bmp
401.04	0.72	548	3	1	69	mem	lib	mod	mod	mod	tg	ht	wh/0705.bmp
401.76	0.72	549	6	4	73	per	con	mod	mod	mod	nt	cr	nh/0359_nh.bmp
402.48	0.72	550	4	1	14	mem	con	mod	mod	low	tg	ht	wh/0976.bmp
403.20	0.72	551	4	3	63	mem	lib	mod	mod	mod	tg	ht	wh/0320.bmp
403.92	0.72	552	5	3	104	mem	con	mod	mod	mod	tg	ht	wh/0761.bmp
404.64	0.72	553	4	1	64	per	lib	mod	mod	mod	nt	cr	nh/0592_nh.bmp
405.36	0.72	554	5	4	80	per	con	mod	mod	mod	nt	cr	nh/0097_nh.bmp
406.08	0.72	555	1	4	36	mem	lib	low	low	mod	nt	ht	nh/0440_nh.bmp
406.80	0.72	556	5	4	62	mem	lib	mod	mod	low	tg	ht	wh/0295.bmp
407.52	0.72	557	3	2	126	per	lib	low	mod	low	nt	cr	nh/0081_nh.bmp
408.24	0.72	558	3	2	20	per	con	mod	mod	mod	nt	cr	nh/0072_nh.bmp
408.96	0.72	559	1	4	123	per	con	low	low	low	nt	cr	nh/0375_nh.bmp
409.68	0.72	560	5	4	71	per	con	mod	mod	mod	nt	cr	nh/0313_nh.bmp
410.40	0.72	561	3	2	124	per	lib	low	mod	low	tg	ms	wh/0166.bmp
411.12	0.72	562	3	2	28	per	con	mod	mod	mod	nt	cr	nh/0061_nh.bmp
411.84	0.72	563	4	1	69	mem	lib	mod	mod	mod	tg	ht	wh/0705.bmp
412.56	0.72	564	3	2	21	per	con	mod	mod	mod	tg	ms	wh/0365.bmp
413.28	0.72	565	1	3	4	mem	lib	low	low	low	nt	ht	nh/0908_nh.bmp
414.00	0.72	566	4	2	76	mem	lib	mod	mod	low	nt	ht	nh/0798_nh.bmp
414.72	0.72	567	5	4	78	per	con	mod	mod	mod	tg	ht	wh/0333.bmp
415.44	0.72	568	5	1	117	per	con	low	mod	low	nt	cr	nh/1000_nh.bmp
416.16	0.72	569	4	1	76	mem	lib	mod	mod	mod	tg	ht	wh/0538.bmp
416.88	0.72	570	1	2	104	mem	lib	low	low	low	nt	ht	nh/0500_nh.bmp
417.60	0.72	571	4	4	112	per	lib	low	mod	low	nt	cr	nh/0765_nh.bmp
418.32	0.72	572	5	4	79	per	con	mod	mod	mod	tg	ht	wh/0628.bmp
419.04	0.72	573	6	4	71	per	con	mod	mod	mod	nt	cr	nh/0313_nh.bmp
419.76	0.72	574	5	2	114	per	lib	low	mod	low	nt	cr	nh/0509_nh.bmp
420.48	0.72	575	3	4	86	mem	con	mod	mod	low	tg	ht	wh/0661.bmp
421.20	0.72	576	1	2	109	mem	lib	low	low	low	tg	ht	wh/0117.bmp
421.92	0.72	577	6	2	114	per	lib	low	mod	low	nt	cr	nh/0509_nh.bmp
422.64	0.72	578	5	2	22	per	con	mod	mod	mod	tg	ht	wh/0931.bmp
423.36	0.72	579	3	3	110	mem	con	mod	mod	mod	tg	ms	wh/0413.bmp
424.08	0.72	580	1	1	17	per	con	mod	low	mod	tg	ms	wh/0346.bmp
424.80	0.72	581	2	4	75	per	con	mod	mod	mod	nt	cr	nh/0331_nh.bmp
425.52	0.72	582	1	2	51	mem	con	low	low	low	tg	ms	wh/0484.bmp
426.24	0.72	583	6	4	80	per	con	mod	mod	mod	nt	cr	nh/0097_nh.bmp
426.96	0.72	584	4	2	124	per	lib	low	mod	low	tg	ms	wh/0166.bmp
427.68	0.72	585	4	4	49	mem	lib	mod	mod	low	tg	ms	wh/0444.bmp
428.40	0.72	586	4	1	122	per	con	low	mod	low	tg	ms	wh/0641.bmp
429.12	0.72	587	6	1	55	per	lib	mod	mod	mod	nt	fa	nh/0806_nh.bmp
429.84	0.72	588	4	4	27	per	lib	mod	mod	mod	nt	cr	nh/0279_nh.bmp
430.56	0.72	589	5	2	18	per	con	mod	mod	mod	tg	ms	wh/0049.bmp
431.28	0.72	590	4	2	72	mem	lib	mod	mod	low	tg	ht	wh/0291.bmp
432.00	0.72	591	3	3	56	mem	lib	mod	mod	mod	nt	ht	nh/1006_nh.bmp
432.72	0.72	592	4	2	117	per	lib	low	mod	low	tg	ht	wh/0030.bmp
433.44	0.72	593	4	1	115	per	con	low	mod	low	nt	cr	nh/0400_nh.bmp
434.16	0.72	594	5	2	72	mem	lib	mod	mod	low	tg	ht	wh/0291.bmp
434.88	0.72	595	6	1	117	per	con	low	mod	low	nt	cr	nh/1000_nh.bmp
435.60	0.72	596	1	3	122	mem	con	low	low	mod	tg	ms	wh/0470.bmp
436.32	0.72	597	5	4	112	per	lib	low	mod	low	nt	cr	nh/0765_nh.bmp
437.04	0.72	598	3	1	16	mem	con	mod	mod	low	nt	ht	nh/0643_nh.bmp
437.76	0.72	599	1	1	31	per	con	mod	low	mod	nt	cr	nh/0667_nh.bmp
438.48	0.72	600	2	4	94	mem	con	mod	mod	low	nt	ht	nh/0203_nh.bmp
439.20	0.72	601	1	2	52	mem	con	low	low	low	nt	ms	nh/0252_nh.bmp
439.92	0.72	602	4	1	80	mem	lib	mod	mod	mod	nt	ht	nh/0753_nh.bmp
440.64	0.72	603	5	4	102	per	lib	low	mod	low	nt	cr	nh/0438_nh.bmp
441.36	0.72	604	1	4	43	mem	lib	low	low	mod	tg	ms	wh/0991.bmp
442.08	0.72	605	6	4	112	per	lib	low	mod	low	nt	cr	nh/0765_nh.bmp
442.80	0.72	606	4	3	110	mem	con	mod	mod	mod	tg	ms	wh/0413.bmp
443.52	0.72	607	3	4	94	mem	con	mod	mod	low	nt	ht	nh/0203_nh.bmp
444.24	0.72	608	3	2	86	mem	con	mod	mod	mod	tg	ms	wh/0809.bmp
444.96	0.72	609	4	2	78	mem	lib	mod	mod	low	nt	ht	nh/0236_nh.bmp
445.68	0.72	610	4	1	63	per	lib	mod	mod	mod	nt	cr	nh/0479_nh.bmp
446.40	0.72	611	2	2	79	mem	lib	mod	mod	low	tg	ht	wh/0131.bmp
447.12	0.72	612	3	2	79	mem	lib	mod	mod	low	tg	ht	wh/0131.bmp
447.84	0.72	613	1	4	2	mem	con	low	low	low	tg	ms	wh/0327.bmp
448.56	0.72	614	4	3	99	mem	con	mod	mod	mod	nt	ht	nh/0348_nh.bmp
449.28	0.72	615	4	4	94	mem	con	mod	mod	low	nt	ht	nh/0203_nh.bmp
450.00	0.72	616	5	4	68	per	con	mod	mod	mod	tg	ht	wh/0562.bmp
450.72	0.72	617	4	3	56	mem	lib	mod	mod	mod	nt	ht	nh/1006_nh.bmp
451.44	0.72	618	3	1	65	mem	lib	mod	mod	mod	nt	ht	nh/0490_nh.bmp
452.16	0.72	619	5	1	14	mem	con	mod	mod	low	tg	ht	wh/0976.bmp
452.88	0.72	620	6	4	81	mem	con	mod	mod	low	tg	ht	wh/0124.bmp
453.60	0.72	621	5	3	56	mem	lib	mod	mod	mod	nt	ht	nh/1006_nh.bmp
454.32	0.72	622	6	3	64	mem	lib	mod	mod	mod	nt	ht	nh/0487_nh.bmp
455.04	0.72	623	6	2	22	per	con	mod	mod	mod	tg	ht	wh/0931.bmp
455.76	0.72	624	4	1	50	per	lib	mod	mod	mod	tg	ht	wh/0895.bmp
456.48	0.72	625	4	1	65	mem	lib	mod	mod	mod	nt	ht	nh/0490_nh.bmp
457.20	0.72	626	4	4	82	mem	con	mod	mod	low	nt	ht	nh/0323_nh.bmp
457.92	0.72	627	6	4	93	mem	con	mod	mod	low	tg	ht	wh/0511.bmp
458.64	0.72	628	6	4	79	per	con	mod	mod	mod	tg	ht	wh/0628.bmp
459.36	0.72	629	4	1	60	per	lib	mod	mod	mod	tg	ht	wh/0229.bmp
460.08	0.72	630	4	4	86	mem	con	mod	mod	low	tg	ht	wh/0661.bmp
460.80	0.72	631	1	4	7	mem	con	low	low	low	nt	ms	nh/0167_nh.bmp
461.52	0.72	632	1	3	113	mem	con	low	low	mod	tg	ht	wh/0208.bmp
462.24	0.72	633	4	2	21	per	con	mod	mod	mod	tg	ms	wh/0365.bmp
462.96	0.72	634	5	2	117	per	lib	low	mod	low	tg	ht	wh/0030.bmp
463.68	0.72	635	5	3	106	mem	con	mod	mod	mod	tg	ht	wh/0983.bmp
464.40	0.72	636	6	4	68	per	con	mod	mod	mod	tg	ht	wh/0562.bmp
465.12	0.72	637	5	3	108	mem	con	mod	mod	mod	tg	ms	wh/0104.bmp
465.84	0.72	638	4	2	86	mem	con	mod	mod	mod	tg	ms	wh/0809.bmp
466.56	0.72	639	1	1	97	mem	lib	low	low	mod	nt	ht	nh/0409_nh.bmp
467.28	0.72	640	5	1	50	per	lib	mod	mod	mod	tg	ht	wh/0895.bmp
468.00	0.72	641	5	1	65	mem	lib	mod	mod	mod	nt	ht	nh/0490_nh.bmp
468.72	0.72	642	4	2	120	per	lib	low	mod	low	nt	cr	nh/0315_nh.bmp
469.44	0.72	643	4	2	28	per	con	mod	mod	mod	nt	cr	nh/0061_nh.bmp
470.16	0.72	644	5	1	11	mem	con	mod	mod	low	tg	ht	wh/0792.bmp
470.88	0.72	645	6	2	117	per	lib	low	mod	low	tg	ht	wh/0030.bmp
471.60	0.72	646	5	3	42	per	con	low	mod	low	tg	ms	wh/0302.bmp
472.32	0.72	647	3	3	40	per	con	low	mod	low	tg	ms	wh/0212.bmp
473.04	0.72	648	5	4	94	mem	con	mod	mod	low	nt	ht	nh/0203_nh.bmp
473.76	0.72	649	6	2	71	mem	lib	mod	mod	low	nt	ht	nh/0615_nh.bmp
474.48	0.72	650	6	3	108	mem	con	mod	mod	mod	tg	ms	wh/0104.bmp
475.20	0.72	651	5	4	86	mem	con	mod	mod	low	tg	ht	wh/0661.bmp
475.92	0.72	652	1	1	44	per	lib	low	low	low	nt	cr	nh/0276_nh.bmp
476.64	0.72	653	4	1	1	mem	con	mod	mod	low	nt	ht	nh/0067_nh.bmp
477.36	0.72	654	5	4	105	per	lib	low	mod	low	tg	ht	wh/0412.bmp
478.08	0.72	655	5	3	62	mem	lib	mod	mod	mod	tg	ht	wh/0742.bmp
478.80	0.72	656	4	4	32	per	lib	mod	mod	mod	tg	ht	wh/0961.bmp
479.52	0.72	657	5	1	115	per	con	low	mod	low	nt	cr	nh/0400_nh.bmp
480.24	0.72	658	1	3	85	per	con	mod	low	mod	nt	cr	nh/0773_nh.bmp
480.96	0.72	659	5	4	50	mem	lib	mod	mod	low	nt	ht	nh/1013_nh.bmp
481.68	0.72	660	3	1	74	mem	lib	mod	mod	mod	nt	ht	nh/0445_nh.bmp
482.40	0.72	661	5	4	82	mem	con	mod	mod	low	nt	ht	nh/0323_nh.bmp
483.12	0.72	662	5	3	63	mem	lib	mod	mod	mod	tg	ht	wh/0320.bmp
483.84	0.72	663	4	4	98	per	lib	low	mod	low	tg	ht	wh/0293.bmp
484.56	0.72	664	5	1	64	per	lib	mod	mod	mod	nt	cr	nh/0592_nh.bmp
485.28	0.72	665	6	3	50	mem	lib	mod	mod	mod	tg	ht	wh/0901.bmp
486.00	0.72	666	1	3	79	per	lib	mod	low	mod	tg	ht	wh/0630.bmp
486.72	0.72	667	4	1	15	mem	con	mod	mod	low	tg	ht	wh/0512.bmp
487.44	0.72	668	6	2	18	per	con	mod	mod	mod	tg	ms	wh/0049.bmp
488.16	0.72	669	4	3	111	mem	con	mod	mod	mod	nt	ht	nh/0970_nh.bmp
488.88	0.72	670	1	1	41	per	lib	low	low	low	nt	cr	nh/0819_nh.bmp
489.60	0.72	671	6	3	104	mem	con	mod	mod	mod	tg	ht	wh/0761.bmp
490.32	0.72	672	5	4	98	per	lib	low	mod	low	tg	ht	wh/0293.bmp
491.04	0.72	673	3	4	96	mem	con	mod	mod	low	nt	ht	nh/0368_nh.bmp
491.76	0.72	674	1	3	77	per	lib	mod	low	mod	tg	ht	wh/0003.bmp
492.48	0.72	675	5	2	85	mem	con	mod	mod	mod	nt	ht	nh/0358_nh.bmp
493.20	0.72	676	6	4	98	per	lib	low	mod	low	tg	ht	wh/0293.bmp
493.92	0.72	677	5	4	21	per	lib	mod	mod	mod	nt	cr	nh/0665_nh.bmp
494.64	0.72	678	3	1	66	mem	lib	mod	mod	mod	tg	ht	wh/0343.bmp
495.36	0.72	679	5	3	46	per	con	low	mod	low	nt	cr	nh/0672_nh.bmp
496.08	0.72	680	4	1	113	per	con	low	mod	low	nt	fa	nh/0283_nh.bmp
496.80	0.72	681	5	1	15	mem	con	mod	mod	low	tg	ht	wh/0512.bmp
497.52	0.72	682	5	3	51	mem	lib	mod	mod	mod	tg	ht	wh/0071.bmp
498.24	0.72	683	5	4	32	per	lib	mod	mod	mod	tg	ht	wh/0961.bmp
498.96	0.72	684	4	1	66	mem	lib	mod	mod	mod	tg	ht	wh/0343.bmp
499.68	0.72	685	4	1	74	mem	lib	mod	mod	mod	nt	ht	nh/0445_nh.bmp
500.40	0.72	686	5	2	76	mem	lib	mod	mod	low	nt	ht	nh/0798_nh.bmp
501.12	0.72	687	6	4	106	per	lib	low	mod	low	nt	fa	nh/0914_nh.bmp
501.84	0.72	688	6	4	82	mem	con	mod	mod	low	nt	ht	nh/0323_nh.bmp
502.56	0.72	689	6	1	64	per	lib	mod	mod	mod	nt	cr	nh/0592_nh.bmp
503.28	0.72	690	5	4	54	mem	lib	mod	mod	low	tg	ht	wh/0312.bmp
504.00	0.72	691	4	2	89	mem	con	mod	mod	mod	nt	ht	nh/0834_nh.bmp
504.72	0.72	692	5	1	60	per	lib	mod	mod	mod	tg	ht	wh/0229.bmp
505.44	0.72	693	5	3	99	mem	con	mod	mod	mod	nt	ht	nh/0348_nh.bmp
506.16	0.72	694	3	4	75	per	con	mod	mod	mod	nt	cr	nh/0331_nh.bmp
506.88	0.72	695	5	1	76	mem	lib	mod	mod	mod	tg	ht	wh/0538.bmp
507.60	0.72	696	3	2	31	per	con	mod	mod	mod	nt	cr	nh/0943_nh.bmp
508.32	0.72	697	1	1	107	mem	lib	low	low	mod	nt	ht	nh/0085_nh.bmp
509.04	0.72	698	1	4	13	mem	con	low	low	low	nt	ht	nh/0010_nh.bmp
509.76	0.72	699	4	1	16	mem	con	mod	mod	low	nt	ht	nh/0643_nh.bmp
510.48	0.72	700	6	2	29	per	con	mod	mod	mod	tg	ms	wh/0604.bmp
511.20	0.72	701	4	1	51	per	lib	mod	mod	mod	nt	cr	nh/0689_nh.bmp
511.92	0.72	702	4	3	41	per	con	low	mod	low	tg	ms	wh/0496.bmp
512.64	0.72	703	5	2	21	per	con	mod	mod	mod	tg	ms	wh/0365.bmp
513.36	0.72	704	5	2	68	mem	lib	mod	mod	low	nt	ht	nh/0424_nh.bmp
514.08	0.72	705	6	4	105	per	lib	low	mod	low	tg	ht	wh/0412.bmp
514.80	0.72	706	4	4	87	mem	con	mod	mod	low	nt	ms	nh/0386_nh.bmp
515.52	0.72	707	4	4	72	per	con	mod	mod	mod	tg	ht	wh/0799.bmp
516.24	0.72	708	5	1	51	per	lib	mod	mod	mod	nt	cr	nh/0689_nh.bmp
516.96	0.72	709	5	2	65	mem	lib	mod	mod	low	tg	ht	wh/0523.bmp
517.68	0.72	710	1	4	10	mem	con	low	low	low	nt	ms	nh/0369_nh.bmp
518.40	0.72	711	6	2	119	per	lib	low	mod	low	nt	fa	nh/0575_nh.bmp
519.12	0.72	712	5	4	87	mem	con	mod	mod	low	nt	ms	nh/0386_nh.bmp
519.84	0.72	713	1	2	100	mem	lib	low	low	low	tg	ht	wh/0242.bmp
520.56	0.72	714	5	4	49	mem	lib	mod	mod	low	tg	ms	wh/0444.bmp
521.28	0.72	715	4	4	75	per	con	mod	mod	mod	nt	cr	nh/0331_nh.bmp
522.00	0.72	716	3	2	81	mem	con	mod	mod	mod	tg	ms	wh/0039.bmp
522.72	0.72	717	6	2	73	mem	lib	mod	mod	low	tg	ht	wh/0390.bmp
523.44	0.72	718	4	2	126	per	lib	low	mod	low	nt	cr	nh/0081_nh.bmp
524.16	0.72	719	1	3	7	mem	lib	low	low	low	tg	ms	wh/0363.bmp
524.88	0.72	720	1	3	65	per	lib	mod	low	mod	nt	cr	nh/0891_nh.bmp
525.60	0.72	721	6	4	94	mem	con	mod	mod	low	nt	ht	nh/0203_nh.bmp
526.32	0.72	722	5	1	69	mem	lib	mod	mod	mod	tg	ht	wh/0705.bmp
527.04	0.72	723	6	2	88	mem	con	mod	mod	mod	tg	ht	wh/0477.bmp
527.76	0.72	724	5	1	52	per	lib	mod	mod	mod	tg	ht	wh/0448.bmp
528.48	0.72	725	5	3	38	per	con	low	mod	low	nt	cr	nh/0422_nh.bmp
529.20	0.72	726	5	4	72	per	con	mod	mod	mod	tg	ht	wh/0799.bmp
529.92	0.72	727	5	1	63	per	lib	mod	mod	mod	nt	cr	nh/0479_nh.bmp
530.64	0.72	728	1	3	69	per	lib	mod	low	mod	nt	cr	nh/0754_nh.bmp
531.36	0.72	729	4	2	20	per	con	mod	mod	mod	nt	cr	nh/0072_nh.bmp
532.08	0.72	730	1	2	43	per	con	low	low	low	tg	ht	wh/0607.bmp
532.80	0.72	731	5	2	28	per	con	mod	mod	mod	nt	cr	nh/0061_nh.bmp
533.52	0.72	732	1	3	16	mem	lib	low	low	low	tg	ht	wh/0524.bmp
534.24	0.72	733	1	3	75	per	lib	mod	low	mod	nt	fa	nh/0616_nh.bmp
534.96	0.72	734	5	4	20	per	lib	mod	mod	mod	tg	ht	wh/0137.bmp
535.68	0.72	735	6	3	51	mem	lib	mod	mod	mod	tg	ht	wh/0071.bmp
536.40	0.72	736	3	1	10	mem	con	mod	mod	low	nt	ht	nh/0174_nh.bmp
537.12	0.72	737	4	1	77	mem	lib	mod	mod	mod	tg	ht	wh/0151.bmp
537.84	0.72	738	4	2	31	per	con	mod	mod	mod	nt	cr	nh/0943_nh.bmp
538.56	0.72	739	4	2	79	mem	lib	mod	mod	low	tg	ht	wh/0131.bmp
539.28	0.72	740	6	3	63	mem	lib	mod	mod	mod	tg	ht	wh/0320.bmp
540.00	0.72	741	4	4	22	per	lib	mod	mod	mod	tg	ht	wh/0796.bmp
540.72	0.72	742	5	2	79	mem	lib	mod	mod	low	tg	ht	wh/0131.bmp
541.44	0.72	743	5	2	78	mem	lib	mod	mod	low	nt	ht	nh/0236_nh.bmp
542.16	0.72	744	4	3	107	mem	con	mod	mod	mod	nt	ht	nh/0674_nh.bmp
542.88	0.72	745	6	4	20	per	lib	mod	mod	mod	tg	ht	wh/0137.bmp
543.60	0.72	746	1	3	23	per	lib	low	low	low	nt	fa	nh/0535_nh.bmp
544.32	0.72	747	5	1	74	mem	lib	mod	mod	mod	nt	ht	nh/0445_nh.bmp
545.04	0.72	748	4	2	81	mem	con	mod	mod	mod	tg	ms	wh/0039.bmp
545.76	0.72	749	5	2	20	per	con	mod	mod	mod	nt	cr	nh/0072_nh.bmp
546.48	0.72	750	1	3	71	per	lib	mod	low	mod	tg	ms	wh/0062.bmp
547.20	0.72	751	6	1	51	per	lib	mod	mod	mod	nt	cr	nh/0689_nh.bmp
547.92	0.72	752	6	3	48	per	con	low	mod	low	tg	ms	wh/0882.bmp
548.64	0.72	753	5	2	124	per	lib	low	mod	low	tg	ms	wh/0166.bmp
549.36	0.72	754	1	4	44	mem	lib	low	low	mod	nt	ms	nh/0858_nh.bmp
550.08	0.72	755	1	3	27	per	lib	low	low	low	tg	ms	wh/0989.bmp
550.80	0.72	756	4	4	96	mem	con	mod	mod	low	nt	ht	nh/0368_nh.bmp
551.52	0.72	757	5	3	98	mem	con	mod	mod	mod	nt	ht	nh/0583_nh.bmp
552.24	0.72	758	5	3	41	per	con	low	mod	low	tg	ms	wh/0496.bmp
552.96	0.72	759	5	4	96	mem	con	mod	mod	low	nt	ht	nh/0368_nh.bmp
553.68	0.72	760	5	2	126	per	lib	low	mod	low	nt	cr	nh/0081_nh.bmp
554.40	0.72	761	6	4	50	mem	lib	mod	mod	low	nt	ht	nh/1013_nh.bmp
555.12	0.72	762	5	1	77	mem	lib	mod	mod	mod	tg	ht	wh/0151.bmp
555.84	0.72	763	6	1	11	mem	con	mod	mod	low	tg	ht	wh/0792.bmp
556.56	0.72	764	4	1	10	mem	con	mod	mod	low	nt	ht	nh/0174_nh.bmp
557.28	0.72	765	5	2	89	mem	con	mod	mod	mod	nt	ht	nh/0834_nh.bmp
558.00	0.72	766	5	1	80	mem	lib	mod	mod	mod	nt	ht	nh/0753_nh.bmp
558.72	0.72	767	5	2	86	mem	con	mod	mod	mod	tg	ms	wh/0809.bmp
559.44	0.72	768	6	1	68	mem	lib	mod	mod	mod	nt	ht	nh/0282_nh.bmp
560.16	0.72	769	1	2	6	per	lib	mod	low	mod	nt	cr	nh/0498_nh.bmp
560.88	0.72	770	6	4	87	mem	con	mod	mod	low	nt	ms	nh/0386_nh.bmp
561.60	0.72	771	6	3	106	mem	con	mod	mod	mod	tg	ht	wh/0983.bmp
562.32	0.72	772	1	3	2	mem	lib	low	low	low	nt	ht	nh/0504_nh.bmp
563.04	0.72	773	5	4	75	per	con	mod	mod	mod	nt	cr	nh/0331_nh.bmp
563.76	0.72	774	6	3	60	mem	lib	mod	mod	mod	nt	ht	nh/0576_nh.bmp
564.48	0.72	775	1	2	16	per	lib	mod	low	mod	tg	ht	wh/0937.bmp
565.20	0.72	776	5	4	64	mem	lib	mod	mod	low	tg	ht	wh/0415.bmp
565.92	0.72	777	6	4	32	per	lib	mod	mod	mod	tg	ht	wh/0961.bmp
566.64	0.72	778	6	2	68	mem	lib	mod	mod	low	nt	ht	nh/0424_nh.bmp
567.36	0.72	779	6	2	85	mem	con	mod	mod	mod	nt	ht	nh/0358_nh.bmp
568.08	0.72	780	5	1	10	mem	con	mod	mod	low	nt	ht	nh/0174_nh.bmp
568.80	0.72	781	1	1	27	per	con	mod	low	mod	tg	ht	wh/0993.bmp
569.52	0.72	782	5	2	81	mem	con	mod	mod	mod	tg	ms	wh/0039.bmp
570.24	0.72	783	6	2	65	mem	lib	mod	mod	low	tg	ht	wh/0523.bmp
570.96	0.72	784	5	1	1	mem	con	mod	mod	low	nt	ht	nh/0067_nh.bmp
571.68	0.72	785	5	1	16	mem	con	mod	mod	low	nt	ht	nh/0643_nh.bmp
572.40	0.72	786	6	1	50	per	lib	mod	mod	mod	tg	ht	wh/0895.bmp
573.12	0.72	787	4	1	114	per	con	low	mod	low	tg	ms	wh/0703.bmp
573.84	0.72	788	6	1	80	mem	lib	mod	mod	mod	nt	ht	nh/0753_nh.bmp
574.56	0.72	789	1	4	41	mem	lib	low	low	mod	nt	ms	nh/0719_nh.bmp
575.28	0.72	790	1	3	126	mem	con	low	low	mod	nt	ht	nh/0050_nh.bmp
576.00	0.72	791	6	4	64	mem	lib	mod	mod	low	tg	ht	wh/0415.bmp
576.72	0.72	792	5	4	27	per	lib	mod	mod	mod	nt	cr	nh/0279_nh.bmp
577.44	0.72	793	5	2	120	per	lib	low	mod	low	nt	cr	nh/0315_nh.bmp
578.16	0.72	794	6	1	63	per	lib	mod	mod	mod	nt	cr	nh/0479_nh.bmp
578.88	0.72	795	6	3	98	mem	con	mod	mod	mod	nt	ht	nh/0583_nh.bmp
579.60	0.72	796	5	1	122	per	con	low	mod	low	tg	ms	wh/0641.bmp
580.32	0.72	797	6	3	56	mem	lib	mod	mod	mod	nt	ht	nh/1006_nh.bmp
581.04	0.72	798	6	2	20	per	con	mod	mod	mod	nt	cr	nh/0072_nh.bmp
581.76	0.72	799	3	2	90	mem	con	mod	mod	mod	nt	ht	nh/0344_nh.bmp
582.48	0.72	800	6	1	52	per	lib	mod	mod	mod	tg	ht	wh/0448.bmp
583.20	0.72	801	6	2	86	mem	con	mod	mod	mod	tg	ms	wh/0809.bmp
583.92	0.72	802	6	4	96	mem	con	mod	mod	low	nt	ht	nh/0368_nh.bmp
584.64	0.72	803	1	1	28	per	con	mod	low	mod	tg	ht	wh/0557.bmp
585.36	0.72	804	6	1	60	per	lib	mod	mod	mod	tg	ht	wh/0229.bmp
586.08	0.72	805	1	3	83	per	con	mod	low	mod	nt	cr	nh/0917_nh.bmp
586.80	0.72	806	1	3	94	per	con	mod	low	mod	nt	cr	nh/0517_nh.bmp
587.52	0.72	807	5	4	22	per	lib	mod	mod	mod	tg	ht	wh/0796.bmp
588.24	0.72	808	6	2	79	mem	lib	mod	mod	low	tg	ht	wh/0131.bmp
588.96	0.72	809	6	4	62	mem	lib	mod	mod	low	tg	ht	wh/0295.bmp
589.68	0.72	810	6	1	122	per	con	low	mod	low	tg	ms	wh/0641.bmp
590.40	0.72	811	5	1	66	mem	lib	mod	mod	mod	tg	ht	wh/0343.bmp
591.12	0.72	812	6	1	69	mem	lib	mod	mod	mod	tg	ht	wh/0705.bmp
591.84	0.72	813	6	1	77	mem	lib	mod	mod	mod	tg	ht	wh/0151.bmp
592.56	0.72	814	6	2	89	mem	con	mod	mod	mod	nt	ht	nh/0834_nh.bmp
593.28	0.72	815	6	1	123	per	con	low	mod	low	tg	ms	wh/0132.bmp
594.00	0.72	816	5	1	113	per	con	low	mod	low	nt	fa	nh/0283_nh.bmp
594.72	0.72	817	5	4	31	per	lib	mod	mod	mod	tg	ht	wh/0738.bmp
595.44	0.72	818	6	1	113	per	con	low	mod	low	nt	fa	nh/0283_nh.bmp
596.16	0.72	819	5	3	107	mem	con	mod	mod	mod	nt	ht	nh/0674_nh.bmp
596.88	0.72	820	5	4	60	mem	lib	mod	mod	low	nt	ht	nh/0007_nh.bmp
597.60	0.72	821	4	2	90	mem	con	mod	mod	mod	nt	ht	nh/0344_nh.bmp
598.32	0.72	822	6	4	22	per	lib	mod	mod	mod	tg	ht	wh/0796.bmp
599.04	0.72	823	5	1	114	per	con	low	mod	low	tg	ms	wh/0703.bmp
599.76	0.72	824	5	2	90	mem	con	mod	mod	mod	nt	ht	nh/0344_nh.bmp
600.48	0.72	825	6	1	114	per	con	low	mod	low	tg	ms	wh/0703.bmp
601.20	0.72	826	6	4	102	per	lib	low	mod	low	nt	cr	nh/0438_nh.bmp
601.92	0.72	827	6	1	120	per	con	low	mod	low	nt	fa	nh/0195_nh.bmp
602.64	0.72	828	1	3	29	per	lib	low	low	low	nt	cr	nh/0160_nh.bmp
603.36	0.72	829	5	3	111	mem	con	mod	mod	mod	nt	ht	nh/0970_nh.bmp
604.08	0.72	830	6	2	76	mem	lib	mod	mod	low	nt	ht	nh/0798_nh.bmp
604.80	0.72	831	6	4	60	mem	lib	mod	mod	low	nt	ht	nh/0007_nh.bmp
605.52	0.72	832	6	1	66	mem	lib	mod	mod	mod	tg	ht	wh/0343.bmp
606.24	0.72	833	6	3	46	per	con	low	mod	low	nt	cr	nh/0672_nh.bmp
606.96	0.72	834	5	2	93	mem	con	mod	mod	mod	tg	ht	wh/0861.bmp
607.68	0.72	835	6	2	28	per	con	mod	mod	mod	nt	cr	nh/0061_nh.bmp
608.40	0.72	836	5	2	115	per	lib	low	mod	low	tg	ms	wh/0410.bmp
609.12	0.72	837	6	2	21	per	con	mod	mod	mod	tg	ms	wh/0365.bmp
609.84	0.72	838	6	1	76	mem	lib	mod	mod	mod	tg	ht	wh/0538.bmp
610.56	0.72	839	5	2	31	per	con	mod	mod	mod	nt	cr	nh/0943_nh.bmp
611.28	0.72	840	1	1	96	mem	con	low	low	mod	tg	ht	wh/0192.bmp
612.00	0.72	841	1	1	89	mem	con	low	low	mod	nt	ms	nh/0304_nh.bmp
612.72	0.72	842	6	2	126	per	lib	low	mod	low	nt	cr	nh/0081_nh.bmp
613.44	0.72	843	6	4	54	mem	lib	mod	mod	low	tg	ht	wh/0312.bmp
614.16	0.72	844	6	1	14	mem	con	mod	mod	low	tg	ht	wh/0976.bmp
614.88	0.72	845	1	2	99	mem	lib	low	low	low	nt	ht	nh/0171_nh.bmp
615.60	0.72	846	1	4	35	mem	lib	low	low	mod	tg	ms	wh/0547.bmp
616.32	0.72	847	6	2	115	per	lib	low	mod	low	tg	ms	wh/0410.bmp
617.04	0.72	848	5	2	17	per	con	mod	mod	mod	nt	cr	nh/0427_nh.bmp
617.76	0.72	849	6	2	17	per	con	mod	mod	mod	nt	cr	nh/0427_nh.bmp
618.48	0.72	850	6	1	115	per	con	low	mod	low	nt	cr	nh/0400_nh.bmp
619.20	0.72	851	6	2	90	mem	con	mod	mod	mod	nt	ht	nh/0344_nh.bmp
619.92	0.72	852	6	2	124	per	lib	low	mod	low	tg	ms	wh/0166.bmp
620.64	0.72	853	6	1	16	mem	con	mod	mod	low	nt	ht	nh/0643_nh.bmp
621.36	0.72	854	6	4	49	mem	lib	mod	mod	low	tg	ms	wh/0444.bmp
622.08	0.72	855	1	2	4	per	lib	mod	low	mod	tg	ht	wh/0985.bmp
622.80	0.72	856	1	2	54	mem	con	low	low	low	nt	ht	nh/0271_nh.bmp
623.52	0.72	857	6	4	72	per	con	mod	mod	mod	tg	ht	wh/0799.bmp
624.24	0.72	858	1	4	5	mem	con	low	low	low	tg	ht	wh/0335.bmp
624.96	0.72	859	6	4	78	per	con	mod	mod	mod	tg	ht	wh/0333.bmp
625.68	0.72	860	1	2	46	per	con	low	low	low	nt	cr	nh/0720_nh.bmp
626.40	0.72	861	6	3	111	mem	con	mod	mod	mod	nt	ht	nh/0970_nh.bmp
627.12	0.72	862	6	1	125	per	con	low	mod	low	tg	ms	wh/0454.bmp
627.84	0.72	863	6	2	72	mem	lib	mod	mod	low	tg	ht	wh/0291.bmp
628.56	0.72	864	6	3	43	per	con	low	mod	low	nt	cr	nh/0259_nh.bmp
629.28	0.72	865	5	3	110	mem	con	mod	mod	mod	tg	ms	wh/0413.bmp
630.00	0.72	866	6	3	110	mem	con	mod	mod	mod	tg	ms	wh/0413.bmp
630.72	0.72	867	6	1	1	mem	con	mod	mod	low	nt	ht	nh/0067_nh.bmp
631.44	0.72	868	6	3	62	mem	lib	mod	mod	mod	tg	ht	wh/0742.bmp
632.16	0.72	869	6	1	15	mem	con	mod	mod	low	tg	ht	wh/0512.bmp
632.88	0.72	870	4	3	40	per	con	low	mod	low	tg	ms	wh/0212.bmp
633.60	0.72	871	6	4	31	per	lib	mod	mod	mod	tg	ht	wh/0738.bmp
634.32	0.72	872	5	3	40	per	con	low	mod	low	tg	ms	wh/0212.bmp
635.04	0.72	873	6	3	107	mem	con	mod	mod	mod	nt	ht	nh/0674_nh.bmp
635.76	0.72	874	6	2	93	mem	con	mod	mod	mod	tg	ht	wh/0861.bmp
636.48	0.72	875	6	4	21	per	lib	mod	mod	mod	nt	cr	nh/0665_nh.bmp
637.20	0.72	876	6	3	40	per	con	low	mod	low	tg	ms	wh/0212.bmp
637.92	0.72	877	1	3	5	mem	lib	low	low	low	tg	ht	wh/0211.bmp
638.64	0.72	878	6	1	9	mem	con	mod	mod	low	nt	ht	nh/0757_nh.bmp
639.36	0.72	879	6	2	31	per	con	mod	mod	mod	nt	cr	nh/0943_nh.bmp
640.08	0.72	880	6	3	38	per	con	low	mod	low	nt	cr	nh/0422_nh.bmp
640.80	0.72	881	6	1	74	mem	lib	mod	mod	mod	nt	ht	nh/0445_nh.bmp
641.52	0.72	882	6	2	81	mem	con	mod	mod	mod	tg	ms	wh/0039.bmp
642.24	0.72	883	6	3	41	per	con	low	mod	low	tg	ms	wh/0496.bmp
642.96	0.72	884	6	4	75	per	con	mod	mod	mod	nt	cr	nh/0331_nh.bmp
643.68	0.72	885	6	3	99	mem	con	mod	mod	mod	nt	ht	nh/0348_nh.bmp
644.40	0.72	886	6	1	10	mem	con	mod	mod	low	nt	ht	nh/0174_nh.bmp
645.12	0.72	887	6	3	42	per	con	low	mod	low	tg	ms	wh/0302.bmp
645.84	0.72	888	6	4	27	per	lib	mod	mod	mod	nt	cr	nh/0279_nh.bmp
646.56	0.72	889	6	1	65	mem	lib	mod	mod	mod	nt	ht	nh/0490_nh.bmp
647.28	0.72	890	6	4	23	per	lib	mod	mod	mod	nt	cr	nh/0925_nh.bmp
648.00	0.72	891	1	4	116	per	con	low	low	low	tg	ms	wh/0471.bmp
648.72	0.72	892	6	2	120	per	lib	low	mod	low	nt	cr	nh/0315_nh.bmp
649.44	0.72	893	6	2	78	mem	lib	mod	mod	low	nt	ht	nh/0236_nh.bmp
650.16	0.72	894	6	4	29	per	lib	mod	mod	mod	nt	cr	nh/0645_nh.bmp
650.88	0.72	895	1	3	117	mem	con	low	low	mod	tg	ms	wh/0913.bmp
651.60	0.72	896	6	4	86	mem	con	mod	mod	low	tg	ht	wh/0661.bmp
