onset	duration	block	trial	task	crit	disc	mem_disc	per_disc	trial_type	mem_type	per_type	left_option	resp_hand	response	accuracy	response_time	stim_file	pay	pay_tot
7.2	7.2	1	n/a	mem	lib	mod	n/a	n/a	instructions	n/a	n/a	n/a	n/a	n/a	n/a	n/a	n/a	n/a	n/a
15.44	2.0008	1	1	mem	lib	mod	mod	low	nt	nt	nt	nt	right	tg	fa	1.6008	nh/0312_nh.bmp	0	0
19.76	1.0568	1	2	mem	lib	mod	mod	low	tg	tg	nt	nt	right	tg	ht	0.6568	nh/0733_nh.bmp	0.05	0.05
22.64	1.4208	1	3	mem	lib	mod	mod	low	tg	tg	tg	tg	right	nt	ms	1.0208	wh/0675.bmp	-0.1	-0.05
25.52	1.20076	1	4	mem	lib	mod	mod	low	nt	nt	nt	nt	left	nt	cr	0.80076	nh/0444_nh.bmp	0.05	0
29.12	1.5049	1	5	mem	lib	mod	mod	low	tg	tg	nt	tg	left	tg	ht	1.1049	nh/0421_nh.bmp	0.05	0.05
32.72	1.7129	1	6	mem	lib	mod	mod	low	nt	nt	nt	tg	left	tg	fa	1.3129	nh/0415_nh.bmp	0	0.05
35.6	1.39777	1	7	mem	lib	mod	mod	low	nt	nt	tg	tg	left	tg	fa	0.99777	wh/1013.bmp	0	0.05
38.48	1.14384	1	8	mem	lib	mod	mod	low	tg	tg	tg	nt	right	tg	ht	0.74384	wh/0217.bmp	0.05	0.1
41.36	1.834	1	9	mem	lib	mod	mod	low	nt	nt	tg	tg	left	tg	fa	1.434	wh/0791.bmp	0	0.1
44.24	1.9488	1	10	mem	lib	mod	mod	low	nt	nt	tg	tg	right	nt	cr	1.5488	wh/0007.bmp	0.05	0.15
47.12	1.18981	1	11	mem	lib	mod	mod	low	tg	tg	nt	nt	right	tg	ht	0.78981	nh/0341_nh.bmp	0.05	0.2
50	1.7128	1	12	mem	lib	mod	mod	low	nt	nt	tg	tg	left	tg	fa	1.3128	wh/0494.bmp	0	0.2
52.88	1.5817	1	13	mem	lib	mod	mod	low	tg	tg	tg	tg	left	tg	ht	1.1817	wh/0739.bmp	0.05	0.25
55.76	1.5508	1	14	mem	lib	mod	mod	low	nt	nt	nt	tg	left	tg	fa	1.1508	nh/0295_nh.bmp	0	0.25
59.36	1.5248	1	15	mem	lib	mod	mod	low	tg	tg	nt	nt	right	tg	ht	1.1248	nh/0868_nh.bmp	0.05	0.3
62.96	1.0552	1	16	mem	lib	mod	mod	low	tg	tg	tg	nt	right	tg	ht	0.6552	wh/0177.bmp	0.05	0.35
66.96	3.6	1	n/a	mem	lib	mod	n/a	n/a	feedback	n/a	n/a	n/a	n/a	n/a	n/a	n/a	n/a	n/a	n/a
70.56	7.2	2	n/a	per	lib	mod	n/a	n/a	instructions	n/a	n/a	n/a	n/a	n/a	n/a	n/a	n/a	n/a	n/a
78.8	2.1157	2	17	per	lib	mod	mod	mod	nt	nt	nt	nt	left	nt	cr	1.7157	nh/0738_nh.bmp	0.05	0.4
83.12	1.30376	2	18	per	lib	mod	mod	mod	tg	nt	tg	nt	right	tg	ht	0.90376	wh/0665.bmp	0.05	0.45
86	1.4489	2	19	per	lib	mod	mod	mod	tg	tg	tg	tg	left	tg	ht	1.0489	wh/0429.bmp	0.05	0.5
88.88	1.33674	2	20	per	lib	mod	mod	mod	nt	tg	nt	nt	right	tg	fa	0.93674	nh/0899_nh.bmp	0	0.5
91.76	1.4629	2	21	per	lib	mod	mod	mod	tg	nt	tg	nt	right	tg	ht	1.0629	wh/0645.bmp	0.05	0.55
94.64	1.16271	2	22	per	lib	mod	mod	mod	tg	tg	tg	tg	left	tg	ht	0.76271	wh/0627.bmp	0.05	0.6
98.96	1.28574	2	23	per	lib	mod	mod	mod	nt	tg	nt	tg	right	nt	cr	0.88574	nh/0658_nh.bmp	0.05	0.65
101.84	1.07901	2	24	per	lib	mod	mod	mod	tg	nt	tg	nt	right	tg	ht	0.67901	wh/0925.bmp	0.05	0.7
104.72	1.6098	2	25	per	lib	mod	mod	mod	nt	nt	nt	tg	right	nt	cr	1.2098	nh/0796_nh.bmp	0.05	0.75
108.32	1.37995	2	26	per	lib	mod	mod	mod	tg	tg	tg	nt	right	tg	ht	0.97995	wh/0692.bmp	0.05	0.8
111.92	1.12378	2	27	per	lib	mod	mod	mod	tg	nt	tg	nt	right	tg	ht	0.72378	wh/0279.bmp	0.05	0.85
115.52	1.475	2	28	per	lib	mod	mod	mod	nt	tg	nt	nt	left	nt	cr	1.075	nh/0289_nh.bmp	0.05	0.9
119.12	1.8509	2	29	per	lib	mod	mod	mod	nt	nt	nt	tg	left	tg	fa	1.4509	nh/0137_nh.bmp	0	0.9
122.72	1.32599	2	30	per	lib	mod	mod	mod	tg	tg	tg	nt	right	tg	ht	0.92599	wh/0098.bmp	0.05	0.95
126.32	1.5659	2	31	per	lib	mod	mod	mod	nt	tg	nt	tg	left	tg	fa	1.1659	nh/0621_nh.bmp	0	0.95
130.64	1.4418	2	32	per	lib	mod	mod	mod	nt	nt	nt	tg	right	nt	cr	1.0418	nh/0961_nh.bmp	0.05	1
133.2	3.6	2	n/a	per	lib	mod	n/a	n/a	feedback	n/a	n/a	n/a	n/a	n/a	n/a	n/a	n/a	n/a	n/a
136.8	7.2	3	n/a	per	lib	low	n/a	n/a	instructions	n/a	n/a	n/a	n/a	n/a	n/a	n/a	n/a	n/a	n/a
144.32	1.638	3	33	per	lib	low	low	low	tg	nt	tg	tg	left	tg	ht	1.238	wh/0160.bmp	0.05	1.05
147.92	1.9779	3	34	per	lib	low	low	low	nt	tg	nt	nt	right	tg	fa	1.5779	nh/0722_nh.bmp	0	1.05
151.52	1.09646	3	35	per	lib	low	low	low	tg	tg	tg	nt	right	tg	ht	0.69646	wh/0662.bmp	0.05	1.1
155.84	1.4328	3	36	per	lib	low	low	low	tg	tg	tg	tg	right	nt	ms	1.0328	wh/0777.bmp	-0.1	1
159.44	2.2848	3	37	per	lib	low	low	low	tg	nt	tg	nt	right	tg	ht	1.8848	wh/0078.bmp	0.05	1.05
162.32	1.4639	3	38	per	lib	low	low	low	nt	nt	nt	nt	right	tg	fa	1.0639	nh/0989_nh.bmp	0	1.05
165.2	1.38094	3	39	per	lib	low	low	low	nt	tg	nt	tg	right	nt	cr	0.98094	nh/0191_nh.bmp	0.05	1.1
169.52	1.5348	3	40	per	lib	low	low	low	nt	nt	nt	tg	left	tg	fa	1.1348	nh/0916_nh.bmp	0	1.1
172.4	1.441	3	41	per	lib	low	low	low	tg	nt	tg	tg	left	tg	ht	1.041	wh/0535.bmp	0.05	1.15
176.72	1.36489	3	42	per	lib	low	low	low	tg	tg	tg	nt	right	tg	ht	0.96489	wh/0788.bmp	0.05	1.2
179.6	2.1699	3	43	per	lib	low	low	low	tg	tg	tg	tg	right	nt	ms	1.7699	wh/0122.bmp	-0.1	1.1
183.2	2.0709	3	44	per	lib	low	low	low	nt	tg	nt	nt	right	tg	fa	1.6709	nh/0654_nh.bmp	0	1.1
186.08	1.8139	3	45	per	lib	low	low	low	nt	nt	nt	tg	right	nt	cr	1.4139	nh/0169_nh.bmp	0.05	1.15
189.68	2.1619	3	46	per	lib	low	low	low	tg	nt	tg	nt	right	tg	ht	1.7619	wh/0250.bmp	0.05	1.2
192.56	1.28088	3	47	per	lib	low	low	low	nt	nt	nt	nt	right	tg	fa	0.88088	nh/0357_nh.bmp	0	1.2
195.44	2.0427	3	48	per	lib	low	low	low	nt	tg	nt	tg	left	tg	fa	1.6427	nh/0257_nh.bmp	0	1.2
198	3.6	3	n/a	per	lib	low	n/a	n/a	feedback	n/a	n/a	n/a	n/a	n/a	n/a	n/a	n/a	n/a	n/a
202.32	7.2	4	n/a	mem	con	low	n/a	n/a	instructions	n/a	n/a	n/a	n/a	n/a	n/a	n/a	n/a	n/a	n/a
211.28	1.5297	4	49	mem	con	low	low	low	nt	nt	nt	nt	left	nt	cr	1.1297	nh/0783_nh.bmp	0.05	1.25
214.88	1.6708	4	50	mem	con	low	low	low	nt	nt	nt	tg	right	nt	cr	1.2708	nh/0110_nh.bmp	0.05	1.3
217.76	1.5619	4	51	mem	con	low	low	low	tg	tg	tg	tg	right	nt	ms	1.1619	wh/0140.bmp	0	1.3
220.64	1.5668	4	52	mem	con	low	low	low	nt	nt	tg	nt	left	nt	cr	1.1668	wh/0161.bmp	0.05	1.35
223.52	1.6147	4	53	mem	con	low	low	low	tg	tg	nt	nt	left	nt	ms	1.2147	nh/0456_nh.bmp	0	1.35
227.84	1.26191	4	54	mem	con	low	low	low	tg	tg	nt	tg	right	nt	ms	0.86191	nh/0354_nh.bmp	0	1.35
230.72	1.36492	4	55	mem	con	low	low	low	tg	tg	nt	nt	right	tg	ht	0.96492	nh/0522_nh.bmp	0.05	1.4
233.6	1.7608	4	56	mem	con	low	low	low	nt	nt	tg	tg	left	tg	fa	1.3608	wh/0010.bmp	-0.1	1.3
237.92	1.3127	4	57	mem	con	low	low	low	nt	nt	tg	tg	right	nt	cr	0.9127	wh/0167.bmp	0.05	1.35
241.52	1.7429	4	58	mem	con	low	low	low	tg	tg	nt	tg	right	nt	ms	1.3429	nh/1001_nh.bmp	0	1.35
244.4	1.7919	4	59	mem	con	low	low	low	tg	tg	tg	tg	right	nt	ms	1.3919	wh/0054.bmp	0	1.35
247.28	1.3098	4	60	mem	con	low	low	low	tg	tg	tg	tg	right	nt	ms	0.9098	wh/0685.bmp	0	1.35
250.88	2.0868	4	61	mem	con	low	low	low	nt	nt	tg	nt	left	nt	cr	1.6868	wh/0369.bmp	0.05	1.4
254.48	1.31471	4	62	mem	con	low	low	low	nt	nt	nt	nt	left	nt	cr	0.91471	nh/0327_nh.bmp	0.05	1.45
257.36	1.818	4	63	mem	con	low	low	low	tg	tg	tg	tg	left	tg	ht	1.418	wh/0362.bmp	0.05	1.5
260.24	1.22992	4	64	mem	con	low	low	low	nt	nt	nt	tg	right	nt	cr	0.82992	nh/0335_nh.bmp	0.05	1.55
264.24	3.6	4	n/a	mem	con	low	n/a	n/a	feedback	n/a	n/a	n/a	n/a	n/a	n/a	n/a	n/a	n/a	n/a
268.56	7.2	5	n/a	mem	lib	low	n/a	n/a	instructions	n/a	n/a	n/a	n/a	n/a	n/a	n/a	n/a	n/a	n/a
276.8	1.2689	5	65	mem	lib	low	low	low	nt	nt	tg	tg	left	tg	fa	0.8689	wh/0107.bmp	0	1.55
279.68	1.5597	5	66	mem	lib	low	low	low	nt	nt	tg	tg	left	tg	fa	1.1597	wh/0504.bmp	0	1.55
282.56	1.4518	5	67	mem	lib	low	low	low	nt	nt	nt	nt	left	nt	cr	1.0518	nh/0524_nh.bmp	0.05	1.6
286.16	1.4798	5	68	mem	lib	low	low	low	nt	nt	tg	tg	right	nt	cr	1.0798	wh/0828.bmp	0.05	1.65
290.48	1.9699	5	69	mem	lib	low	low	low	tg	tg	nt	nt	left	nt	ms	1.5699	nh/0028_nh.bmp	-0.1	1.55
293.36	1.06475	5	70	mem	lib	low	low	low	tg	tg	tg	nt	right	tg	ht	0.66475	wh/0057.bmp	0.05	1.6
296.24	1.8039	5	71	mem	lib	low	low	low	tg	tg	tg	tg	left	tg	ht	1.4039	wh/0682.bmp	0.05	1.65
299.12	2.1417	5	72	mem	lib	low	low	low	nt	nt	nt	tg	left	tg	fa	1.7417	nh/0363_nh.bmp	0	1.65
303.44	1.8127	5	73	mem	lib	low	low	low	tg	tg	tg	tg	right	nt	ms	1.4127	wh/0709.bmp	-0.1	1.55
306.32	1.33999	5	74	mem	lib	low	low	low	tg	tg	nt	nt	right	tg	ht	0.93999	nh/0771_nh.bmp	0.05	1.6
309.2	1.32093	5	75	mem	lib	low	low	low	tg	tg	nt	nt	right	tg	ht	0.92093	nh/0142_nh.bmp	0.05	1.65
312.8	1.8417	5	76	mem	lib	low	low	low	nt	nt	nt	tg	right	nt	cr	1.4417	nh/0245_nh.bmp	0.05	1.7
316.4	1.2399	5	77	mem	lib	low	low	low	nt	nt	nt	nt	right	tg	fa	0.8399	nh/0211_nh.bmp	0	1.7
320.72	1.4437	5	78	mem	lib	low	low	low	tg	tg	nt	tg	left	tg	ht	1.0437	nh/0862_nh.bmp	0.05	1.75
324.32	1.6699	5	79	mem	lib	low	low	low	tg	tg	tg	nt	left	nt	ms	1.2699	wh/0614.bmp	-0.1	1.65
327.2	1.4729	5	80	mem	lib	low	low	low	nt	nt	tg	nt	right	tg	fa	1.0729	wh/0908.bmp	0	1.65
329.76	3.6	5	n/a	mem	lib	low	n/a	n/a	feedback	n/a	n/a	n/a	n/a	n/a	n/a	n/a	n/a	n/a	n/a
334.8	7.2	6	n/a	per	con	mod	n/a	n/a	instructions	n/a	n/a	n/a	n/a	n/a	n/a	n/a	n/a	n/a	n/a
343.04	1.8637	6	81	per	con	mod	mod	mod	tg	nt	tg	nt	left	nt	ms	1.4637	wh/0097.bmp	0	1.65
346.64	1.4059	6	82	per	con	mod	mod	mod	nt	nt	nt	tg	right	nt	cr	1.0059	nh/0628_nh.bmp	0.05	1.7
350.24	1.6978	6	83	per	con	mod	mod	mod	nt	nt	nt	nt	right	tg	fa	1.2978	nh/0333_nh.bmp	-0.1	1.6
354.56	1.05539	6	84	per	con	mod	mod	mod	nt	tg	nt	nt	left	nt	cr	0.65539	nh/0414_nh.bmp	0.05	1.65
358.16	1.4167	6	85	per	con	mod	mod	mod	tg	nt	tg	tg	right	nt	ms	1.0167	wh/0313.bmp	0	1.65
361.76	1.16172	6	86	per	con	mod	mod	mod	nt	nt	nt	nt	left	nt	cr	0.76172	nh/0562_nh.bmp	0.05	1.7
364.64	1.34195	6	87	per	con	mod	mod	mod	nt	tg	nt	nt	left	nt	cr	0.94195	nh/0801_nh.bmp	0.05	1.75
368.96	1.16394	6	88	per	con	mod	mod	mod	tg	nt	tg	nt	right	tg	ht	0.76394	wh/0359.bmp	0.05	1.8
373.28	1.22072	6	89	per	con	mod	mod	mod	nt	tg	nt	nt	left	nt	cr	0.82072	nh/0391_nh.bmp	0.05	1.85
376.16	1.20394	6	90	per	con	mod	mod	mod	tg	tg	tg	tg	left	tg	ht	0.80394	wh/0534.bmp	0.05	1.9
379.76	2.189	6	91	per	con	mod	mod	mod	tg	nt	tg	tg	left	tg	ht	1.789	wh/0331.bmp	0.05	1.95
383.36	1.39099	6	92	per	con	mod	mod	mod	tg	tg	tg	tg	left	tg	ht	0.99099	wh/0466.bmp	0.05	2
387.68	1.25885	6	93	per	con	mod	mod	mod	nt	nt	nt	nt	left	nt	cr	0.85885	nh/0799_nh.bmp	0.05	2.05
392	2.1467	6	94	per	con	mod	mod	mod	nt	tg	nt	tg	left	tg	fa	1.7467	nh/0605_nh.bmp	-0.1	1.95
394.88	1.6087	6	95	per	con	mod	mod	mod	tg	tg	tg	nt	right	tg	ht	1.2087	wh/0681.bmp	0.05	2
397.76	1.8937	6	96	per	con	mod	mod	mod	tg	tg	tg	nt	left	nt	ms	1.4937	wh/0981.bmp	0	2
401.76	3.6	6	n/a	per	con	mod	n/a	n/a	feedback	n/a	n/a	n/a	n/a	n/a	n/a	n/a	n/a	n/a	n/a
406.8	7.2	7	n/a	per	con	low	n/a	n/a	instructions	n/a	n/a	n/a	n/a	n/a	n/a	n/a	n/a	n/a	n/a
415.04	1.21989	7	97	per	con	low	low	low	tg	tg	tg	tg	right	nt	ms	0.81989	wh/0800.bmp	0	2
417.92	1.16376	7	98	per	con	low	low	low	nt	nt	nt	tg	right	nt	cr	0.76376	nh/0011_nh.bmp	0.05	2.05
420.8	1.20976	7	99	per	con	low	low	low	tg	tg	tg	tg	right	nt	ms	0.80976	wh/0889.bmp	0	2.05
423.68	1.5648	7	100	per	con	low	low	low	nt	tg	nt	nt	left	nt	cr	1.1648	nh/0407_nh.bmp	0.05	2.1
426.56	1.432	7	101	per	con	low	low	low	nt	nt	nt	tg	right	nt	cr	1.032	nh/0471_nh.bmp	0.05	2.15
430.88	1.2157	7	102	per	con	low	low	low	nt	tg	nt	tg	left	tg	fa	0.8157	nh/0307_nh.bmp	-0.1	2.05
433.76	1.4778	7	103	per	con	low	low	low	tg	nt	tg	tg	left	tg	ht	1.0778	wh/0911.bmp	0.05	2.1
437.36	1.01445	7	104	per	con	low	low	low	nt	nt	nt	tg	right	nt	cr	0.61445	nh/0184_nh.bmp	0.05	2.15
440.24	1.5729	7	105	per	con	low	low	low	nt	nt	nt	nt	left	nt	cr	1.1729	nh/0987_nh.bmp	0.05	2.2
443.12	1.4609	7	106	per	con	low	low	low	nt	tg	nt	tg	right	nt	cr	1.0609	nh/0210_nh.bmp	0.05	2.25
446.72	1.2288	7	107	per	con	low	low	low	tg	nt	tg	tg	right	nt	ms	0.8288	wh/0375.bmp	0	2.25
449.6	1.35091	7	108	per	con	low	low	low	tg	nt	tg	tg	right	nt	ms	0.95091	wh/0309.bmp	0	2.25
452.48	1.07801	7	109	per	con	low	low	low	tg	tg	tg	tg	left	tg	ht	0.67801	wh/0464.bmp	0.05	2.3
455.36	1.6849	7	110	per	con	low	low	low	tg	nt	tg	nt	left	nt	ms	1.2849	wh/0505.bmp	0	2.3
458.24	1.6439	7	111	per	con	low	low	low	nt	tg	nt	nt	left	nt	cr	1.2439	nh/0065_nh.bmp	0.05	2.35
462.56	1.6528	7	112	per	con	low	low	low	tg	tg	tg	tg	left	tg	ht	1.2528	wh/0634.bmp	0.05	2.4
465.12	3.6	7	n/a	per	con	low	n/a	n/a	feedback	n/a	n/a	n/a	n/a	n/a	n/a	n/a	n/a	n/a	n/a
470.16	7.2	8	n/a	mem	con	mod	n/a	n/a	instructions	n/a	n/a	n/a	n/a	n/a	n/a	n/a	n/a	n/a	n/a
477.68	2.0849	8	113	mem	con	mod	mod	low	tg	tg	nt	tg	right	nt	ms	1.6849	nh/0816_nh.bmp	0	2.4
480.56	1.0344	8	114	mem	con	mod	mod	low	tg	tg	nt	tg	left	tg	ht	0.6344	nh/0066_nh.bmp	0.05	2.45
484.88	1.1687	8	115	mem	con	mod	mod	low	nt	nt	nt	nt	left	nt	cr	0.7687	nh/0661_nh.bmp	0.05	2.5
489.2	1.5878	8	116	mem	con	mod	mod	low	nt	nt	tg	tg	right	nt	cr	1.1878	wh/0386.bmp	0.05	2.55
492.08	1.19877	8	117	mem	con	mod	mod	low	tg	tg	tg	tg	left	tg	ht	0.79877	wh/0377.bmp	0.05	2.6
495.68	1.01177	8	118	mem	con	mod	mod	low	tg	tg	nt	tg	left	tg	ht	0.61177	nh/0529_nh.bmp	0.05	2.65
498.56	1.4529	8	119	mem	con	mod	mod	low	tg	tg	tg	tg	left	tg	ht	1.0529	wh/0019.bmp	0.05	2.7
501.44	1.4669	8	120	mem	con	mod	mod	low	tg	tg	tg	nt	right	tg	ht	1.0669	wh/0997.bmp	0.05	2.75
504.32	1.16994	8	121	mem	con	mod	mod	low	nt	nt	nt	nt	left	nt	cr	0.76994	nh/0124_nh.bmp	0.05	2.8
508.64	1.5459	8	122	mem	con	mod	mod	low	nt	nt	tg	tg	right	nt	cr	1.1459	wh/0203.bmp	0.05	2.85
511.52	1.6299	8	123	mem	con	mod	mod	low	nt	nt	tg	nt	left	nt	cr	1.2299	wh/0323.bmp	0.05	2.9
514.4	2.0647	8	124	mem	con	mod	mod	low	tg	tg	nt	nt	left	nt	ms	1.6647	nh/0128_nh.bmp	0	2.9
518.72	1.20973	8	125	mem	con	mod	mod	low	nt	nt	nt	nt	left	nt	cr	0.80973	nh/0511_nh.bmp	0.05	2.95
522.32	1.31395	8	126	mem	con	mod	mod	low	nt	nt	tg	nt	right	tg	fa	0.91395	wh/0368.bmp	-0.1	2.85
525.2	1.26593	8	127	mem	con	mod	mod	low	nt	nt	nt	tg	right	nt	cr	0.86593	nh/0988_nh.bmp	0.05	2.9
529.52	1.20469	8	128	mem	con	mod	mod	low	tg	tg	tg	nt	right	tg	ht	0.80469	wh/0597.bmp	0.05	2.95
533.52	3.6	8	n/a	mem	con	mod	n/a	n/a	feedback	n/a	n/a	n/a	n/a	n/a	n/a	n/a	n/a	n/a	n/a
