onset	duration	trial	pres	ts_blk	ts_trl	task	crit	disc	mem_disc	per_disc	per_type	accuracy	stim_file
7.20	0.72	1	1	1	16	mem	lib	mod	mod	low	tg	ht	wh/0177.bmp
7.92	0.72	2	1	4	77	mem	lib	mod	mod	mod	nt	ht	nh/0162_nh.bmp
8.64	0.72	3	1	3	61	per	con	mod	mod	mod	tg	ht	wh/0189.bmp
9.36	0.72	4	1	3	24	per	lib	mod	mod	mod	tg	ht	wh/0100.bmp
10.08	0.72	5	1	2	59	per	lib	low	mod	low	nt	fa	nh/0769_nh.bmp
10.80	0.72	6	1	3	81	per	con	low	mod	low	tg	ms	wh/0455.bmp
11.52	0.72	7	1	4	68	mem	lib	mod	mod	mod	tg	ht	wh/0920.bmp
12.24	0.72	8	2	4	68	mem	lib	mod	mod	mod	tg	ht	wh/0920.bmp
12.96	0.72	9	1	4	47	mem	lib	low	low	mod	tg	ht	wh/0322.bmp
13.68	0.72	10	1	2	88	per	con	low	mod	low	nt	cr	nh/0156_nh.bmp
14.40	0.72	11	1	2	95	per	con	low	mod	low	nt	cr	nh/0766_nh.bmp
15.12	0.72	12	1	2	5	mem	lib	mod	mod	mod	nt	ht	nh/0580_nh.bmp
15.84	0.72	13	1	1	92	per	con	mod	mod	mod	tg	ht	wh/0466.bmp
16.56	0.72	14	1	2	58	per	lib	low	mod	low	tg	ht	wh/0251.bmp
17.28	0.72	15	1	3	67	mem	con	mod	mod	low	nt	ht	nh/0155_nh.bmp
18.00	0.72	16	2	3	24	per	lib	mod	mod	mod	tg	ht	wh/0100.bmp
18.72	0.72	17	1	1	120	mem	con	mod	mod	low	tg	ht	wh/0997.bmp
19.44	0.72	18	1	3	69	mem	con	mod	mod	low	nt	ht	nh/0435_nh.bmp
20.16	0.72	19	1	3	92	per	con	low	mod	low	nt	cr	nh/0116_nh.bmp
20.88	0.72	20	2	1	16	mem	lib	mod	mod	low	tg	ht	wh/0177.bmp
21.60	0.72	21	1	1	89	per	con	mod	mod	mod	nt	cr	nh/0391_nh.bmp
22.32	0.72	22	1	4	71	mem	lib	mod	mod	mod	tg	ht	wh/0526.bmp
23.04	0.72	23	1	3	65	mem	con	mod	mod	low	nt	ht	nh/0515_nh.bmp
23.76	0.72	24	2	2	95	per	con	low	mod	low	nt	cr	nh/0766_nh.bmp
24.48	0.72	25	1	3	49	per	con	mod	mod	mod	nt	cr	nh/0959_nh.bmp
25.20	0.72	26	1	3	103	mem	lib	mod	mod	low	tg	ht	wh/0741.bmp
25.92	0.72	27	1	2	81	per	con	low	mod	low	tg	ht	wh/0514.bmp
26.64	0.72	28	2	4	71	mem	lib	mod	mod	mod	tg	ht	wh/0526.bmp
27.36	0.72	29	1	4	23	mem	con	low	low	mod	tg	ms	wh/0296.bmp
28.08	0.72	30	1	3	118	mem	con	low	low	low	tg	ht	wh/0486.bmp
28.80	0.72	31	1	3	102	mem	lib	mod	mod	low	nt	ht	nh/0178_nh.bmp
29.52	0.72	32	1	3	107	mem	lib	mod	mod	low	nt	ht	nh/0649_nh.bmp
30.24	0.72	33	1	3	66	mem	con	mod	mod	low	tg	ht	wh/0392.bmp
30.96	0.72	34	1	4	98	per	con	low	low	low	nt	cr	nh/1012_nh.bmp
31.68	0.72	35	1	4	20	mem	con	low	low	mod	nt	ms	nh/0324_nh.bmp
32.40	0.72	36	1	2	44	mem	con	mod	mod	mod	nt	ht	nh/0001_nh.bmp
33.12	0.72	37	1	1	3	mem	lib	mod	mod	low	tg	ms	wh/0675.bmp
33.84	0.72	38	1	2	90	per	con	low	mod	low	tg	ms	wh/0145.bmp
34.56	0.72	39	1	2	94	per	con	low	mod	low	nt	cr	nh/0387_nh.bmp
35.28	0.72	40	2	3	81	per	con	low	mod	low	tg	ms	wh/0455.bmp
36.00	0.72	41	1	2	36	mem	con	mod	mod	mod	nt	ms	nh/0700_nh.bmp
36.72	0.72	42	3	3	24	per	lib	mod	mod	mod	tg	ht	wh/0100.bmp
37.44	0.72	43	1	1	90	per	con	mod	mod	mod	tg	ht	wh/0534.bmp
38.16	0.72	44	1	3	38	per	lib	low	mod	low	nt	fa	nh/0379_nh.bmp
38.88	0.72	45	1	2	12	mem	lib	mod	mod	mod	tg	ht	wh/0919.bmp
39.60	0.72	46	1	3	88	per	con	low	mod	low	nt	fa	nh/1021_nh.bmp
40.32	0.72	47	1	3	108	mem	lib	mod	mod	low	nt	ht	nh/0926_nh.bmp
41.04	0.72	48	2	3	102	mem	lib	mod	mod	low	nt	ht	nh/0178_nh.bmp
41.76	0.72	49	1	3	20	per	lib	mod	mod	mod	nt	cr	nh/0637_nh.bmp
42.48	0.72	50	1	3	31	per	lib	mod	mod	mod	tg	ms	wh/0750.bmp
43.20	0.72	51	1	4	86	mem	con	mod	mod	mod	tg	ms	wh/0841.bmp
43.92	0.72	52	2	2	12	mem	lib	mod	mod	mod	tg	ht	wh/0919.bmp
44.64	0.72	53	1	3	73	mem	con	mod	mod	low	tg	ms	wh/0163.bmp
45.36	0.72	54	1	4	37	mem	lib	low	low	mod	tg	ht	wh/0974.bmp
46.08	0.72	55	1	1	2	mem	lib	mod	mod	low	nt	ht	nh/0733_nh.bmp
46.80	0.72	56	1	1	59	mem	con	low	low	low	tg	ms	wh/0054.bmp
47.52	0.72	57	1	1	23	per	lib	mod	mod	mod	nt	cr	nh/0658_nh.bmp
48.24	0.72	58	1	4	83	mem	con	mod	mod	mod	tg	ht	wh/0204.bmp
48.96	0.72	59	1	4	69	mem	lib	mod	mod	mod	nt	ht	nh/0879_nh.bmp
49.68	0.72	60	1	1	78	mem	lib	low	low	low	nt	ht	nh/0862_nh.bmp
50.40	0.72	61	2	2	36	mem	con	mod	mod	mod	nt	ms	nh/0700_nh.bmp
51.12	0.72	62	1	1	31	per	lib	mod	mod	mod	nt	fa	nh/0621_nh.bmp
51.84	0.72	63	1	3	93	per	con	low	mod	low	nt	cr	nh/0727_nh.bmp
52.56	0.72	64	1	1	30	per	lib	mod	mod	mod	tg	ht	wh/0098.bmp
53.28	0.72	65	1	1	15	mem	lib	mod	mod	low	nt	ht	nh/0868_nh.bmp
54.00	0.72	66	1	4	72	mem	lib	mod	mod	mod	nt	ht	nh/0600_nh.bmp
54.72	0.72	67	2	3	92	per	con	low	mod	low	nt	cr	nh/0116_nh.bmp
55.44	0.72	68	1	4	62	per	lib	mod	low	mod	tg	ms	wh/0829.bmp
56.16	0.72	69	1	3	98	mem	lib	mod	mod	low	tg	ht	wh/0115.bmp
56.88	0.72	70	1	3	99	mem	lib	mod	mod	low	tg	ht	wh/0040.bmp
57.60	0.72	71	2	3	98	mem	lib	mod	mod	low	tg	ht	wh/0115.bmp
58.32	0.72	72	1	3	19	per	lib	mod	mod	mod	nt	cr	nh/0884_nh.bmp
59.04	0.72	73	1	4	91	mem	con	mod	mod	mod	nt	ms	nh/0698_nh.bmp
59.76	0.72	74	3	3	92	per	con	low	mod	low	nt	cr	nh/0116_nh.bmp
60.48	0.72	75	1	1	87	per	con	mod	mod	mod	nt	cr	nh/0801_nh.bmp
61.20	0.72	76	1	1	28	per	lib	mod	mod	mod	nt	cr	nh/0289_nh.bmp
61.92	0.72	77	1	1	22	per	lib	mod	mod	mod	tg	ht	wh/0627.bmp
62.64	0.72	78	1	1	118	mem	con	mod	mod	low	nt	ht	nh/0529_nh.bmp
63.36	0.72	79	2	2	88	per	con	low	mod	low	nt	cr	nh/0156_nh.bmp
64.08	0.72	80	1	3	57	per	con	mod	mod	mod	nt	cr	nh/0975_nh.bmp
64.80	0.72	81	1	3	37	per	lib	low	mod	low	tg	ms	wh/0105.bmp
65.52	0.72	82	2	3	93	per	con	low	mod	low	nt	cr	nh/0727_nh.bmp
66.24	0.72	83	1	3	22	per	lib	mod	mod	mod	tg	ht	wh/0183.bmp
66.96	0.72	84	1	3	122	mem	con	low	low	low	nt	ht	nh/0152_nh.bmp
67.68	0.72	85	1	2	34	mem	con	mod	mod	mod	tg	ms	wh/0642.bmp
68.40	0.72	86	1	1	26	per	lib	mod	mod	mod	tg	ht	wh/0692.bmp
69.12	0.72	87	2	3	67	mem	con	mod	mod	low	nt	ht	nh/0155_nh.bmp
69.84	0.72	88	1	2	40	mem	con	mod	mod	mod	tg	ms	wh/0984.bmp
70.56	0.72	89	2	4	86	mem	con	mod	mod	mod	tg	ms	wh/0841.bmp
71.28	0.72	90	1	4	99	per	con	low	low	low	tg	ms	wh/1022.bmp
72.00	0.72	91	1	1	117	mem	con	mod	mod	low	tg	ht	wh/0377.bmp
72.72	0.72	92	2	3	65	mem	con	mod	mod	low	nt	ht	nh/0515_nh.bmp
73.44	0.72	93	1	3	62	per	con	mod	mod	mod	tg	ht	wh/0274.bmp
74.16	0.72	94	1	3	43	per	lib	low	mod	low	nt	fa	nh/0704_nh.bmp
74.88	0.72	95	1	1	42	per	lib	low	low	low	tg	ht	wh/0788.bmp
75.60	0.72	96	1	2	83	per	con	low	mod	low	tg	ms	wh/0231.bmp
76.32	0.72	97	2	1	30	per	lib	mod	mod	mod	tg	ht	wh/0098.bmp
77.04	0.72	98	2	3	66	mem	con	mod	mod	low	tg	ht	wh/0392.bmp
77.76	0.72	99	2	1	22	per	lib	mod	mod	mod	tg	ht	wh/0627.bmp
78.48	0.72	100	1	2	60	per	lib	low	mod	low	tg	ms	wh/0624.bmp
79.20	0.72	101	2	3	22	per	lib	mod	mod	mod	tg	ht	wh/0183.bmp
79.92	0.72	102	1	1	113	mem	con	mod	mod	low	nt	ms	nh/0816_nh.bmp
80.64	0.72	103	1	3	63	per	con	mod	mod	mod	nt	cr	nh/0017_nh.bmp
81.36	0.72	104	2	3	103	mem	lib	mod	mod	low	tg	ht	wh/0741.bmp
82.08	0.72	105	1	3	18	per	lib	mod	mod	mod	nt	fa	nh/0679_nh.bmp
82.80	0.72	106	2	4	91	mem	con	mod	mod	mod	nt	ms	nh/0698_nh.bmp
83.52	0.72	107	2	3	19	per	lib	mod	mod	mod	nt	cr	nh/0884_nh.bmp
84.24	0.72	108	1	3	44	per	lib	low	mod	low	tg	ht	wh/0648.bmp
84.96	0.72	109	1	2	6	mem	lib	mod	mod	mod	tg	ht	wh/0857.bmp
85.68	0.72	110	1	1	13	mem	lib	mod	mod	low	tg	ht	wh/0739.bmp
86.40	0.72	111	1	4	67	mem	lib	mod	mod	mod	tg	ht	wh/0724.bmp
87.12	0.72	112	2	2	40	mem	con	mod	mod	mod	tg	ms	wh/0984.bmp
87.84	0.72	113	2	2	94	per	con	low	mod	low	nt	cr	nh/0387_nh.bmp
88.56	0.72	114	2	2	6	mem	lib	mod	mod	mod	tg	ht	wh/0857.bmp
89.28	0.72	115	1	4	5	per	con	mod	low	mod	tg	ht	wh/0589.bmp
90.00	0.72	116	2	1	117	mem	con	mod	mod	low	tg	ht	wh/0377.bmp
90.72	0.72	117	1	4	51	per	lib	mod	low	mod	nt	cr	nh/0910_nh.bmp
91.44	0.72	118	1	3	36	per	lib	low	mod	low	nt	fa	nh/0897_nh.bmp
92.16	0.72	119	1	4	14	per	con	mod	low	mod	tg	ht	wh/0149.bmp
92.88	0.72	120	3	2	36	mem	con	mod	mod	mod	nt	ms	nh/0700_nh.bmp
93.60	0.72	121	1	1	124	mem	con	mod	mod	low	nt	ms	nh/0128_nh.bmp
94.32	0.72	122	1	2	38	mem	con	mod	mod	mod	nt	ht	nh/0425_nh.bmp
95.04	0.72	123	1	3	28	per	lib	mod	mod	mod	tg	ht	wh/0473.bmp
95.76	0.72	124	1	4	42	mem	lib	low	low	mod	nt	ht	nh/0272_nh.bmp
96.48	0.72	125	1	3	106	mem	lib	mod	mod	low	nt	ht	nh/0014_nh.bmp
97.20	0.72	126	1	3	51	per	con	mod	mod	mod	tg	ht	wh/0405.bmp
97.92	0.72	127	3	3	66	mem	con	mod	mod	low	tg	ht	wh/0392.bmp
98.64	0.72	128	2	3	20	per	lib	mod	mod	mod	nt	cr	nh/0637_nh.bmp
99.36	0.72	129	1	2	62	per	lib	low	mod	low	tg	ms	wh/0233.bmp
100.08	0.72	130	1	3	75	mem	con	mod	mod	low	tg	ht	wh/0031.bmp
100.80	0.72	131	1	2	51	per	lib	low	mod	low	nt	cr	nh/0472_nh.bmp
101.52	0.72	132	1	1	73	mem	lib	low	low	low	tg	ms	wh/0709.bmp
102.24	0.72	133	1	3	89	per	con	low	mod	low	tg	ms	wh/0755.bmp
102.96	0.72	134	1	1	102	per	con	low	low	low	nt	fa	nh/0307_nh.bmp
103.68	0.72	135	1	2	112	per	lib	mod	low	mod	tg	ht	wh/0844.bmp
104.40	0.72	136	3	3	98	mem	lib	mod	mod	low	tg	ht	wh/0115.bmp
105.12	0.72	137	2	2	90	per	con	low	mod	low	tg	ms	wh/0145.bmp
105.84	0.72	138	1	1	19	per	lib	mod	mod	mod	tg	ht	wh/0429.bmp
106.56	0.72	139	2	3	88	per	con	low	mod	low	nt	fa	nh/1021_nh.bmp
107.28	0.72	140	3	2	6	mem	lib	mod	mod	mod	tg	ht	wh/0857.bmp
108.00	0.72	141	3	3	93	per	con	low	mod	low	nt	cr	nh/0727_nh.bmp
108.72	0.72	142	2	2	38	mem	con	mod	mod	mod	nt	ht	nh/0425_nh.bmp
109.44	0.72	143	1	1	114	mem	con	mod	mod	low	nt	ht	nh/0066_nh.bmp
110.16	0.72	144	3	4	86	mem	con	mod	mod	mod	tg	ms	wh/0841.bmp
110.88	0.72	145	2	2	59	per	lib	low	mod	low	nt	fa	nh/0769_nh.bmp
111.60	0.72	146	2	1	118	mem	con	mod	mod	low	nt	ht	nh/0529_nh.bmp
112.32	0.72	147	1	3	87	per	con	low	mod	low	tg	ms	wh/0205.bmp
113.04	0.72	148	1	3	95	per	con	low	mod	low	tg	ht	wh/0168.bmp
113.76	0.72	149	2	1	89	per	con	mod	mod	mod	nt	cr	nh/0391_nh.bmp
114.48	0.72	150	2	3	89	per	con	low	mod	low	tg	ms	wh/0755.bmp
115.20	0.72	151	3	2	94	per	con	low	mod	low	nt	cr	nh/0387_nh.bmp
115.92	0.72	152	3	1	16	mem	lib	mod	mod	low	tg	ht	wh/0177.bmp
116.64	0.72	153	3	1	22	per	lib	mod	mod	mod	tg	ht	wh/0627.bmp
117.36	0.72	154	2	3	61	per	con	mod	mod	mod	tg	ht	wh/0189.bmp
118.08	0.72	155	2	3	49	per	con	mod	mod	mod	nt	cr	nh/0959_nh.bmp
118.80	0.72	156	1	3	76	mem	con	mod	mod	low	nt	ht	nh/0133_nh.bmp
119.52	0.72	157	2	3	69	mem	con	mod	mod	low	nt	ht	nh/0435_nh.bmp
120.24	0.72	158	2	3	106	mem	lib	mod	mod	low	nt	ht	nh/0014_nh.bmp
120.96	0.72	159	2	3	57	per	con	mod	mod	mod	nt	cr	nh/0975_nh.bmp
121.68	0.72	160	1	2	23	per	con	mod	low	mod	nt	cr	nh/0103_nh.bmp
122.40	0.72	161	3	2	88	per	con	low	mod	low	nt	cr	nh/0156_nh.bmp
123.12	0.72	162	1	1	11	mem	lib	mod	mod	low	nt	ht	nh/0341_nh.bmp
123.84	0.72	163	1	2	61	per	lib	low	mod	low	nt	cr	nh/0853_nh.bmp
124.56	0.72	164	1	2	73	mem	con	low	low	mod	tg	ms	wh/0866.bmp
125.28	0.72	165	2	1	13	mem	lib	mod	mod	low	tg	ht	wh/0739.bmp
126.00	0.72	166	2	1	26	per	lib	mod	mod	mod	tg	ht	wh/0692.bmp
126.72	0.72	167	3	1	117	mem	con	mod	mod	low	tg	ht	wh/0377.bmp
127.44	0.72	168	2	1	90	per	con	mod	mod	mod	tg	ht	wh/0534.bmp
128.16	0.72	169	2	1	124	mem	con	mod	mod	low	nt	ms	nh/0128_nh.bmp
128.88	0.72	170	1	2	89	per	con	low	mod	low	tg	ms	wh/0325.bmp
129.60	0.72	171	2	4	69	mem	lib	mod	mod	mod	nt	ht	nh/0879_nh.bmp
130.32	0.72	172	2	2	44	mem	con	mod	mod	mod	nt	ht	nh/0001_nh.bmp
131.04	0.72	173	1	1	54	mem	con	low	low	low	nt	ms	nh/0354_nh.bmp
131.76	0.72	174	2	2	5	mem	lib	mod	mod	mod	nt	ht	nh/0580_nh.bmp
132.48	0.72	175	3	4	91	mem	con	mod	mod	mod	nt	ms	nh/0698_nh.bmp
133.20	0.72	176	2	1	120	mem	con	mod	mod	low	tg	ht	wh/0997.bmp
133.92	0.72	177	3	2	95	per	con	low	mod	low	nt	cr	nh/0766_nh.bmp
134.64	0.72	178	2	3	36	per	lib	low	mod	low	nt	fa	nh/0897_nh.bmp
135.36	0.72	179	2	3	63	per	con	mod	mod	mod	nt	cr	nh/0017_nh.bmp
136.08	0.72	180	2	3	38	per	lib	low	mod	low	nt	fa	nh/0379_nh.bmp
136.80	0.72	181	1	3	58	per	con	mod	mod	mod	tg	ht	wh/0775.bmp
137.52	0.72	182	3	3	67	mem	con	mod	mod	low	nt	ht	nh/0155_nh.bmp
138.24	0.72	183	3	3	38	per	lib	low	mod	low	nt	fa	nh/0379_nh.bmp
138.96	0.72	184	1	2	52	per	lib	low	mod	low	tg	ms	wh/0836.bmp
139.68	0.72	185	1	4	90	mem	con	mod	mod	mod	nt	ht	nh/0463_nh.bmp
140.40	0.72	186	1	1	119	mem	con	mod	mod	low	tg	ht	wh/0019.bmp
141.12	0.72	187	1	4	85	mem	con	mod	mod	mod	tg	ht	wh/0561.bmp
141.84	0.72	188	1	2	41	mem	con	mod	mod	mod	tg	ht	wh/0935.bmp
142.56	0.72	189	3	3	88	per	con	low	mod	low	nt	fa	nh/1021_nh.bmp
143.28	0.72	190	1	3	47	per	lib	low	mod	low	nt	fa	nh/0298_nh.bmp
144.00	0.72	191	1	1	84	per	con	mod	mod	mod	nt	cr	nh/0414_nh.bmp
144.72	0.72	192	2	1	3	mem	lib	mod	mod	low	tg	ms	wh/0675.bmp
145.44	0.72	193	3	2	12	mem	lib	mod	mod	mod	tg	ht	wh/0919.bmp
146.16	0.72	194	2	2	34	mem	con	mod	mod	mod	tg	ms	wh/0642.bmp
146.88	0.72	195	2	1	28	per	lib	mod	mod	mod	nt	cr	nh/0289_nh.bmp
147.60	0.72	196	1	2	35	mem	con	mod	mod	mod	tg	ht	wh/0896.bmp
148.32	0.72	197	1	2	69	mem	con	low	low	mod	tg	ms	wh/0740.bmp
149.04	0.72	198	3	2	38	mem	con	mod	mod	mod	nt	ht	nh/0425_nh.bmp
149.76	0.72	199	2	2	51	per	lib	low	mod	low	nt	cr	nh/0472_nh.bmp
150.48	0.72	200	2	1	114	mem	con	mod	mod	low	nt	ht	nh/0066_nh.bmp
151.20	0.72	201	3	1	89	per	con	mod	mod	mod	nt	cr	nh/0391_nh.bmp
151.92	0.72	202	3	3	57	per	con	mod	mod	mod	nt	cr	nh/0975_nh.bmp
152.64	0.72	203	3	4	68	mem	lib	mod	mod	mod	tg	ht	wh/0920.bmp
153.36	0.72	204	4	3	57	per	con	mod	mod	mod	nt	cr	nh/0975_nh.bmp
154.08	0.72	205	3	3	102	mem	lib	mod	mod	low	nt	ht	nh/0178_nh.bmp
154.80	0.72	206	1	4	10	per	con	mod	low	mod	tg	ht	wh/0776.bmp
155.52	0.72	207	1	1	34	per	lib	low	low	low	nt	fa	nh/0722_nh.bmp
156.24	0.72	208	3	1	26	per	lib	mod	mod	mod	tg	ht	wh/0692.bmp
156.96	0.72	209	1	3	85	per	con	low	mod	low	nt	cr	nh/0200_nh.bmp
157.68	0.72	210	1	2	109	per	lib	mod	low	mod	nt	cr	nh/0235_nh.bmp
158.40	0.72	211	2	3	75	mem	con	mod	mod	low	tg	ht	wh/0031.bmp
159.12	0.72	212	2	3	99	mem	lib	mod	mod	low	tg	ht	wh/0040.bmp
159.84	0.72	213	3	2	34	mem	con	mod	mod	mod	tg	ms	wh/0642.bmp
160.56	0.72	214	4	2	88	per	con	low	mod	low	nt	cr	nh/0156_nh.bmp
161.28	0.72	215	3	2	59	per	lib	low	mod	low	nt	fa	nh/0769_nh.bmp
162.00	0.72	216	1	3	48	per	lib	low	mod	low	tg	ht	wh/0932.bmp
162.72	0.72	217	4	2	95	per	con	low	mod	low	nt	cr	nh/0766_nh.bmp
163.44	0.72	218	3	3	65	mem	con	mod	mod	low	nt	ht	nh/0515_nh.bmp
164.16	0.72	219	2	4	72	mem	lib	mod	mod	mod	nt	ht	nh/0600_nh.bmp
164.88	0.72	220	1	4	115	per	lib	low	low	low	tg	ht	wh/0790.bmp
165.60	0.72	221	3	4	71	mem	lib	mod	mod	mod	tg	ht	wh/0526.bmp
166.32	0.72	222	1	3	55	per	con	mod	mod	mod	nt	cr	nh/0393_nh.bmp
167.04	0.72	223	2	1	84	per	con	mod	mod	mod	nt	cr	nh/0414_nh.bmp
167.76	0.72	224	1	1	5	mem	lib	mod	mod	low	nt	ht	nh/0421_nh.bmp
168.48	0.72	225	1	3	114	mem	con	low	low	low	nt	ht	nh/0499_nh.bmp
169.20	0.72	226	2	3	55	per	con	mod	mod	mod	nt	cr	nh/0393_nh.bmp
169.92	0.72	227	2	3	58	per	con	mod	mod	mod	tg	ht	wh/0775.bmp
170.64	0.72	228	2	1	92	per	con	mod	mod	mod	tg	ht	wh/0466.bmp
171.36	0.72	229	3	2	51	per	lib	low	mod	low	nt	cr	nh/0472_nh.bmp
172.08	0.72	230	2	3	18	per	lib	mod	mod	mod	nt	fa	nh/0679_nh.bmp
172.80	0.72	231	2	2	60	per	lib	low	mod	low	tg	ms	wh/0624.bmp
173.52	0.72	232	2	2	83	per	con	low	mod	low	tg	ms	wh/0231.bmp
174.24	0.72	233	3	3	103	mem	lib	mod	mod	low	tg	ht	wh/0741.bmp
174.96	0.72	234	2	3	87	per	con	low	mod	low	tg	ms	wh/0205.bmp
175.68	0.72	235	3	1	120	mem	con	mod	mod	low	tg	ht	wh/0997.bmp
176.40	0.72	236	1	3	13	mem	lib	low	low	low	tg	ht	wh/0159.bmp
177.12	0.72	237	3	1	3	mem	lib	mod	mod	low	tg	ms	wh/0675.bmp
177.84	0.72	238	1	3	68	mem	con	mod	mod	low	tg	ms	wh/0353.bmp
178.56	0.72	239	2	4	85	mem	con	mod	mod	mod	tg	ht	wh/0561.bmp
179.28	0.72	240	1	2	2	mem	lib	mod	mod	mod	nt	ht	nh/0847_nh.bmp
180.00	0.72	241	1	2	11	mem	lib	mod	mod	mod	nt	ht	nh/0287_nh.bmp
180.72	0.72	242	4	3	67	mem	con	mod	mod	low	nt	ht	nh/0155_nh.bmp
181.44	0.72	243	2	4	67	mem	lib	mod	mod	mod	tg	ht	wh/0724.bmp
182.16	0.72	244	1	1	8	mem	lib	mod	mod	low	tg	ht	wh/0217.bmp
182.88	0.72	245	2	1	19	per	lib	mod	mod	mod	tg	ht	wh/0429.bmp
183.60	0.72	246	4	1	16	mem	lib	mod	mod	low	tg	ht	wh/0177.bmp
184.32	0.72	247	1	4	78	mem	lib	mod	mod	mod	tg	ht	wh/0002.bmp
185.04	0.72	248	2	3	37	per	lib	low	mod	low	tg	ms	wh/0105.bmp
185.76	0.72	249	1	2	54	per	lib	low	mod	low	nt	fa	nh/0573_nh.bmp
186.48	0.72	250	2	3	95	per	con	low	mod	low	tg	ht	wh/0168.bmp
187.20	0.72	251	3	2	5	mem	lib	mod	mod	mod	nt	ht	nh/0580_nh.bmp
187.92	0.72	252	3	3	89	per	con	low	mod	low	tg	ms	wh/0755.bmp
188.64	0.72	253	3	3	22	per	lib	mod	mod	mod	tg	ht	wh/0183.bmp
189.36	0.72	254	1	1	48	per	lib	low	low	low	nt	fa	nh/0257_nh.bmp
190.08	0.72	255	1	4	32	mem	con	low	low	mod	nt	ms	nh/0551_nh.bmp
190.80	0.72	256	1	2	43	mem	con	mod	mod	mod	nt	ht	nh/0955_nh.bmp
191.52	0.72	257	4	1	3	mem	lib	mod	mod	low	tg	ms	wh/0675.bmp
192.24	0.72	258	1	4	81	mem	con	mod	mod	mod	tg	ms	wh/0585.bmp
192.96	0.72	259	2	4	90	mem	con	mod	mod	mod	nt	ht	nh/0463_nh.bmp
193.68	0.72	260	2	3	68	mem	con	mod	mod	low	tg	ms	wh/0353.bmp
194.40	0.72	261	2	3	108	mem	lib	mod	mod	low	nt	ht	nh/0926_nh.bmp
195.12	0.72	262	3	3	69	mem	con	mod	mod	low	nt	ht	nh/0435_nh.bmp
195.84	0.72	263	2	2	35	mem	con	mod	mod	mod	tg	ht	wh/0896.bmp
196.56	0.72	264	1	3	1	mem	lib	low	low	low	nt	ht	nh/0747_nh.bmp
197.28	0.72	265	1	4	73	mem	lib	mod	mod	mod	nt	ms	nh/0596_nh.bmp
198.00	0.72	266	1	3	7	mem	lib	low	low	low	tg	ht	wh/0008.bmp
198.72	0.72	267	3	2	35	mem	con	mod	mod	mod	tg	ht	wh/0896.bmp
199.44	0.72	268	2	2	62	per	lib	low	mod	low	tg	ms	wh/0233.bmp
200.16	0.72	269	4	4	86	mem	con	mod	mod	mod	tg	ms	wh/0841.bmp
200.88	0.72	270	1	2	9	mem	lib	mod	mod	mod	tg	ht	wh/0070.bmp
201.60	0.72	271	2	1	31	per	lib	mod	mod	mod	nt	fa	nh/0621_nh.bmp
202.32	0.72	272	3	3	55	per	con	mod	mod	mod	nt	cr	nh/0393_nh.bmp
203.04	0.72	273	2	4	83	mem	con	mod	mod	mod	tg	ht	wh/0204.bmp
203.76	0.72	274	2	3	85	per	con	low	mod	low	nt	cr	nh/0200_nh.bmp
204.48	0.72	275	2	1	15	mem	lib	mod	mod	low	nt	ht	nh/0868_nh.bmp
205.20	0.72	276	1	4	44	mem	lib	low	low	mod	nt	ht	nh/0321_nh.bmp
205.92	0.72	277	2	3	43	per	lib	low	mod	low	nt	fa	nh/0704_nh.bmp
206.64	0.72	278	2	3	47	per	lib	low	mod	low	nt	fa	nh/0298_nh.bmp
207.36	0.72	279	2	3	28	per	lib	mod	mod	mod	tg	ht	wh/0473.bmp
208.08	0.72	280	1	3	113	mem	con	low	low	low	nt	ms	nh/0903_nh.bmp
208.80	0.72	281	1	2	122	mem	lib	low	low	mod	nt	ht	nh/0478_nh.bmp
209.52	0.72	282	3	4	85	mem	con	mod	mod	mod	tg	ht	wh/0561.bmp
210.24	0.72	283	1	4	108	per	con	low	low	low	tg	ht	wh/0817.bmp
210.96	0.72	284	3	1	13	mem	lib	mod	mod	low	tg	ht	wh/0739.bmp
211.68	0.72	285	4	3	92	per	con	low	mod	low	nt	cr	nh/0116_nh.bmp
212.40	0.72	286	4	3	24	per	lib	mod	mod	mod	tg	ht	wh/0100.bmp
213.12	0.72	287	4	2	94	per	con	low	mod	low	nt	cr	nh/0387_nh.bmp
213.84	0.72	288	2	1	11	mem	lib	mod	mod	low	nt	ht	nh/0341_nh.bmp
214.56	0.72	289	3	3	81	per	con	low	mod	low	tg	ms	wh/0455.bmp
215.28	0.72	290	2	3	73	mem	con	mod	mod	low	tg	ms	wh/0163.bmp
216.00	0.72	291	3	3	73	mem	con	mod	mod	low	tg	ms	wh/0163.bmp
216.72	0.72	292	2	4	78	mem	lib	mod	mod	mod	tg	ht	wh/0002.bmp
217.44	0.72	293	4	3	102	mem	lib	mod	mod	low	nt	ht	nh/0178_nh.bmp
218.16	0.72	294	2	3	76	mem	con	mod	mod	low	nt	ht	nh/0133_nh.bmp
218.88	0.72	295	2	2	2	mem	lib	mod	mod	mod	nt	ht	nh/0847_nh.bmp
219.60	0.72	296	3	3	95	per	con	low	mod	low	tg	ht	wh/0168.bmp
220.32	0.72	297	1	4	48	mem	lib	low	low	mod	nt	ht	nh/0527_nh.bmp
221.04	0.72	298	1	3	35	per	lib	low	mod	low	tg	ms	wh/0265.bmp
221.76	0.72	299	1	2	1	mem	lib	mod	mod	mod	nt	ht	nh/0878_nh.bmp
222.48	0.72	300	5	3	92	per	con	low	mod	low	nt	cr	nh/0116_nh.bmp
223.20	0.72	301	1	3	127	mem	con	low	low	low	tg	ms	wh/0481.bmp
223.92	0.72	302	2	4	73	mem	lib	mod	mod	mod	nt	ms	nh/0596_nh.bmp
224.64	0.72	303	3	1	118	mem	con	mod	mod	low	nt	ht	nh/0529_nh.bmp
225.36	0.72	304	4	3	95	per	con	low	mod	low	tg	ht	wh/0168.bmp
226.08	0.72	305	4	1	26	per	lib	mod	mod	mod	tg	ht	wh/0692.bmp
226.80	0.72	306	1	1	20	per	lib	mod	mod	mod	nt	fa	nh/0899_nh.bmp
227.52	0.72	307	2	2	81	per	con	low	mod	low	tg	ht	wh/0514.bmp
228.24	0.72	308	3	2	40	mem	con	mod	mod	mod	tg	ms	wh/0984.bmp
228.96	0.72	309	3	3	20	per	lib	mod	mod	mod	nt	cr	nh/0637_nh.bmp
229.68	0.72	310	3	1	28	per	lib	mod	mod	mod	nt	cr	nh/0289_nh.bmp
230.40	0.72	311	1	2	93	per	con	low	mod	low	nt	fa	nh/0745_nh.bmp
231.12	0.72	312	4	3	22	per	lib	mod	mod	mod	tg	ht	wh/0183.bmp
231.84	0.72	313	1	4	36	mem	lib	low	low	mod	nt	ht	nh/0696_nh.bmp
232.56	0.72	314	3	3	36	per	lib	low	mod	low	nt	fa	nh/0897_nh.bmp
233.28	0.72	315	4	4	68	mem	lib	mod	mod	mod	tg	ht	wh/0920.bmp
234.00	0.72	316	4	2	36	mem	con	mod	mod	mod	nt	ms	nh/0700_nh.bmp
234.72	0.72	317	1	1	94	per	con	mod	mod	mod	nt	fa	nh/0605_nh.bmp
235.44	0.72	318	1	1	95	per	con	mod	mod	mod	tg	ht	wh/0681.bmp
236.16	0.72	319	4	2	6	mem	lib	mod	mod	mod	tg	ht	wh/0857.bmp
236.88	0.72	320	1	1	128	mem	con	mod	mod	low	tg	ht	wh/0597.bmp
237.60	0.72	321	2	2	58	per	lib	low	mod	low	tg	ht	wh/0251.bmp
238.32	0.72	322	2	2	89	per	con	low	mod	low	tg	ms	wh/0325.bmp
239.04	0.72	323	4	1	28	per	lib	mod	mod	mod	nt	cr	nh/0289_nh.bmp
239.76	0.72	324	1	4	50	per	lib	mod	low	mod	tg	ht	wh/0449.bmp
240.48	0.72	325	1	4	93	mem	con	mod	mod	mod	nt	ms	nh/0785_nh.bmp
241.20	0.72	326	2	1	128	mem	con	mod	mod	low	tg	ht	wh/0597.bmp
241.92	0.72	327	2	1	20	per	lib	mod	mod	mod	nt	fa	nh/0899_nh.bmp
242.64	0.72	328	3	2	90	per	con	low	mod	low	tg	ms	wh/0145.bmp
243.36	0.72	329	3	2	2	mem	lib	mod	mod	mod	nt	ht	nh/0847_nh.bmp
244.08	0.72	330	2	2	93	per	con	low	mod	low	nt	fa	nh/0745_nh.bmp
244.80	0.72	331	3	1	19	per	lib	mod	mod	mod	tg	ht	wh/0429.bmp
245.52	0.72	332	3	2	93	per	con	low	mod	low	nt	fa	nh/0745_nh.bmp
246.24	0.72	333	2	3	107	mem	lib	mod	mod	low	nt	ht	nh/0649_nh.bmp
246.96	0.72	334	4	2	38	mem	con	mod	mod	mod	nt	ht	nh/0425_nh.bmp
247.68	0.72	335	2	3	44	per	lib	low	mod	low	tg	ht	wh/0648.bmp
248.40	0.72	336	4	3	73	mem	con	mod	mod	low	tg	ms	wh/0163.bmp
249.12	0.72	337	3	4	78	mem	lib	mod	mod	mod	tg	ht	wh/0002.bmp
249.84	0.72	338	1	2	13	mem	lib	mod	mod	mod	tg	ms	wh/0938.bmp
250.56	0.72	339	5	2	38	mem	con	mod	mod	mod	nt	ht	nh/0425_nh.bmp
251.28	0.72	340	2	2	11	mem	lib	mod	mod	mod	nt	ht	nh/0287_nh.bmp
252.00	0.72	341	3	3	61	per	con	mod	mod	mod	tg	ht	wh/0189.bmp
252.72	0.72	342	5	1	26	per	lib	mod	mod	mod	tg	ht	wh/0692.bmp
253.44	0.72	343	3	1	92	per	con	mod	mod	mod	tg	ht	wh/0466.bmp
254.16	0.72	344	2	2	61	per	lib	low	mod	low	nt	cr	nh/0853_nh.bmp
254.88	0.72	345	4	3	20	per	lib	mod	mod	mod	nt	cr	nh/0637_nh.bmp
255.60	0.72	346	4	1	89	per	con	mod	mod	mod	nt	cr	nh/0391_nh.bmp
256.32	0.72	347	4	1	117	mem	con	mod	mod	low	tg	ht	wh/0377.bmp
257.04	0.72	348	2	1	119	mem	con	mod	mod	low	tg	ht	wh/0019.bmp
257.76	0.72	349	1	1	96	per	con	mod	mod	mod	tg	ms	wh/0981.bmp
258.48	0.72	350	2	4	77	mem	lib	mod	mod	mod	nt	ht	nh/0162_nh.bmp
259.20	0.72	351	1	4	113	per	lib	low	low	low	nt	cr	nh/0432_nh.bmp
259.92	0.72	352	4	3	36	per	lib	low	mod	low	nt	fa	nh/0897_nh.bmp
260.64	0.72	353	4	1	19	per	lib	mod	mod	mod	tg	ht	wh/0429.bmp
261.36	0.72	354	3	2	61	per	lib	low	mod	low	nt	cr	nh/0853_nh.bmp
262.08	0.72	355	4	2	61	per	lib	low	mod	low	nt	cr	nh/0853_nh.bmp
262.80	0.72	356	5	2	6	mem	lib	mod	mod	mod	tg	ht	wh/0857.bmp
263.52	0.72	357	2	1	95	per	con	mod	mod	mod	tg	ht	wh/0681.bmp
264.24	0.72	358	4	3	66	mem	con	mod	mod	low	tg	ht	wh/0392.bmp
264.96	0.72	359	2	2	9	mem	lib	mod	mod	mod	tg	ht	wh/0070.bmp
265.68	0.72	360	3	2	83	per	con	low	mod	low	tg	ms	wh/0231.bmp
266.40	0.72	361	2	2	41	mem	con	mod	mod	mod	tg	ht	wh/0935.bmp
267.12	0.72	362	3	3	58	per	con	mod	mod	mod	tg	ht	wh/0775.bmp
267.84	0.72	363	4	3	65	mem	con	mod	mod	low	nt	ht	nh/0515_nh.bmp
268.56	0.72	364	3	3	43	per	lib	low	mod	low	nt	fa	nh/0704_nh.bmp
269.28	0.72	365	2	3	62	per	con	mod	mod	mod	tg	ht	wh/0274.bmp
270.00	0.72	366	4	3	88	per	con	low	mod	low	nt	fa	nh/1021_nh.bmp
270.72	0.72	367	4	3	58	per	con	mod	mod	mod	tg	ht	wh/0775.bmp
271.44	0.72	368	4	2	83	per	con	low	mod	low	tg	ms	wh/0231.bmp
272.16	0.72	369	2	2	13	mem	lib	mod	mod	mod	tg	ms	wh/0938.bmp
272.88	0.72	370	2	1	94	per	con	mod	mod	mod	nt	fa	nh/0605_nh.bmp
273.60	0.72	371	4	4	85	mem	con	mod	mod	mod	tg	ht	wh/0561.bmp
274.32	0.72	372	3	1	94	per	con	mod	mod	mod	nt	fa	nh/0605_nh.bmp
275.04	0.72	373	5	1	89	per	con	mod	mod	mod	nt	cr	nh/0391_nh.bmp
275.76	0.72	374	3	1	124	mem	con	mod	mod	low	nt	ms	nh/0128_nh.bmp
276.48	0.72	375	2	1	2	mem	lib	mod	mod	low	nt	ht	nh/0733_nh.bmp
277.20	0.72	376	4	2	59	per	lib	low	mod	low	nt	fa	nh/0769_nh.bmp
277.92	0.72	377	5	4	68	mem	lib	mod	mod	mod	tg	ht	wh/0920.bmp
278.64	0.72	378	3	1	119	mem	con	mod	mod	low	tg	ht	wh/0019.bmp
279.36	0.72	379	5	3	58	per	con	mod	mod	mod	tg	ht	wh/0775.bmp
280.08	0.72	380	1	2	18	per	con	mod	low	mod	nt	cr	nh/0311_nh.bmp
280.80	0.72	381	3	1	30	per	lib	mod	mod	mod	tg	ht	wh/0098.bmp
281.52	0.72	382	5	2	83	per	con	low	mod	low	tg	ms	wh/0231.bmp
282.24	0.72	383	4	1	22	per	lib	mod	mod	mod	tg	ht	wh/0627.bmp
282.96	0.72	384	1	4	46	mem	lib	low	low	mod	tg	ht	wh/0476.bmp
283.68	0.72	385	1	1	99	per	con	low	low	low	tg	ms	wh/0889.bmp
284.40	0.72	386	4	1	92	per	con	mod	mod	mod	tg	ht	wh/0466.bmp
285.12	0.72	387	3	2	11	mem	lib	mod	mod	mod	nt	ht	nh/0287_nh.bmp
285.84	0.72	388	1	4	103	per	con	low	low	low	nt	cr	nh/0423_nh.bmp
286.56	0.72	389	4	2	40	mem	con	mod	mod	mod	tg	ms	wh/0984.bmp
287.28	0.72	390	2	1	96	per	con	mod	mod	mod	tg	ms	wh/0981.bmp
288.00	0.72	391	3	1	114	mem	con	mod	mod	low	nt	ht	nh/0066_nh.bmp
288.72	0.72	392	1	4	54	per	lib	mod	low	mod	tg	ht	wh/0228.bmp
289.44	0.72	393	3	1	90	per	con	mod	mod	mod	tg	ht	wh/0534.bmp
290.16	0.72	394	4	2	2	mem	lib	mod	mod	mod	nt	ht	nh/0847_nh.bmp
290.88	0.72	395	4	1	118	mem	con	mod	mod	low	nt	ht	nh/0529_nh.bmp
291.60	0.72	396	4	2	11	mem	lib	mod	mod	mod	nt	ht	nh/0287_nh.bmp
292.32	0.72	397	3	3	85	per	con	low	mod	low	nt	cr	nh/0200_nh.bmp
293.04	0.72	398	3	2	13	mem	lib	mod	mod	mod	tg	ms	wh/0938.bmp
293.76	0.72	399	3	4	73	mem	lib	mod	mod	mod	nt	ms	nh/0596_nh.bmp
294.48	0.72	400	2	1	23	per	lib	mod	mod	mod	nt	cr	nh/0658_nh.bmp
295.20	0.72	401	4	3	43	per	lib	low	mod	low	nt	fa	nh/0704_nh.bmp
295.92	0.72	402	1	1	36	per	lib	low	low	low	tg	ms	wh/0777.bmp
296.64	0.72	403	1	2	21	per	con	mod	low	mod	nt	cr	nh/0367_nh.bmp
297.36	0.72	404	4	2	5	mem	lib	mod	mod	mod	nt	ht	nh/0580_nh.bmp
298.08	0.72	405	4	1	120	mem	con	mod	mod	low	tg	ht	wh/0997.bmp
298.80	0.72	406	5	3	102	mem	lib	mod	mod	low	nt	ht	nh/0178_nh.bmp
299.52	0.72	407	1	1	44	per	lib	low	low	low	nt	fa	nh/0654_nh.bmp
300.24	0.72	408	4	1	119	mem	con	mod	mod	low	tg	ht	wh/0019.bmp
300.96	0.72	409	2	1	87	per	con	mod	mod	mod	nt	cr	nh/0801_nh.bmp
301.68	0.72	410	3	2	9	mem	lib	mod	mod	mod	tg	ht	wh/0070.bmp
302.40	0.72	411	3	3	99	mem	lib	mod	mod	low	tg	ht	wh/0040.bmp
303.12	0.72	412	3	1	2	mem	lib	mod	mod	low	nt	ht	nh/0733_nh.bmp
303.84	0.72	413	4	4	91	mem	con	mod	mod	mod	nt	ms	nh/0698_nh.bmp
304.56	0.72	414	1	1	51	mem	con	low	low	low	tg	ms	wh/0140.bmp
305.28	0.72	415	3	4	69	mem	lib	mod	mod	mod	nt	ht	nh/0879_nh.bmp
306.00	0.72	416	3	2	60	per	lib	low	mod	low	tg	ms	wh/0624.bmp
306.72	0.72	417	6	4	68	mem	lib	mod	mod	mod	tg	ht	wh/0920.bmp
307.44	0.72	418	3	3	62	per	con	mod	mod	mod	tg	ht	wh/0274.bmp
308.16	0.72	419	3	4	67	mem	lib	mod	mod	mod	tg	ht	wh/0724.bmp
308.88	0.72	420	4	3	93	per	con	low	mod	low	nt	cr	nh/0727_nh.bmp
309.60	0.72	421	2	3	31	per	lib	mod	mod	mod	tg	ms	wh/0750.bmp
310.32	0.72	422	3	2	81	per	con	low	mod	low	tg	ht	wh/0514.bmp
311.04	0.72	423	1	4	11	per	con	mod	low	mod	nt	cr	nh/0218_nh.bmp
311.76	0.72	424	5	3	65	mem	con	mod	mod	low	nt	ht	nh/0515_nh.bmp
312.48	0.72	425	1	1	43	per	lib	low	low	low	tg	ms	wh/0122.bmp
313.20	0.72	426	1	2	128	mem	lib	low	low	mod	nt	ht	nh/0501_nh.bmp
313.92	0.72	427	1	4	41	mem	lib	low	low	mod	tg	ht	wh/0887.bmp
314.64	0.72	428	4	2	81	per	con	low	mod	low	tg	ht	wh/0514.bmp
315.36	0.72	429	2	3	35	per	lib	low	mod	low	tg	ms	wh/0265.bmp
316.08	0.72	430	3	1	87	per	con	mod	mod	mod	nt	cr	nh/0801_nh.bmp
316.80	0.72	431	2	4	93	mem	con	mod	mod	mod	nt	ms	nh/0785_nh.bmp
317.52	0.72	432	4	4	78	mem	lib	mod	mod	mod	tg	ht	wh/0002.bmp
318.24	0.72	433	5	3	66	mem	con	mod	mod	low	tg	ht	wh/0392.bmp
318.96	0.72	434	1	3	23	per	lib	mod	mod	mod	nt	cr	nh/0942_nh.bmp
319.68	0.72	435	3	3	87	per	con	low	mod	low	tg	ms	wh/0205.bmp
320.40	0.72	436	1	4	58	per	lib	mod	low	mod	nt	fa	nh/0009_nh.bmp
321.12	0.72	437	1	4	18	mem	con	low	low	mod	nt	ht	nh/0087_nh.bmp
321.84	0.72	438	3	3	68	mem	con	mod	mod	low	tg	ms	wh/0353.bmp
322.56	0.72	439	4	3	38	per	lib	low	mod	low	nt	fa	nh/0379_nh.bmp
323.28	0.72	440	4	1	124	mem	con	mod	mod	low	nt	ms	nh/0128_nh.bmp
324.00	0.72	441	4	1	30	per	lib	mod	mod	mod	tg	ht	wh/0098.bmp
324.72	0.72	442	4	3	87	per	con	low	mod	low	tg	ms	wh/0205.bmp
325.44	0.72	443	5	3	36	per	lib	low	mod	low	nt	fa	nh/0897_nh.bmp
326.16	0.72	444	2	3	48	per	lib	low	mod	low	tg	ht	wh/0932.bmp
326.88	0.72	445	4	1	87	per	con	mod	mod	mod	nt	cr	nh/0801_nh.bmp
327.60	0.72	446	4	3	81	per	con	low	mod	low	tg	ms	wh/0455.bmp
328.32	0.72	447	1	2	113	mem	lib	low	low	mod	nt	ht	nh/0326_nh.bmp
329.04	0.72	448	2	4	81	mem	con	mod	mod	mod	tg	ms	wh/0585.bmp
329.76	0.72	449	5	3	88	per	con	low	mod	low	nt	fa	nh/1021_nh.bmp
330.48	0.72	450	6	1	26	per	lib	mod	mod	mod	tg	ht	wh/0692.bmp
331.20	0.72	451	3	3	106	mem	lib	mod	mod	low	nt	ht	nh/0014_nh.bmp
331.92	0.72	452	3	3	75	mem	con	mod	mod	low	tg	ht	wh/0031.bmp
332.64	0.72	453	4	3	98	mem	lib	mod	mod	low	tg	ht	wh/0115.bmp
333.36	0.72	454	5	4	91	mem	con	mod	mod	mod	nt	ms	nh/0698_nh.bmp
334.08	0.72	455	4	3	68	mem	con	mod	mod	low	tg	ms	wh/0353.bmp
334.80	0.72	456	3	1	11	mem	lib	mod	mod	low	nt	ht	nh/0341_nh.bmp
335.52	0.72	457	6	2	83	per	con	low	mod	low	tg	ms	wh/0231.bmp
336.24	0.72	458	3	3	35	per	lib	low	mod	low	tg	ms	wh/0265.bmp
336.96	0.72	459	4	2	34	mem	con	mod	mod	mod	tg	ms	wh/0642.bmp
337.68	0.72	460	5	2	2	mem	lib	mod	mod	mod	nt	ht	nh/0847_nh.bmp
338.40	0.72	461	5	3	20	per	lib	mod	mod	mod	nt	cr	nh/0637_nh.bmp
339.12	0.72	462	6	3	20	per	lib	mod	mod	mod	nt	cr	nh/0637_nh.bmp
339.84	0.72	463	1	1	39	per	lib	low	low	low	nt	cr	nh/0191_nh.bmp
340.56	0.72	464	5	2	88	per	con	low	mod	low	nt	cr	nh/0156_nh.bmp
341.28	0.72	465	5	4	86	mem	con	mod	mod	mod	tg	ms	wh/0841.bmp
342.00	0.72	466	6	3	65	mem	con	mod	mod	low	nt	ht	nh/0515_nh.bmp
342.72	0.72	467	3	3	19	per	lib	mod	mod	mod	nt	cr	nh/0884_nh.bmp
343.44	0.72	468	4	2	9	mem	lib	mod	mod	mod	tg	ht	wh/0070.bmp
344.16	0.72	469	5	2	59	per	lib	low	mod	low	nt	fa	nh/0769_nh.bmp
344.88	0.72	470	3	1	95	per	con	mod	mod	mod	tg	ht	wh/0681.bmp
345.60	0.72	471	3	2	58	per	lib	low	mod	low	tg	ht	wh/0251.bmp
346.32	0.72	472	1	3	4	mem	lib	low	low	low	tg	ht	wh/0485.bmp
347.04	0.72	473	5	1	118	mem	con	mod	mod	low	nt	ht	nh/0529_nh.bmp
347.76	0.72	474	4	1	13	mem	lib	mod	mod	low	tg	ht	wh/0739.bmp
348.48	0.72	475	3	3	107	mem	lib	mod	mod	low	nt	ht	nh/0649_nh.bmp
349.20	0.72	476	4	3	35	per	lib	low	mod	low	tg	ms	wh/0265.bmp
349.92	0.72	477	4	2	58	per	lib	low	mod	low	tg	ht	wh/0251.bmp
350.64	0.72	478	3	3	108	mem	lib	mod	mod	low	nt	ht	nh/0926_nh.bmp
351.36	0.72	479	2	1	5	mem	lib	mod	mod	low	nt	ht	nh/0421_nh.bmp
352.08	0.72	480	2	1	8	mem	lib	mod	mod	low	tg	ht	wh/0217.bmp
352.80	0.72	481	5	2	81	per	con	low	mod	low	tg	ht	wh/0514.bmp
353.52	0.72	482	3	3	63	per	con	mod	mod	mod	nt	cr	nh/0017_nh.bmp
354.24	0.72	483	1	4	2	per	con	mod	low	mod	nt	cr	nh/0270_nh.bmp
354.96	0.72	484	2	3	51	per	con	mod	mod	mod	tg	ht	wh/0405.bmp
355.68	0.72	485	2	2	43	mem	con	mod	mod	mod	nt	ht	nh/0955_nh.bmp
356.40	0.72	486	6	4	91	mem	con	mod	mod	mod	nt	ms	nh/0698_nh.bmp
357.12	0.72	487	3	1	15	mem	lib	mod	mod	low	nt	ht	nh/0868_nh.bmp
357.84	0.72	488	4	2	35	mem	con	mod	mod	mod	tg	ht	wh/0896.bmp
358.56	0.72	489	4	3	85	per	con	low	mod	low	nt	cr	nh/0200_nh.bmp
359.28	0.72	490	4	1	15	mem	lib	mod	mod	low	nt	ht	nh/0868_nh.bmp
360.00	0.72	491	3	2	43	mem	con	mod	mod	mod	nt	ht	nh/0955_nh.bmp
360.72	0.72	492	4	2	93	per	con	low	mod	low	nt	fa	nh/0745_nh.bmp
361.44	0.72	493	1	4	31	mem	con	low	low	mod	tg	ms	wh/0553.bmp
362.16	0.72	494	5	3	95	per	con	low	mod	low	tg	ht	wh/0168.bmp
362.88	0.72	495	6	3	88	per	con	low	mod	low	nt	fa	nh/1021_nh.bmp
363.60	0.72	496	3	1	5	mem	lib	mod	mod	low	nt	ht	nh/0421_nh.bmp
364.32	0.72	497	3	4	72	mem	lib	mod	mod	mod	nt	ht	nh/0600_nh.bmp
365.04	0.72	498	3	3	18	per	lib	mod	mod	mod	nt	fa	nh/0679_nh.bmp
365.76	0.72	499	5	1	92	per	con	mod	mod	mod	tg	ht	wh/0466.bmp
366.48	0.72	500	4	2	90	per	con	low	mod	low	tg	ms	wh/0145.bmp
367.20	0.72	501	1	2	27	per	con	mod	low	mod	tg	ht	wh/0906.bmp
367.92	0.72	502	3	4	77	mem	lib	mod	mod	mod	nt	ht	nh/0162_nh.bmp
368.64	0.72	503	3	1	8	mem	lib	mod	mod	low	tg	ht	wh/0217.bmp
369.36	0.72	504	1	1	63	mem	con	low	low	low	tg	ht	wh/0362.bmp
370.08	0.72	505	1	4	88	mem	con	mod	mod	mod	nt	ms	nh/0965_nh.bmp
370.80	0.72	506	5	3	68	mem	con	mod	mod	low	tg	ms	wh/0353.bmp
371.52	0.72	507	3	3	76	mem	con	mod	mod	low	nt	ht	nh/0133_nh.bmp
372.24	0.72	508	3	3	48	per	lib	low	mod	low	tg	ht	wh/0932.bmp
372.96	0.72	509	3	3	49	per	con	mod	mod	mod	nt	cr	nh/0959_nh.bmp
373.68	0.72	510	4	3	107	mem	lib	mod	mod	low	nt	ht	nh/0649_nh.bmp
374.40	0.72	511	5	3	85	per	con	low	mod	low	nt	cr	nh/0200_nh.bmp
375.12	0.72	512	5	4	85	mem	con	mod	mod	mod	tg	ht	wh/0561.bmp
375.84	0.72	513	2	1	113	mem	con	mod	mod	low	nt	ms	nh/0816_nh.bmp
376.56	0.72	514	1	3	116	mem	con	low	low	low	tg	ms	wh/0411.bmp
377.28	0.72	515	5	1	30	per	lib	mod	mod	mod	tg	ht	wh/0098.bmp
378.00	0.72	516	4	1	95	per	con	mod	mod	mod	tg	ht	wh/0681.bmp
378.72	0.72	517	5	1	28	per	lib	mod	mod	mod	nt	cr	nh/0289_nh.bmp
379.44	0.72	518	3	2	41	mem	con	mod	mod	mod	tg	ht	wh/0935.bmp
380.16	0.72	519	4	4	73	mem	lib	mod	mod	mod	nt	ms	nh/0596_nh.bmp
380.88	0.72	520	5	2	58	per	lib	low	mod	low	tg	ht	wh/0251.bmp
381.60	0.72	521	4	2	43	mem	con	mod	mod	mod	nt	ht	nh/0955_nh.bmp
382.32	0.72	522	4	3	48	per	lib	low	mod	low	tg	ht	wh/0932.bmp
383.04	0.72	523	3	2	89	per	con	low	mod	low	tg	ms	wh/0325.bmp
383.76	0.72	524	5	1	87	per	con	mod	mod	mod	nt	cr	nh/0801_nh.bmp
384.48	0.72	525	5	2	43	mem	con	mod	mod	mod	nt	ht	nh/0955_nh.bmp
385.20	0.72	526	2	2	54	per	lib	low	mod	low	nt	fa	nh/0573_nh.bmp
385.92	0.72	527	3	3	28	per	lib	mod	mod	mod	tg	ht	wh/0473.bmp
386.64	0.72	528	6	1	89	per	con	mod	mod	mod	nt	cr	nh/0391_nh.bmp
387.36	0.72	529	1	2	70	mem	con	low	low	mod	tg	ms	wh/0303.bmp
388.08	0.72	530	5	2	40	mem	con	mod	mod	mod	tg	ms	wh/0984.bmp
388.80	0.72	531	5	3	87	per	con	low	mod	low	tg	ms	wh/0205.bmp
389.52	0.72	532	5	1	117	mem	con	mod	mod	low	tg	ht	wh/0377.bmp
390.24	0.72	533	1	1	79	mem	lib	low	low	low	tg	ms	wh/0614.bmp
390.96	0.72	534	4	1	94	per	con	mod	mod	mod	nt	fa	nh/0605_nh.bmp
391.68	0.72	535	4	1	8	mem	lib	mod	mod	low	tg	ht	wh/0217.bmp
392.40	0.72	536	3	1	20	per	lib	mod	mod	mod	nt	fa	nh/0899_nh.bmp
393.12	0.72	537	5	3	98	mem	lib	mod	mod	low	tg	ht	wh/0115.bmp
393.84	0.72	538	3	1	113	mem	con	mod	mod	low	nt	ms	nh/0816_nh.bmp
394.56	0.72	539	4	3	76	mem	con	mod	mod	low	nt	ht	nh/0133_nh.bmp
395.28	0.72	540	1	2	107	per	lib	mod	low	mod	nt	cr	nh/0332_nh.bmp
396.00	0.72	541	1	4	111	per	con	low	low	low	nt	cr	nh/0126_nh.bmp
396.72	0.72	542	1	4	116	per	lib	low	low	low	nt	fa	nh/0015_nh.bmp
397.44	0.72	543	3	2	62	per	lib	low	mod	low	tg	ms	wh/0233.bmp
398.16	0.72	544	1	3	128	mem	con	low	low	low	nt	ht	nh/0651_nh.bmp
398.88	0.72	545	1	3	109	mem	lib	mod	mod	low	tg	ht	wh/0027.bmp
399.60	0.72	546	3	1	23	per	lib	mod	mod	mod	nt	cr	nh/0658_nh.bmp
400.32	0.72	547	3	4	81	mem	con	mod	mod	mod	tg	ms	wh/0585.bmp
401.04	0.72	548	1	2	115	mem	lib	low	low	mod	tg	ht	wh/0977.bmp
401.76	0.72	549	4	3	55	per	con	mod	mod	mod	nt	cr	nh/0393_nh.bmp
402.48	0.72	550	1	3	3	mem	lib	low	low	low	nt	ht	nh/0330_nh.bmp
403.20	0.72	551	4	3	99	mem	lib	mod	mod	low	tg	ht	wh/0040.bmp
403.92	0.72	552	4	1	90	per	con	mod	mod	mod	tg	ht	wh/0534.bmp
404.64	0.72	553	5	2	11	mem	lib	mod	mod	mod	nt	ht	nh/0287_nh.bmp
405.36	0.72	554	1	2	19	per	con	mod	low	mod	tg	ht	wh/0873.bmp
406.08	0.72	555	3	3	51	per	con	mod	mod	mod	tg	ht	wh/0405.bmp
406.80	0.72	556	3	3	44	per	lib	low	mod	low	tg	ht	wh/0648.bmp
407.52	0.72	557	2	2	52	per	lib	low	mod	low	tg	ms	wh/0836.bmp
408.24	0.72	558	5	4	73	mem	lib	mod	mod	mod	nt	ms	nh/0596_nh.bmp
408.96	0.72	559	6	2	43	mem	con	mod	mod	mod	nt	ht	nh/0955_nh.bmp
409.68	0.72	560	6	2	11	mem	lib	mod	mod	mod	nt	ht	nh/0287_nh.bmp
410.40	0.72	561	4	1	11	mem	lib	mod	mod	low	nt	ht	nh/0341_nh.bmp
411.12	0.72	562	2	2	1	mem	lib	mod	mod	mod	nt	ht	nh/0878_nh.bmp
411.84	0.72	563	4	3	18	per	lib	mod	mod	mod	nt	fa	nh/0679_nh.bmp
412.56	0.72	564	2	3	109	mem	lib	mod	mod	low	tg	ht	wh/0027.bmp
413.28	0.72	565	1	3	15	mem	lib	low	low	low	tg	ht	wh/0979.bmp
414.00	0.72	566	1	4	120	per	lib	low	low	low	tg	ms	wh/0533.bmp
414.72	0.72	567	3	1	96	per	con	mod	mod	mod	tg	ms	wh/0981.bmp
415.44	0.72	568	3	3	47	per	lib	low	mod	low	nt	fa	nh/0298_nh.bmp
416.16	0.72	569	4	2	89	per	con	low	mod	low	tg	ms	wh/0325.bmp
416.88	0.72	570	4	2	12	mem	lib	mod	mod	mod	tg	ht	wh/0919.bmp
417.60	0.72	571	5	3	99	mem	lib	mod	mod	low	tg	ht	wh/0040.bmp
418.32	0.72	572	5	1	22	per	lib	mod	mod	mod	tg	ht	wh/0627.bmp
419.04	0.72	573	4	3	62	per	con	mod	mod	mod	tg	ht	wh/0274.bmp
419.76	0.72	574	4	1	5	mem	lib	mod	mod	low	nt	ht	nh/0421_nh.bmp
420.48	0.72	575	4	4	72	mem	lib	mod	mod	mod	nt	ht	nh/0600_nh.bmp
421.20	0.72	576	1	1	53	mem	con	low	low	low	nt	ms	nh/0456_nh.bmp
421.92	0.72	577	4	3	103	mem	lib	mod	mod	low	tg	ht	wh/0741.bmp
422.64	0.72	578	5	1	119	mem	con	mod	mod	low	tg	ht	wh/0019.bmp
423.36	0.72	579	4	4	67	mem	lib	mod	mod	mod	tg	ht	wh/0724.bmp
424.08	0.72	580	5	4	72	mem	lib	mod	mod	mod	nt	ht	nh/0600_nh.bmp
424.80	0.72	581	5	3	76	mem	con	mod	mod	low	nt	ht	nh/0133_nh.bmp
425.52	0.72	582	4	3	75	mem	con	mod	mod	low	tg	ht	wh/0031.bmp
426.24	0.72	583	3	2	54	per	lib	low	mod	low	nt	fa	nh/0573_nh.bmp
426.96	0.72	584	1	4	112	per	con	low	low	low	tg	ms	wh/0656.bmp
427.68	0.72	585	4	3	89	per	con	low	mod	low	tg	ms	wh/0755.bmp
428.40	0.72	586	3	3	31	per	lib	mod	mod	mod	tg	ms	wh/0750.bmp
429.12	0.72	587	1	4	127	per	lib	low	low	low	nt	fa	nh/0141_nh.bmp
429.84	0.72	588	6	2	81	per	con	low	mod	low	tg	ht	wh/0514.bmp
430.56	0.72	589	3	4	93	mem	con	mod	mod	mod	nt	ms	nh/0785_nh.bmp
431.28	0.72	590	1	1	106	per	con	low	low	low	nt	cr	nh/0210_nh.bmp
432.00	0.72	591	5	1	19	per	lib	mod	mod	mod	tg	ht	wh/0429.bmp
432.72	0.72	592	5	2	12	mem	lib	mod	mod	mod	tg	ht	wh/0919.bmp
433.44	0.72	593	6	3	92	per	con	low	mod	low	nt	cr	nh/0116_nh.bmp
434.16	0.72	594	5	3	93	per	con	low	mod	low	nt	cr	nh/0727_nh.bmp
434.88	0.72	595	1	2	98	per	lib	mod	low	mod	tg	ht	wh/0960.bmp
435.60	0.72	596	4	3	51	per	con	mod	mod	mod	tg	ht	wh/0405.bmp
436.32	0.72	597	1	4	6	per	con	mod	low	mod	tg	ms	wh/0922.bmp
437.04	0.72	598	4	2	54	per	lib	low	mod	low	nt	fa	nh/0573_nh.bmp
437.76	0.72	599	5	1	5	mem	lib	mod	mod	low	nt	ht	nh/0421_nh.bmp
438.48	0.72	600	4	4	69	mem	lib	mod	mod	mod	nt	ht	nh/0879_nh.bmp
439.20	0.72	601	2	4	88	mem	con	mod	mod	mod	nt	ms	nh/0965_nh.bmp
439.92	0.72	602	5	2	90	per	con	low	mod	low	tg	ms	wh/0145.bmp
440.64	0.72	603	4	4	77	mem	lib	mod	mod	mod	nt	ht	nh/0162_nh.bmp
441.36	0.72	604	1	3	5	mem	lib	low	low	low	nt	ht	nh/0119_nh.bmp
442.08	0.72	605	4	3	61	per	con	mod	mod	mod	tg	ht	wh/0189.bmp
442.80	0.72	606	3	1	128	mem	con	mod	mod	low	tg	ht	wh/0597.bmp
443.52	0.72	607	6	3	99	mem	lib	mod	mod	low	tg	ht	wh/0040.bmp
444.24	0.72	608	5	2	94	per	con	low	mod	low	nt	cr	nh/0387_nh.bmp
444.96	0.72	609	1	2	65	mem	con	low	low	mod	nt	ms	nh/0213_nh.bmp
445.68	0.72	610	5	3	81	per	con	low	mod	low	tg	ms	wh/0455.bmp
446.40	0.72	611	5	2	5	mem	lib	mod	mod	mod	nt	ht	nh/0580_nh.bmp
447.12	0.72	612	5	1	13	mem	lib	mod	mod	low	tg	ht	wh/0739.bmp
447.84	0.72	613	4	4	81	mem	con	mod	mod	mod	tg	ms	wh/0585.bmp
448.56	0.72	614	4	2	60	per	lib	low	mod	low	tg	ms	wh/0624.bmp
449.28	0.72	615	1	4	114	per	lib	low	low	low	tg	ht	wh/0076.bmp
450.00	0.72	616	4	1	114	mem	con	mod	mod	low	nt	ht	nh/0066_nh.bmp
450.72	0.72	617	5	2	9	mem	lib	mod	mod	mod	tg	ht	wh/0070.bmp
451.44	0.72	618	5	3	18	per	lib	mod	mod	mod	nt	fa	nh/0679_nh.bmp
452.16	0.72	619	6	2	40	mem	con	mod	mod	mod	tg	ms	wh/0984.bmp
452.88	0.72	620	4	1	113	mem	con	mod	mod	low	nt	ms	nh/0816_nh.bmp
453.60	0.72	621	5	3	57	per	con	mod	mod	mod	nt	cr	nh/0975_nh.bmp
454.32	0.72	622	5	1	120	mem	con	mod	mod	low	tg	ht	wh/0997.bmp
455.04	0.72	623	4	3	47	per	lib	low	mod	low	nt	fa	nh/0298_nh.bmp
455.76	0.72	624	5	1	124	mem	con	mod	mod	low	nt	ms	nh/0128_nh.bmp
456.48	0.72	625	6	1	13	mem	lib	mod	mod	low	tg	ht	wh/0739.bmp
457.20	0.72	626	5	3	107	mem	lib	mod	mod	low	nt	ht	nh/0649_nh.bmp
457.92	0.72	627	5	2	34	mem	con	mod	mod	mod	tg	ms	wh/0642.bmp
458.64	0.72	628	5	3	55	per	con	mod	mod	mod	nt	cr	nh/0393_nh.bmp
459.36	0.72	629	3	3	37	per	lib	low	mod	low	tg	ms	wh/0105.bmp
460.08	0.72	630	5	1	11	mem	lib	mod	mod	low	nt	ht	nh/0341_nh.bmp
460.80	0.72	631	3	4	88	mem	con	mod	mod	mod	nt	ms	nh/0965_nh.bmp
461.52	0.72	632	5	2	54	per	lib	low	mod	low	nt	fa	nh/0573_nh.bmp
462.24	0.72	633	6	1	28	per	lib	mod	mod	mod	nt	cr	nh/0289_nh.bmp
462.96	0.72	634	4	2	41	mem	con	mod	mod	mod	tg	ht	wh/0935.bmp
463.68	0.72	635	1	3	8	mem	lib	low	low	low	nt	ht	nh/0996_nh.bmp
464.40	0.72	636	6	2	2	mem	lib	mod	mod	mod	nt	ht	nh/0847_nh.bmp
465.12	0.72	637	3	1	31	per	lib	mod	mod	mod	nt	fa	nh/0621_nh.bmp
465.84	0.72	638	4	3	19	per	lib	mod	mod	mod	nt	cr	nh/0884_nh.bmp
466.56	0.72	639	1	2	99	per	lib	mod	low	mod	tg	ht	wh/0725.bmp
467.28	0.72	640	5	2	35	mem	con	mod	mod	mod	tg	ht	wh/0896.bmp
468.00	0.72	641	3	2	52	per	lib	low	mod	low	tg	ms	wh/0836.bmp
468.72	0.72	642	6	1	119	mem	con	mod	mod	low	tg	ht	wh/0019.bmp
469.44	0.72	643	5	3	47	per	lib	low	mod	low	nt	fa	nh/0298_nh.bmp
470.16	0.72	644	5	4	78	mem	lib	mod	mod	mod	tg	ht	wh/0002.bmp
470.88	0.72	645	4	1	20	per	lib	mod	mod	mod	nt	fa	nh/0899_nh.bmp
471.60	0.72	646	5	1	3	mem	lib	mod	mod	low	tg	ms	wh/0675.bmp
472.32	0.72	647	1	2	118	mem	lib	low	low	mod	tg	ht	wh/0912.bmp
473.04	0.72	648	6	2	88	per	con	low	mod	low	nt	cr	nh/0156_nh.bmp
473.76	0.72	649	4	1	23	per	lib	mod	mod	mod	nt	cr	nh/0658_nh.bmp
474.48	0.72	650	3	4	90	mem	con	mod	mod	mod	nt	ht	nh/0463_nh.bmp
475.20	0.72	651	5	3	19	per	lib	mod	mod	mod	nt	cr	nh/0884_nh.bmp
475.92	0.72	652	6	2	94	per	con	low	mod	low	nt	cr	nh/0387_nh.bmp
476.64	0.72	653	5	2	61	per	lib	low	mod	low	nt	cr	nh/0853_nh.bmp
477.36	0.72	654	4	1	128	mem	con	mod	mod	low	tg	ht	wh/0597.bmp
478.08	0.72	655	5	1	8	mem	lib	mod	mod	low	tg	ht	wh/0217.bmp
478.80	0.72	656	4	2	52	per	lib	low	mod	low	tg	ms	wh/0836.bmp
479.52	0.72	657	4	2	13	mem	lib	mod	mod	mod	tg	ms	wh/0938.bmp
480.24	0.72	658	6	3	87	per	con	low	mod	low	tg	ms	wh/0205.bmp
480.96	0.72	659	5	3	67	mem	con	mod	mod	low	nt	ht	nh/0155_nh.bmp
481.68	0.72	660	6	3	85	per	con	low	mod	low	nt	cr	nh/0200_nh.bmp
482.40	0.72	661	5	1	95	per	con	mod	mod	mod	tg	ht	wh/0681.bmp
483.12	0.72	662	1	2	114	mem	lib	low	low	mod	nt	ht	nh/0905_nh.bmp
483.84	0.72	663	6	4	73	mem	lib	mod	mod	mod	nt	ms	nh/0596_nh.bmp
484.56	0.72	664	1	1	74	mem	lib	low	low	low	nt	ht	nh/0771_nh.bmp
485.28	0.72	665	5	1	114	mem	con	mod	mod	low	nt	ht	nh/0066_nh.bmp
486.00	0.72	666	6	3	58	per	con	mod	mod	mod	tg	ht	wh/0775.bmp
486.72	0.72	667	5	2	36	mem	con	mod	mod	mod	nt	ms	nh/0700_nh.bmp
487.44	0.72	668	3	2	44	mem	con	mod	mod	mod	nt	ht	nh/0001_nh.bmp
488.16	0.72	669	1	1	69	mem	lib	low	low	low	nt	ms	nh/0028_nh.bmp
488.88	0.72	670	1	3	120	mem	con	low	low	low	tg	ht	wh/0109.bmp
489.60	0.72	671	1	4	105	per	con	low	low	low	tg	ht	wh/0121.bmp
490.32	0.72	672	5	3	24	per	lib	mod	mod	mod	tg	ht	wh/0100.bmp
491.04	0.72	673	4	3	106	mem	lib	mod	mod	low	nt	ht	nh/0014_nh.bmp
491.76	0.72	674	1	2	116	mem	lib	low	low	mod	tg	ht	wh/1017.bmp
492.48	0.72	675	1	1	58	mem	con	low	low	low	nt	ms	nh/1001_nh.bmp
493.20	0.72	676	5	2	13	mem	lib	mod	mod	mod	tg	ms	wh/0938.bmp
493.92	0.72	677	3	3	109	mem	lib	mod	mod	low	tg	ht	wh/0027.bmp
494.64	0.72	678	5	3	22	per	lib	mod	mod	mod	tg	ht	wh/0183.bmp
495.36	0.72	679	4	3	31	per	lib	mod	mod	mod	tg	ms	wh/0750.bmp
496.08	0.72	680	4	4	88	mem	con	mod	mod	mod	nt	ms	nh/0965_nh.bmp
496.80	0.72	681	4	3	37	per	lib	low	mod	low	tg	ms	wh/0105.bmp
497.52	0.72	682	5	2	52	per	lib	low	mod	low	tg	ms	wh/0836.bmp
498.24	0.72	683	5	3	73	mem	con	mod	mod	low	tg	ms	wh/0163.bmp
498.96	0.72	684	5	3	31	per	lib	mod	mod	mod	tg	ms	wh/0750.bmp
499.68	0.72	685	1	2	32	per	con	mod	low	mod	nt	cr	nh/0288_nh.bmp
500.40	0.72	686	4	2	51	per	lib	low	mod	low	nt	cr	nh/0472_nh.bmp
501.12	0.72	687	4	3	49	per	con	mod	mod	mod	nt	cr	nh/0959_nh.bmp
501.84	0.72	688	1	4	15	per	con	mod	low	mod	nt	cr	nh/0856_nh.bmp
502.56	0.72	689	6	3	81	per	con	low	mod	low	tg	ms	wh/0455.bmp
503.28	0.72	690	4	1	31	per	lib	mod	mod	mod	nt	fa	nh/0621_nh.bmp
504.00	0.72	691	3	4	83	mem	con	mod	mod	mod	tg	ht	wh/0204.bmp
504.72	0.72	692	1	2	68	mem	con	low	low	mod	tg	ms	wh/0712.bmp
505.44	0.72	693	5	1	90	per	con	mod	mod	mod	tg	ht	wh/0534.bmp
506.16	0.72	694	4	3	108	mem	lib	mod	mod	low	nt	ht	nh/0926_nh.bmp
506.88	0.72	695	5	3	51	per	con	mod	mod	mod	tg	ht	wh/0405.bmp
507.60	0.72	696	4	3	69	mem	con	mod	mod	low	nt	ht	nh/0435_nh.bmp
508.32	0.72	697	1	1	71	mem	lib	low	low	low	tg	ht	wh/0682.bmp
509.04	0.72	698	5	3	38	per	lib	low	mod	low	nt	fa	nh/0379_nh.bmp
509.76	0.72	699	5	1	113	mem	con	mod	mod	low	nt	ms	nh/0816_nh.bmp
510.48	0.72	700	4	2	62	per	lib	low	mod	low	tg	ms	wh/0233.bmp
511.20	0.72	701	5	3	106	mem	lib	mod	mod	low	nt	ht	nh/0014_nh.bmp
511.92	0.72	702	5	2	60	per	lib	low	mod	low	tg	ms	wh/0624.bmp
512.64	0.72	703	1	4	13	per	con	mod	low	mod	nt	cr	nh/0918_nh.bmp
513.36	0.72	704	6	1	120	mem	con	mod	mod	low	tg	ht	wh/0997.bmp
514.08	0.72	705	1	2	101	per	lib	mod	low	mod	tg	ht	wh/0898.bmp
514.80	0.72	706	1	4	26	mem	con	low	low	mod	tg	ms	wh/0286.bmp
515.52	0.72	707	4	3	44	per	lib	low	mod	low	tg	ht	wh/0648.bmp
516.24	0.72	708	6	1	113	mem	con	mod	mod	low	nt	ms	nh/0816_nh.bmp
516.96	0.72	709	3	1	84	per	con	mod	mod	mod	nt	cr	nh/0414_nh.bmp
517.68	0.72	710	1	2	79	mem	con	low	low	mod	nt	ms	nh/0702_nh.bmp
518.40	0.72	711	4	2	44	mem	con	mod	mod	mod	nt	ht	nh/0001_nh.bmp
519.12	0.72	712	3	2	1	mem	lib	mod	mod	mod	nt	ht	nh/0878_nh.bmp
519.84	0.72	713	5	2	93	per	con	low	mod	low	nt	fa	nh/0745_nh.bmp
520.56	0.72	714	2	3	23	per	lib	mod	mod	mod	nt	cr	nh/0942_nh.bmp
521.28	0.72	715	4	1	84	per	con	mod	mod	mod	nt	cr	nh/0414_nh.bmp
522.00	0.72	716	5	3	48	per	lib	low	mod	low	tg	ht	wh/0932.bmp
522.72	0.72	717	6	1	8	mem	lib	mod	mod	low	tg	ht	wh/0217.bmp
523.44	0.72	718	5	3	44	per	lib	low	mod	low	tg	ht	wh/0648.bmp
524.16	0.72	719	5	1	15	mem	lib	mod	mod	low	nt	ht	nh/0868_nh.bmp
524.88	0.72	720	5	2	95	per	con	low	mod	low	nt	cr	nh/0766_nh.bmp
525.60	0.72	721	6	1	3	mem	lib	mod	mod	low	tg	ms	wh/0675.bmp
526.32	0.72	722	6	2	90	per	con	low	mod	low	tg	ms	wh/0145.bmp
527.04	0.72	723	1	4	60	per	lib	mod	low	mod	tg	ht	wh/0885.bmp
527.76	0.72	724	6	2	54	per	lib	low	mod	low	nt	fa	nh/0573_nh.bmp
528.48	0.72	725	1	4	123	per	lib	low	low	low	tg	ht	wh/0786.bmp
529.20	0.72	726	4	3	28	per	lib	mod	mod	mod	tg	ht	wh/0473.bmp
529.92	0.72	727	4	1	96	per	con	mod	mod	mod	tg	ms	wh/0981.bmp
530.64	0.72	728	1	1	55	mem	con	low	low	low	nt	ht	nh/0522_nh.bmp
531.36	0.72	729	5	3	89	per	con	low	mod	low	tg	ms	wh/0755.bmp
532.08	0.72	730	4	4	93	mem	con	mod	mod	mod	nt	ms	nh/0785_nh.bmp
532.80	0.72	731	4	3	109	mem	lib	mod	mod	low	tg	ht	wh/0027.bmp
533.52	0.72	732	1	2	124	mem	lib	low	low	mod	tg	ht	wh/0541.bmp
534.24	0.72	733	6	4	78	mem	lib	mod	mod	mod	tg	ht	wh/0002.bmp
534.96	0.72	734	5	3	62	per	con	mod	mod	mod	tg	ht	wh/0274.bmp
535.68	0.72	735	6	3	62	per	con	mod	mod	mod	tg	ht	wh/0274.bmp
536.40	0.72	736	6	3	19	per	lib	mod	mod	mod	nt	cr	nh/0884_nh.bmp
537.12	0.72	737	4	1	2	mem	lib	mod	mod	low	nt	ht	nh/0733_nh.bmp
537.84	0.72	738	5	3	108	mem	lib	mod	mod	low	nt	ht	nh/0926_nh.bmp
538.56	0.72	739	1	1	70	mem	lib	low	low	low	tg	ht	wh/0057.bmp
539.28	0.72	740	5	1	16	mem	lib	mod	mod	low	tg	ht	wh/0177.bmp
540.00	0.72	741	6	2	95	per	con	low	mod	low	nt	cr	nh/0766_nh.bmp
540.72	0.72	742	6	3	68	mem	con	mod	mod	low	tg	ms	wh/0353.bmp
541.44	0.72	743	1	2	24	per	con	mod	low	mod	tg	ht	wh/0083.bmp
542.16	0.72	744	5	2	62	per	lib	low	mod	low	tg	ms	wh/0233.bmp
542.88	0.72	745	5	2	89	per	con	low	mod	low	tg	ms	wh/0325.bmp
543.60	0.72	746	6	4	85	mem	con	mod	mod	mod	tg	ht	wh/0561.bmp
544.32	0.72	747	5	3	37	per	lib	low	mod	low	tg	ms	wh/0105.bmp
545.04	0.72	748	6	3	107	mem	lib	mod	mod	low	nt	ht	nh/0649_nh.bmp
545.76	0.72	749	5	3	61	per	con	mod	mod	mod	tg	ht	wh/0189.bmp
546.48	0.72	750	1	1	97	per	con	low	low	low	tg	ms	wh/0800.bmp
547.20	0.72	751	6	1	95	per	con	mod	mod	mod	tg	ht	wh/0681.bmp
547.92	0.72	752	6	3	76	mem	con	mod	mod	low	nt	ht	nh/0133_nh.bmp
548.64	0.72	753	6	1	22	per	lib	mod	mod	mod	tg	ht	wh/0627.bmp
549.36	0.72	754	6	2	61	per	lib	low	mod	low	nt	cr	nh/0853_nh.bmp
550.08	0.72	755	6	1	114	mem	con	mod	mod	low	nt	ht	nh/0066_nh.bmp
550.80	0.72	756	5	1	23	per	lib	mod	mod	mod	nt	cr	nh/0658_nh.bmp
551.52	0.72	757	1	4	56	per	lib	mod	low	mod	nt	cr	nh/0406_nh.bmp
552.24	0.72	758	6	3	51	per	con	mod	mod	mod	tg	ht	wh/0405.bmp
552.96	0.72	759	5	1	2	mem	lib	mod	mod	low	nt	ht	nh/0733_nh.bmp
553.68	0.72	760	1	1	109	per	con	low	low	low	tg	ht	wh/0464.bmp
554.40	0.72	761	1	4	63	per	lib	mod	low	mod	nt	fa	nh/0550_nh.bmp
555.12	0.72	762	5	4	81	mem	con	mod	mod	mod	tg	ms	wh/0585.bmp
555.84	0.72	763	5	1	84	per	con	mod	mod	mod	nt	cr	nh/0414_nh.bmp
556.56	0.72	764	4	2	1	mem	lib	mod	mod	mod	nt	ht	nh/0878_nh.bmp
557.28	0.72	765	6	3	106	mem	lib	mod	mod	low	nt	ht	nh/0014_nh.bmp
558.00	0.72	766	1	4	30	mem	con	low	low	mod	tg	ms	wh/0752.bmp
558.72	0.72	767	5	3	103	mem	lib	mod	mod	low	tg	ht	wh/0741.bmp
559.44	0.72	768	5	3	49	per	con	mod	mod	mod	nt	cr	nh/0959_nh.bmp
560.16	0.72	769	5	3	43	per	lib	low	mod	low	nt	fa	nh/0704_nh.bmp
560.88	0.72	770	6	3	43	per	lib	low	mod	low	nt	fa	nh/0704_nh.bmp
561.60	0.72	771	5	2	44	mem	con	mod	mod	mod	nt	ht	nh/0001_nh.bmp
562.32	0.72	772	6	3	18	per	lib	mod	mod	mod	nt	fa	nh/0679_nh.bmp
563.04	0.72	773	6	3	48	per	lib	low	mod	low	tg	ht	wh/0932.bmp
563.76	0.72	774	6	4	81	mem	con	mod	mod	mod	tg	ms	wh/0585.bmp
564.48	0.72	775	5	1	128	mem	con	mod	mod	low	tg	ht	wh/0597.bmp
565.20	0.72	776	6	2	34	mem	con	mod	mod	mod	tg	ms	wh/0642.bmp
565.92	0.72	777	6	1	15	mem	lib	mod	mod	low	nt	ht	nh/0868_nh.bmp
566.64	0.72	778	6	2	35	mem	con	mod	mod	mod	tg	ht	wh/0896.bmp
567.36	0.72	779	5	2	41	mem	con	mod	mod	mod	tg	ht	wh/0935.bmp
568.08	0.72	780	5	3	35	per	lib	low	mod	low	tg	ms	wh/0265.bmp
568.80	0.72	781	5	3	75	mem	con	mod	mod	low	tg	ht	wh/0031.bmp
569.52	0.72	782	6	1	117	mem	con	mod	mod	low	tg	ht	wh/0377.bmp
570.24	0.72	783	6	3	66	mem	con	mod	mod	low	tg	ht	wh/0392.bmp
570.96	0.72	784	1	4	29	mem	con	low	low	mod	nt	ms	nh/0659_nh.bmp
571.68	0.72	785	6	2	5	mem	lib	mod	mod	mod	nt	ht	nh/0580_nh.bmp
572.40	0.72	786	5	2	51	per	lib	low	mod	low	nt	cr	nh/0472_nh.bmp
573.12	0.72	787	4	4	90	mem	con	mod	mod	mod	nt	ht	nh/0463_nh.bmp
573.84	0.72	788	6	2	51	per	lib	low	mod	low	nt	cr	nh/0472_nh.bmp
574.56	0.72	789	5	1	94	per	con	mod	mod	mod	nt	fa	nh/0605_nh.bmp
575.28	0.72	790	5	1	20	per	lib	mod	mod	mod	nt	fa	nh/0899_nh.bmp
576.00	0.72	791	4	3	63	per	con	mod	mod	mod	nt	cr	nh/0017_nh.bmp
576.72	0.72	792	6	3	44	per	lib	low	mod	low	tg	ht	wh/0648.bmp
577.44	0.72	793	1	2	67	mem	con	low	low	mod	nt	ms	nh/0850_nh.bmp
578.16	0.72	794	5	4	77	mem	lib	mod	mod	mod	nt	ht	nh/0162_nh.bmp
578.88	0.72	795	6	3	57	per	con	mod	mod	mod	nt	cr	nh/0975_nh.bmp
579.60	0.72	796	5	1	96	per	con	mod	mod	mod	tg	ms	wh/0981.bmp
580.32	0.72	797	1	1	112	per	con	low	low	low	tg	ht	wh/0634.bmp
581.04	0.72	798	5	4	90	mem	con	mod	mod	mod	nt	ht	nh/0463_nh.bmp
581.76	0.72	799	6	1	5	mem	lib	mod	mod	low	nt	ht	nh/0421_nh.bmp
582.48	0.72	800	4	4	83	mem	con	mod	mod	mod	tg	ht	wh/0204.bmp
583.20	0.72	801	6	2	62	per	lib	low	mod	low	tg	ms	wh/0233.bmp
583.92	0.72	802	5	1	31	per	lib	mod	mod	mod	nt	fa	nh/0621_nh.bmp
584.64	0.72	803	5	4	69	mem	lib	mod	mod	mod	nt	ht	nh/0879_nh.bmp
585.36	0.72	804	1	1	60	mem	con	low	low	low	tg	ms	wh/0685.bmp
586.08	0.72	805	1	1	35	per	lib	low	low	low	tg	ht	wh/0662.bmp
586.80	0.72	806	5	3	63	per	con	mod	mod	mod	nt	cr	nh/0017_nh.bmp
587.52	0.72	807	6	3	89	per	con	low	mod	low	tg	ms	wh/0755.bmp
588.24	0.72	808	6	1	96	per	con	mod	mod	mod	tg	ms	wh/0981.bmp
588.96	0.72	809	4	4	71	mem	lib	mod	mod	mod	tg	ht	wh/0526.bmp
589.68	0.72	810	6	1	19	per	lib	mod	mod	mod	tg	ht	wh/0429.bmp
590.40	0.72	811	6	2	38	mem	con	mod	mod	mod	nt	ht	nh/0425_nh.bmp
591.12	0.72	812	6	3	36	per	lib	low	mod	low	nt	fa	nh/0897_nh.bmp
591.84	0.72	813	6	1	30	per	lib	mod	mod	mod	tg	ht	wh/0098.bmp
592.56	0.72	814	6	4	69	mem	lib	mod	mod	mod	nt	ht	nh/0879_nh.bmp
593.28	0.72	815	6	3	35	per	lib	low	mod	low	tg	ms	wh/0265.bmp
594.00	0.72	816	5	3	109	mem	lib	mod	mod	low	tg	ht	wh/0027.bmp
594.72	0.72	817	6	2	12	mem	lib	mod	mod	mod	tg	ht	wh/0919.bmp
595.44	0.72	818	6	3	31	per	lib	mod	mod	mod	tg	ms	wh/0750.bmp
596.16	0.72	819	6	2	41	mem	con	mod	mod	mod	tg	ht	wh/0935.bmp
596.88	0.72	820	6	1	124	mem	con	mod	mod	low	nt	ms	nh/0128_nh.bmp
597.60	0.72	821	5	3	28	per	lib	mod	mod	mod	tg	ht	wh/0473.bmp
598.32	0.72	822	6	2	13	mem	lib	mod	mod	mod	tg	ms	wh/0938.bmp
599.04	0.72	823	5	4	67	mem	lib	mod	mod	mod	tg	ht	wh/0724.bmp
599.76	0.72	824	6	1	23	per	lib	mod	mod	mod	nt	cr	nh/0658_nh.bmp
600.48	0.72	825	6	3	75	mem	con	mod	mod	low	tg	ht	wh/0031.bmp
601.20	0.72	826	6	3	24	per	lib	mod	mod	mod	tg	ht	wh/0100.bmp
601.92	0.72	827	6	3	61	per	con	mod	mod	mod	tg	ht	wh/0189.bmp
602.64	0.72	828	6	2	9	mem	lib	mod	mod	mod	tg	ht	wh/0070.bmp
603.36	0.72	829	1	4	122	per	lib	low	low	low	nt	cr	nh/0006_nh.bmp
604.08	0.72	830	6	1	84	per	con	mod	mod	mod	nt	cr	nh/0414_nh.bmp
604.80	0.72	831	6	2	52	per	lib	low	mod	low	tg	ms	wh/0836.bmp
605.52	0.72	832	5	2	1	mem	lib	mod	mod	mod	nt	ht	nh/0878_nh.bmp
606.24	0.72	833	6	1	128	mem	con	mod	mod	low	tg	ht	wh/0597.bmp
606.96	0.72	834	5	4	88	mem	con	mod	mod	mod	nt	ms	nh/0965_nh.bmp
607.68	0.72	835	6	1	94	per	con	mod	mod	mod	nt	fa	nh/0605_nh.bmp
608.40	0.72	836	6	3	49	per	con	mod	mod	mod	nt	cr	nh/0959_nh.bmp
609.12	0.72	837	6	1	20	per	lib	mod	mod	mod	nt	fa	nh/0899_nh.bmp
609.84	0.72	838	6	2	44	mem	con	mod	mod	mod	nt	ht	nh/0001_nh.bmp
610.56	0.72	839	3	3	23	per	lib	mod	mod	mod	nt	cr	nh/0942_nh.bmp
611.28	0.72	840	6	4	90	mem	con	mod	mod	mod	nt	ht	nh/0463_nh.bmp
612.00	0.72	841	6	1	2	mem	lib	mod	mod	low	nt	ht	nh/0733_nh.bmp
612.72	0.72	842	5	4	83	mem	con	mod	mod	mod	tg	ht	wh/0204.bmp
613.44	0.72	843	6	3	108	mem	lib	mod	mod	low	nt	ht	nh/0926_nh.bmp
614.16	0.72	844	6	4	67	mem	lib	mod	mod	mod	tg	ht	wh/0724.bmp
614.88	0.72	845	6	3	47	per	lib	low	mod	low	nt	fa	nh/0298_nh.bmp
615.60	0.72	846	1	2	78	mem	con	low	low	mod	nt	ms	nh/0601_nh.bmp
616.32	0.72	847	5	3	69	mem	con	mod	mod	low	nt	ht	nh/0435_nh.bmp
617.04	0.72	848	1	2	30	per	con	mod	low	mod	tg	ht	wh/0972.bmp
617.76	0.72	849	6	3	22	per	lib	mod	mod	mod	tg	ht	wh/0183.bmp
618.48	0.72	850	1	2	103	per	lib	mod	low	mod	nt	fa	nh/0687_nh.bmp
619.20	0.72	851	1	1	75	mem	lib	low	low	low	nt	ht	nh/0142_nh.bmp
619.92	0.72	852	6	3	28	per	lib	mod	mod	mod	tg	ht	wh/0473.bmp
620.64	0.72	853	6	3	63	per	con	mod	mod	mod	nt	cr	nh/0017_nh.bmp
621.36	0.72	854	6	4	88	mem	con	mod	mod	mod	nt	ms	nh/0965_nh.bmp
622.08	0.72	855	6	2	89	per	con	low	mod	low	tg	ms	wh/0325.bmp
622.80	0.72	856	6	3	103	mem	lib	mod	mod	low	tg	ht	wh/0741.bmp
623.52	0.72	857	6	3	93	per	con	low	mod	low	nt	cr	nh/0727_nh.bmp
624.24	0.72	858	5	4	71	mem	lib	mod	mod	mod	tg	ht	wh/0526.bmp
624.96	0.72	859	1	1	111	per	con	low	low	low	nt	cr	nh/0065_nh.bmp
625.68	0.72	860	6	4	83	mem	con	mod	mod	mod	tg	ht	wh/0204.bmp
626.40	0.72	861	6	4	86	mem	con	mod	mod	mod	tg	ms	wh/0841.bmp
627.12	0.72	862	6	1	31	per	lib	mod	mod	mod	nt	fa	nh/0621_nh.bmp
627.84	0.72	863	6	2	93	per	con	low	mod	low	nt	fa	nh/0745_nh.bmp
628.56	0.72	864	6	3	69	mem	con	mod	mod	low	nt	ht	nh/0435_nh.bmp
629.28	0.72	865	6	2	58	per	lib	low	mod	low	tg	ht	wh/0251.bmp
630.00	0.72	866	6	2	6	mem	lib	mod	mod	mod	tg	ht	wh/0857.bmp
630.72	0.72	867	6	3	37	per	lib	low	mod	low	tg	ms	wh/0105.bmp
631.44	0.72	868	6	2	36	mem	con	mod	mod	mod	nt	ms	nh/0700_nh.bmp
632.16	0.72	869	6	3	95	per	con	low	mod	low	tg	ht	wh/0168.bmp
632.88	0.72	870	6	3	109	mem	lib	mod	mod	low	tg	ht	wh/0027.bmp
633.60	0.72	871	1	2	97	per	lib	mod	low	mod	nt	fa	nh/0047_nh.bmp
634.32	0.72	872	6	1	87	per	con	mod	mod	mod	nt	cr	nh/0801_nh.bmp
635.04	0.72	873	6	4	77	mem	lib	mod	mod	mod	nt	ht	nh/0162_nh.bmp
635.76	0.72	874	6	3	73	mem	con	mod	mod	low	tg	ms	wh/0163.bmp
636.48	0.72	875	6	1	16	mem	lib	mod	mod	low	tg	ht	wh/0177.bmp
637.20	0.72	876	1	1	100	per	con	low	low	low	nt	cr	nh/0407_nh.bmp
637.92	0.72	877	6	1	92	per	con	mod	mod	mod	tg	ht	wh/0466.bmp
638.64	0.72	878	6	2	60	per	lib	low	mod	low	tg	ms	wh/0624.bmp
639.36	0.72	879	6	2	59	per	lib	low	mod	low	nt	fa	nh/0769_nh.bmp
640.08	0.72	880	4	3	23	per	lib	mod	mod	mod	nt	cr	nh/0942_nh.bmp
640.80	0.72	881	6	2	1	mem	lib	mod	mod	mod	nt	ht	nh/0878_nh.bmp
641.52	0.72	882	6	3	55	per	con	mod	mod	mod	nt	cr	nh/0393_nh.bmp
642.24	0.72	883	6	3	38	per	lib	low	mod	low	nt	fa	nh/0379_nh.bmp
642.96	0.72	884	5	3	23	per	lib	mod	mod	mod	nt	cr	nh/0942_nh.bmp
643.68	0.72	885	6	3	102	mem	lib	mod	mod	low	nt	ht	nh/0178_nh.bmp
644.40	0.72	886	5	4	93	mem	con	mod	mod	mod	nt	ms	nh/0785_nh.bmp
645.12	0.72	887	1	4	102	per	con	low	low	low	nt	cr	nh/0794_nh.bmp
645.84	0.72	888	6	3	98	mem	lib	mod	mod	low	tg	ht	wh/0115.bmp
646.56	0.72	889	6	1	11	mem	lib	mod	mod	low	nt	ht	nh/0341_nh.bmp
647.28	0.72	890	6	3	23	per	lib	mod	mod	mod	nt	cr	nh/0942_nh.bmp
648.00	0.72	891	6	4	93	mem	con	mod	mod	mod	nt	ms	nh/0785_nh.bmp
648.72	0.72	892	6	4	72	mem	lib	mod	mod	mod	nt	ht	nh/0600_nh.bmp
649.44	0.72	893	6	3	67	mem	con	mod	mod	low	nt	ht	nh/0155_nh.bmp
650.16	0.72	894	6	1	90	per	con	mod	mod	mod	tg	ht	wh/0534.bmp
650.88	0.72	895	6	4	71	mem	lib	mod	mod	mod	tg	ht	wh/0526.bmp
651.60	0.72	896	6	1	118	mem	con	mod	mod	low	nt	ht	nh/0529_nh.bmp
