onset	duration	trial	pres	ts_blk	ts_trl	task	crit	disc	mem_disc	per_disc	per_type	accuracy	stim_file
7.20	0.72	1	1	2	44	mem	lib	low	low	low	nt	ht	nh/1001_nh.bmp
7.92	0.72	2	1	3	124	per	con	low	mod	low	nt	cr	nh/0704_nh.bmp
8.64	0.72	3	1	2	10	mem	lib	mod	mod	mod	tg	ht	wh/0984.bmp
9.36	0.72	4	1	3	100	per	lib	low	low	low	tg	ht	wh/1022.bmp
10.08	0.72	5	1	3	49	per	lib	mod	mod	mod	nt	cr	nh/0959_nh.bmp
10.80	0.72	6	1	3	117	per	con	low	mod	low	tg	ht	wh/0932.bmp
11.52	0.72	7	1	1	48	mem	con	mod	mod	mod	tg	ht	wh/0938.bmp
12.24	0.72	8	1	4	124	mem	lib	mod	mod	low	nt	ht	nh/0133_nh.bmp
12.96	0.72	9	1	4	125	mem	lib	mod	mod	low	tg	ht	wh/0392.bmp
13.68	0.72	10	1	3	122	per	con	low	mod	low	nt	cr	nh/0379_nh.bmp
14.40	0.72	11	1	3	73	mem	lib	mod	mod	mod	tg	ht	wh/0841.bmp
15.12	0.72	12	1	2	83	mem	con	mod	mod	low	tg	ht	wh/0177.bmp
15.84	0.72	13	1	2	102	per	lib	low	mod	low	nt	cr	nh/0745_nh.bmp
16.56	0.72	14	2	4	125	mem	lib	mod	mod	low	tg	ht	wh/0392.bmp
17.28	0.72	15	1	2	11	mem	lib	mod	mod	mod	nt	ht	nh/0425_nh.bmp
18.00	0.72	16	1	1	16	per	con	low	mod	low	nt	cr	nh/0472_nh.bmp
18.72	0.72	17	1	1	8	per	con	low	mod	low	nt	cr	nh/0573_nh.bmp
19.44	0.72	18	1	4	61	mem	con	mod	mod	mod	nt	ms	nh/0600_nh.bmp
20.16	0.72	19	1	1	114	per	lib	mod	mod	mod	nt	cr	nh/0801_nh.bmp
20.88	0.72	20	1	2	100	per	lib	low	mod	low	tg	ms	wh/0325.bmp
21.60	0.72	21	1	4	87	per	lib	low	mod	low	nt	fa	nh/0727_nh.bmp
22.32	0.72	22	1	1	124	per	lib	mod	mod	mod	nt	cr	nh/0414_nh.bmp
23.04	0.72	23	1	1	47	mem	con	mod	mod	mod	tg	ht	wh/0070.bmp
23.76	0.72	24	1	1	44	mem	con	mod	mod	mod	nt	ms	nh/0580_nh.bmp
24.48	0.72	25	1	2	46	mem	lib	low	low	low	nt	ht	nh/0354_nh.bmp
25.20	0.72	26	2	3	117	per	con	low	mod	low	tg	ht	wh/0932.bmp
25.92	0.72	27	1	1	37	mem	con	mod	mod	mod	tg	ht	wh/0857.bmp
26.64	0.72	28	1	2	19	per	con	mod	mod	mod	nt	cr	nh/0658_nh.bmp
27.36	0.72	29	1	2	97	per	lib	low	mod	low	nt	cr	nh/0766_nh.bmp
28.08	0.72	30	1	4	113	mem	lib	mod	mod	low	nt	ht	nh/0155_nh.bmp
28.80	0.72	31	1	1	64	per	lib	low	low	low	tg	ht	wh/0634.bmp
29.52	0.72	32	2	2	19	per	con	mod	mod	mod	nt	cr	nh/0658_nh.bmp
30.24	0.72	33	1	4	83	per	lib	low	mod	low	nt	fa	nh/0200_nh.bmp
30.96	0.72	34	1	4	86	per	lib	low	mod	low	tg	ht	wh/0168.bmp
31.68	0.72	35	1	1	97	mem	lib	mod	mod	low	tg	ht	wh/0377.bmp
32.40	0.72	36	1	2	53	per	con	low	low	low	tg	ms	wh/0788.bmp
33.12	0.72	37	1	3	10	mem	con	mod	mod	low	nt	ht	nh/0014_nh.bmp
33.84	0.72	38	1	4	48	per	lib	mod	low	mod	tg	ht	wh/0149.bmp
34.56	0.72	39	1	3	80	mem	lib	mod	mod	mod	tg	ht	wh/0585.bmp
35.28	0.72	40	1	4	49	mem	con	mod	mod	mod	tg	ht	wh/0002.bmp
36.00	0.72	41	1	1	108	mem	lib	mod	mod	low	nt	ht	nh/0816_nh.bmp
36.72	0.72	42	1	1	43	mem	con	mod	mod	mod	nt	ht	nh/0287_nh.bmp
37.44	0.72	43	2	1	114	per	lib	mod	mod	mod	nt	cr	nh/0801_nh.bmp
38.16	0.72	44	1	4	126	mem	lib	mod	mod	low	nt	ht	nh/0435_nh.bmp
38.88	0.72	45	1	1	107	mem	lib	mod	mod	low	tg	ht	wh/0019.bmp
39.60	0.72	46	1	4	118	mem	lib	mod	mod	low	tg	ht	wh/0031.bmp
40.32	0.72	47	3	1	114	per	lib	mod	mod	mod	nt	cr	nh/0801_nh.bmp
41.04	0.72	48	2	1	8	per	con	low	mod	low	nt	cr	nh/0573_nh.bmp
41.76	0.72	49	1	4	50	mem	con	mod	mod	mod	tg	ms	wh/0724.bmp
42.48	0.72	50	1	1	28	per	con	mod	low	mod	nt	cr	nh/0047_nh.bmp
43.20	0.72	51	1	3	99	per	lib	low	low	low	tg	ht	wh/0121.bmp
43.92	0.72	52	1	4	111	per	con	low	low	low	nt	cr	nh/0432_nh.bmp
44.64	0.72	53	1	2	94	mem	con	mod	mod	low	nt	ms	nh/0868_nh.bmp
45.36	0.72	54	1	2	14	mem	lib	mod	mod	mod	tg	ht	wh/0642.bmp
46.08	0.72	55	1	4	5	per	con	mod	mod	mod	nt	cr	nh/0637_nh.bmp
46.80	0.72	56	1	1	74	mem	con	low	low	mod	nt	ht	nh/0326_nh.bmp
47.52	0.72	57	1	1	34	mem	con	mod	mod	mod	tg	ht	wh/0919.bmp
48.24	0.72	58	1	2	128	mem	con	low	low	low	nt	ht	nh/0028_nh.bmp
48.96	0.72	59	1	2	90	mem	con	mod	mod	low	nt	ht	nh/0733_nh.bmp
49.68	0.72	60	1	1	13	per	con	low	mod	low	nt	cr	nh/0769_nh.bmp
50.40	0.72	61	1	3	93	mem	con	low	low	mod	nt	ms	nh/0272_nh.bmp
51.12	0.72	62	1	4	11	per	con	mod	mod	mod	tg	ht	wh/0183.bmp
51.84	0.72	63	1	2	65	per	lib	mod	low	mod	tg	ht	wh/0083.bmp
52.56	0.72	64	1	2	50	per	con	low	low	low	nt	cr	nh/0191_nh.bmp
53.28	0.72	65	1	2	116	mem	con	low	low	low	nt	ms	nh/0142_nh.bmp
54.00	0.72	66	1	2	118	mem	con	low	low	low	nt	ms	nh/0862_nh.bmp
54.72	0.72	67	1	3	72	mem	lib	mod	mod	mod	nt	ht	nh/0463_nh.bmp
55.44	0.72	68	2	4	87	per	lib	low	mod	low	nt	fa	nh/0727_nh.bmp
56.16	0.72	69	2	3	73	mem	lib	mod	mod	mod	tg	ht	wh/0841.bmp
56.88	0.72	70	1	2	28	per	con	mod	mod	mod	tg	ht	wh/0627.bmp
57.60	0.72	71	2	2	100	per	lib	low	mod	low	tg	ms	wh/0325.bmp
58.32	0.72	72	2	2	28	per	con	mod	mod	mod	tg	ht	wh/0627.bmp
59.04	0.72	73	1	2	32	per	con	mod	mod	mod	tg	ht	wh/0429.bmp
59.76	0.72	74	1	1	1	per	con	low	mod	low	nt	cr	nh/0853_nh.bmp
60.48	0.72	75	2	4	49	mem	con	mod	mod	mod	tg	ht	wh/0002.bmp
61.20	0.72	76	1	1	42	mem	con	mod	mod	mod	nt	ht	nh/0847_nh.bmp
61.92	0.72	77	2	2	102	per	lib	low	mod	low	nt	cr	nh/0745_nh.bmp
62.64	0.72	78	2	2	90	mem	con	mod	mod	low	nt	ht	nh/0733_nh.bmp
63.36	0.72	79	1	2	99	per	lib	low	mod	low	nt	cr	nh/0387_nh.bmp
64.08	0.72	80	1	3	52	per	lib	mod	mod	mod	tg	ht	wh/0405.bmp
64.80	0.72	81	1	3	50	per	lib	mod	mod	mod	tg	ht	wh/0189.bmp
65.52	0.72	82	1	1	73	mem	con	low	low	mod	tg	ms	wh/0541.bmp
66.24	0.72	83	1	3	128	per	con	low	mod	low	tg	ms	wh/0265.bmp
66.96	0.72	84	3	2	28	per	con	mod	mod	mod	tg	ht	wh/0627.bmp
67.68	0.72	85	1	3	15	mem	con	mod	mod	low	nt	ht	nh/0926_nh.bmp
68.40	0.72	86	1	1	117	per	lib	mod	mod	mod	tg	ht	wh/0981.bmp
69.12	0.72	87	1	3	2	mem	con	mod	mod	low	nt	ms	nh/0178_nh.bmp
69.84	0.72	88	1	3	16	mem	con	mod	mod	low	tg	ht	wh/0115.bmp
70.56	0.72	89	2	4	86	per	lib	low	mod	low	tg	ht	wh/0168.bmp
71.28	0.72	90	1	3	89	mem	con	low	low	mod	nt	ht	nh/0321_nh.bmp
72.00	0.72	91	3	2	19	per	con	mod	mod	mod	nt	cr	nh/0658_nh.bmp
72.72	0.72	92	1	2	1	mem	lib	mod	mod	mod	tg	ht	wh/0935.bmp
73.44	0.72	93	2	3	49	per	lib	mod	mod	mod	nt	cr	nh/0959_nh.bmp
74.16	0.72	94	3	4	86	per	lib	low	mod	low	tg	ht	wh/0168.bmp
74.88	0.72	95	2	2	94	mem	con	mod	mod	low	nt	ms	nh/0868_nh.bmp
75.60	0.72	96	2	3	122	per	con	low	mod	low	nt	cr	nh/0379_nh.bmp
76.32	0.72	97	2	3	15	mem	con	mod	mod	low	nt	ht	nh/0926_nh.bmp
77.04	0.72	98	3	4	125	mem	lib	mod	mod	low	tg	ht	wh/0392.bmp
77.76	0.72	99	2	1	42	mem	con	mod	mod	mod	nt	ht	nh/0847_nh.bmp
78.48	0.72	100	2	2	32	per	con	mod	mod	mod	tg	ht	wh/0429.bmp
79.20	0.72	101	2	4	118	mem	lib	mod	mod	low	tg	ht	wh/0031.bmp
79.92	0.72	102	2	1	43	mem	con	mod	mod	mod	nt	ht	nh/0287_nh.bmp
80.64	0.72	103	1	4	115	mem	lib	mod	mod	low	nt	ht	nh/0515_nh.bmp
81.36	0.72	104	1	1	104	mem	lib	mod	mod	low	tg	ht	wh/0997.bmp
82.08	0.72	105	1	4	4	per	con	mod	mod	mod	nt	cr	nh/0942_nh.bmp
82.80	0.72	106	2	4	5	per	con	mod	mod	mod	nt	cr	nh/0637_nh.bmp
83.52	0.72	107	1	4	8	per	con	mod	mod	mod	tg	ht	wh/0473.bmp
84.24	0.72	108	2	4	11	per	con	mod	mod	mod	tg	ht	wh/0183.bmp
84.96	0.72	109	2	4	115	mem	lib	mod	mod	low	nt	ht	nh/0515_nh.bmp
85.68	0.72	110	1	2	73	per	lib	mod	low	mod	nt	cr	nh/0103_nh.bmp
86.40	0.72	111	1	1	112	mem	lib	mod	mod	low	nt	ht	nh/0066_nh.bmp
87.12	0.72	112	1	4	101	per	con	low	low	low	tg	ms	wh/0790.bmp
87.84	0.72	113	1	3	120	per	con	low	mod	low	nt	cr	nh/0897_nh.bmp
88.56	0.72	114	1	2	16	mem	lib	mod	mod	mod	tg	ht	wh/0896.bmp
89.28	0.72	115	2	4	126	mem	lib	mod	mod	low	nt	ht	nh/0435_nh.bmp
90.00	0.72	116	1	4	94	per	lib	low	mod	low	nt	fa	nh/1021_nh.bmp
90.72	0.72	117	2	1	104	mem	lib	mod	mod	low	tg	ht	wh/0997.bmp
91.44	0.72	118	2	2	1	mem	lib	mod	mod	mod	tg	ht	wh/0935.bmp
92.16	0.72	119	1	3	67	mem	lib	mod	mod	mod	tg	ht	wh/0204.bmp
92.88	0.72	120	4	2	28	per	con	mod	mod	mod	tg	ht	wh/0627.bmp
93.60	0.72	121	1	4	37	per	lib	mod	low	mod	tg	ht	wh/0776.bmp
94.32	0.72	122	1	4	13	per	con	mod	mod	mod	tg	ms	wh/0750.bmp
95.04	0.72	123	1	4	29	mem	con	low	low	low	tg	ms	wh/0979.bmp
95.76	0.72	124	1	2	82	mem	con	mod	mod	low	nt	ht	nh/0421_nh.bmp
96.48	0.72	125	1	1	102	mem	lib	mod	mod	low	tg	ht	wh/0597.bmp
97.20	0.72	126	1	1	111	mem	lib	mod	mod	low	nt	ht	nh/0529_nh.bmp
97.92	0.72	127	1	4	59	mem	con	mod	mod	mod	nt	ms	nh/0879_nh.bmp
98.64	0.72	128	1	3	85	mem	con	low	low	mod	nt	ms	nh/0527_nh.bmp
99.36	0.72	129	3	4	118	mem	lib	mod	mod	low	tg	ht	wh/0031.bmp
100.08	0.72	130	1	3	110	per	lib	low	low	low	nt	cr	nh/1012_nh.bmp
100.80	0.72	131	2	1	112	mem	lib	mod	mod	low	nt	ht	nh/0066_nh.bmp
101.52	0.72	132	1	2	13	mem	lib	mod	mod	mod	nt	ht	nh/0955_nh.bmp
102.24	0.72	133	1	3	59	per	lib	mod	mod	mod	nt	cr	nh/0017_nh.bmp
102.96	0.72	134	1	4	119	mem	lib	mod	mod	low	tg	ms	wh/0163.bmp
103.68	0.72	135	3	3	49	per	lib	mod	mod	mod	nt	cr	nh/0959_nh.bmp
104.40	0.72	136	3	4	11	per	con	mod	mod	mod	tg	ht	wh/0183.bmp
105.12	0.72	137	1	1	57	per	lib	low	low	low	nt	fa	nh/0065_nh.bmp
105.84	0.72	138	1	2	29	per	con	mod	mod	mod	nt	cr	nh/0621_nh.bmp
106.56	0.72	139	3	3	15	mem	con	mod	mod	low	nt	ht	nh/0926_nh.bmp
107.28	0.72	140	1	4	2	per	con	mod	mod	mod	nt	cr	nh/0884_nh.bmp
108.00	0.72	141	1	2	111	per	lib	low	mod	low	tg	ht	wh/0145.bmp
108.72	0.72	142	2	1	44	mem	con	mod	mod	mod	nt	ms	nh/0580_nh.bmp
109.44	0.72	143	1	4	66	mem	lib	low	low	low	nt	ht	nh/0499_nh.bmp
110.16	0.72	144	2	3	128	per	con	low	mod	low	tg	ms	wh/0265.bmp
110.88	0.72	145	3	1	44	mem	con	mod	mod	mod	nt	ms	nh/0580_nh.bmp
111.60	0.72	146	2	4	124	mem	lib	mod	mod	low	nt	ht	nh/0133_nh.bmp
112.32	0.72	147	4	4	118	mem	lib	mod	mod	low	tg	ht	wh/0031.bmp
113.04	0.72	148	4	4	86	per	lib	low	mod	low	tg	ht	wh/0168.bmp
113.76	0.72	149	2	3	124	per	con	low	mod	low	nt	cr	nh/0704_nh.bmp
114.48	0.72	150	1	2	22	per	con	mod	mod	mod	nt	cr	nh/0289_nh.bmp
115.20	0.72	151	2	3	2	mem	con	mod	mod	low	nt	ms	nh/0178_nh.bmp
115.92	0.72	152	2	3	120	per	con	low	mod	low	nt	cr	nh/0897_nh.bmp
116.64	0.72	153	2	4	13	per	con	mod	mod	mod	tg	ms	wh/0750.bmp
117.36	0.72	154	3	1	8	per	con	low	mod	low	nt	cr	nh/0573_nh.bmp
118.08	0.72	155	1	3	4	mem	con	mod	mod	low	nt	ht	nh/0649_nh.bmp
118.80	0.72	156	3	3	117	per	con	low	mod	low	tg	ht	wh/0932.bmp
119.52	0.72	157	2	4	4	per	con	mod	mod	mod	nt	cr	nh/0942_nh.bmp
120.24	0.72	158	1	2	75	per	lib	mod	low	mod	tg	ht	wh/0873.bmp
120.96	0.72	159	3	4	49	mem	con	mod	mod	mod	tg	ht	wh/0002.bmp
121.68	0.72	160	1	2	88	mem	con	mod	mod	low	nt	ms	nh/0341_nh.bmp
122.40	0.72	161	1	4	30	mem	con	low	low	low	nt	ms	nh/0330_nh.bmp
123.12	0.72	162	1	1	118	per	lib	mod	mod	mod	nt	cr	nh/0391_nh.bmp
123.84	0.72	163	1	1	6	per	con	low	mod	low	tg	ms	wh/0624.bmp
124.56	0.72	164	1	3	9	mem	con	mod	mod	low	tg	ht	wh/0040.bmp
125.28	0.72	165	2	3	67	mem	lib	mod	mod	mod	tg	ht	wh/0204.bmp
126.00	0.72	166	1	2	67	per	lib	mod	low	mod	nt	fa	nh/0367_nh.bmp
126.72	0.72	167	1	3	24	per	con	mod	low	mod	tg	ht	wh/0829.bmp
127.44	0.72	168	1	1	15	per	con	low	mod	low	tg	ms	wh/0251.bmp
128.16	0.72	169	1	2	24	per	con	mod	mod	mod	tg	ms	wh/0098.bmp
128.88	0.72	170	4	3	15	mem	con	mod	mod	low	nt	ht	nh/0926_nh.bmp
129.60	0.72	171	1	1	23	per	con	mod	low	mod	tg	ms	wh/0960.bmp
130.32	0.72	172	1	2	96	mem	con	mod	mod	low	tg	ms	wh/0675.bmp
131.04	0.72	173	2	2	96	mem	con	mod	mod	low	tg	ms	wh/0675.bmp
131.76	0.72	174	1	3	86	mem	con	low	low	mod	nt	ms	nh/0696_nh.bmp
132.48	0.72	175	2	1	117	per	lib	mod	mod	mod	tg	ht	wh/0981.bmp
133.20	0.72	176	2	3	9	mem	con	mod	mod	low	tg	ht	wh/0040.bmp
133.92	0.72	177	1	1	12	per	con	low	mod	low	tg	ms	wh/0836.bmp
134.64	0.72	178	2	4	113	mem	lib	mod	mod	low	nt	ht	nh/0155_nh.bmp
135.36	0.72	179	1	1	120	per	lib	mod	mod	mod	tg	ht	wh/0466.bmp
136.08	0.72	180	2	2	99	per	lib	low	mod	low	nt	cr	nh/0387_nh.bmp
136.80	0.72	181	2	4	2	per	con	mod	mod	mod	nt	cr	nh/0884_nh.bmp
137.52	0.72	182	1	1	91	mem	lib	low	low	mod	tg	ms	wh/0740.bmp
138.24	0.72	183	1	4	53	mem	con	mod	mod	mod	nt	ht	nh/0596_nh.bmp
138.96	0.72	184	3	3	67	mem	lib	mod	mod	mod	tg	ht	wh/0204.bmp
139.68	0.72	185	1	3	3	mem	con	mod	mod	low	tg	ht	wh/0741.bmp
140.40	0.72	186	2	1	108	mem	lib	mod	mod	low	nt	ht	nh/0816_nh.bmp
141.12	0.72	187	2	3	3	mem	con	mod	mod	low	tg	ht	wh/0741.bmp
141.84	0.72	188	2	2	83	mem	con	mod	mod	low	tg	ht	wh/0177.bmp
142.56	0.72	189	2	3	80	mem	lib	mod	mod	mod	tg	ht	wh/0585.bmp
143.28	0.72	190	1	2	77	per	lib	mod	low	mod	tg	ht	wh/0906.bmp
144.00	0.72	191	1	2	101	per	lib	low	mod	low	tg	ht	wh/0514.bmp
144.72	0.72	192	1	4	7	per	con	mod	mod	mod	tg	ms	wh/0100.bmp
145.44	0.72	193	2	4	61	mem	con	mod	mod	mod	nt	ms	nh/0600_nh.bmp
146.16	0.72	194	3	1	108	mem	lib	mod	mod	low	nt	ht	nh/0816_nh.bmp
146.88	0.72	195	1	2	6	mem	lib	mod	mod	mod	nt	ht	nh/0001_nh.bmp
147.60	0.72	196	1	3	102	per	lib	low	low	low	nt	fa	nh/0794_nh.bmp
148.32	0.72	197	1	2	91	mem	con	mod	mod	low	tg	ht	wh/0739.bmp
149.04	0.72	198	4	4	11	per	con	mod	mod	mod	tg	ht	wh/0183.bmp
149.76	0.72	199	1	2	121	mem	con	low	low	low	tg	ms	wh/0682.bmp
150.48	0.72	200	1	3	20	per	con	mod	low	mod	nt	cr	nh/0009_nh.bmp
151.20	0.72	201	2	2	101	per	lib	low	mod	low	tg	ht	wh/0514.bmp
151.92	0.72	202	1	3	116	per	con	low	mod	low	tg	ms	wh/0648.bmp
152.64	0.72	203	3	1	112	mem	lib	mod	mod	low	nt	ht	nh/0066_nh.bmp
153.36	0.72	204	2	2	29	per	con	mod	mod	mod	nt	cr	nh/0621_nh.bmp
154.08	0.72	205	3	4	115	mem	lib	mod	mod	low	nt	ht	nh/0515_nh.bmp
154.80	0.72	206	1	1	24	per	con	mod	low	mod	nt	fa	nh/0687_nh.bmp
155.52	0.72	207	1	2	47	mem	lib	low	low	low	nt	ht	nh/0522_nh.bmp
156.24	0.72	208	2	2	82	mem	con	mod	mod	low	nt	ht	nh/0421_nh.bmp
156.96	0.72	209	1	4	3	per	con	mod	mod	mod	nt	cr	nh/0679_nh.bmp
157.68	0.72	210	3	2	1	mem	lib	mod	mod	mod	tg	ht	wh/0935.bmp
158.40	0.72	211	1	3	111	per	lib	low	low	low	tg	ht	wh/0656.bmp
159.12	0.72	212	4	4	49	mem	con	mod	mod	mod	tg	ht	wh/0002.bmp
159.84	0.72	213	5	4	49	mem	con	mod	mod	mod	tg	ht	wh/0002.bmp
160.56	0.72	214	1	3	13	mem	con	mod	mod	low	tg	ms	wh/0027.bmp
161.28	0.72	215	1	3	74	mem	lib	mod	mod	mod	nt	ht	nh/0785_nh.bmp
162.00	0.72	216	4	1	108	mem	lib	mod	mod	low	nt	ht	nh/0816_nh.bmp
162.72	0.72	217	2	4	53	mem	con	mod	mod	mod	nt	ht	nh/0596_nh.bmp
163.44	0.72	218	3	3	80	mem	lib	mod	mod	mod	tg	ht	wh/0585.bmp
164.16	0.72	219	1	1	125	per	lib	mod	mod	mod	nt	cr	nh/0605_nh.bmp
164.88	0.72	220	4	3	117	per	con	low	mod	low	tg	ht	wh/0932.bmp
165.60	0.72	221	1	3	125	per	con	low	mod	low	nt	cr	nh/0298_nh.bmp
166.32	0.72	222	2	3	50	per	lib	mod	mod	mod	tg	ht	wh/0189.bmp
167.04	0.72	223	2	1	111	mem	lib	mod	mod	low	nt	ht	nh/0529_nh.bmp
167.76	0.72	224	1	4	35	per	lib	mod	low	mod	nt	cr	nh/0856_nh.bmp
168.48	0.72	225	1	2	113	mem	con	low	low	low	tg	ms	wh/0057.bmp
169.20	0.72	226	3	3	122	per	con	low	mod	low	nt	cr	nh/0379_nh.bmp
169.92	0.72	227	2	2	10	mem	lib	mod	mod	mod	tg	ht	wh/0984.bmp
170.64	0.72	228	1	1	98	mem	lib	mod	mod	low	nt	ht	nh/0128_nh.bmp
171.36	0.72	229	2	1	34	mem	con	mod	mod	mod	tg	ht	wh/0919.bmp
172.08	0.72	230	2	3	125	per	con	low	mod	low	nt	cr	nh/0298_nh.bmp
172.80	0.72	231	1	3	58	per	lib	mod	mod	mod	nt	cr	nh/0975_nh.bmp
173.52	0.72	232	1	3	35	mem	lib	low	low	mod	tg	ht	wh/0752.bmp
174.24	0.72	233	1	3	112	per	lib	low	low	low	nt	cr	nh/0423_nh.bmp
174.96	0.72	234	1	4	28	mem	con	low	low	low	tg	ms	wh/0485.bmp
175.68	0.72	235	2	1	107	mem	lib	mod	mod	low	tg	ht	wh/0019.bmp
176.40	0.72	236	1	1	121	per	lib	mod	mod	mod	tg	ht	wh/0534.bmp
177.12	0.72	237	3	4	61	mem	con	mod	mod	mod	nt	ms	nh/0600_nh.bmp
177.84	0.72	238	2	3	13	mem	con	mod	mod	low	tg	ms	wh/0027.bmp
178.56	0.72	239	2	4	50	mem	con	mod	mod	mod	tg	ms	wh/0724.bmp
179.28	0.72	240	3	4	2	per	con	mod	mod	mod	nt	cr	nh/0884_nh.bmp
180.00	0.72	241	1	4	62	mem	con	mod	mod	mod	tg	ms	wh/0526.bmp
180.72	0.72	242	1	3	61	per	lib	mod	mod	mod	nt	cr	nh/0393_nh.bmp
181.44	0.72	243	1	4	51	mem	con	mod	mod	mod	nt	ms	nh/0162_nh.bmp
182.16	0.72	244	2	3	74	mem	lib	mod	mod	mod	nt	ht	nh/0785_nh.bmp
182.88	0.72	245	1	3	119	per	con	low	mod	low	tg	ms	wh/0105.bmp
183.60	0.72	246	2	3	16	mem	con	mod	mod	low	tg	ht	wh/0115.bmp
184.32	0.72	247	2	1	48	mem	con	mod	mod	mod	tg	ht	wh/0938.bmp
185.04	0.72	248	4	2	1	mem	lib	mod	mod	mod	tg	ht	wh/0935.bmp
185.76	0.72	249	2	1	121	per	lib	mod	mod	mod	tg	ht	wh/0534.bmp
186.48	0.72	250	3	2	83	mem	con	mod	mod	low	tg	ht	wh/0177.bmp
187.20	0.72	251	2	2	11	mem	lib	mod	mod	mod	nt	ht	nh/0425_nh.bmp
187.92	0.72	252	3	1	42	mem	con	mod	mod	mod	nt	ht	nh/0847_nh.bmp
188.64	0.72	253	2	3	10	mem	con	mod	mod	low	nt	ht	nh/0014_nh.bmp
189.36	0.72	254	4	2	19	per	con	mod	mod	mod	nt	cr	nh/0658_nh.bmp
190.08	0.72	255	5	2	28	per	con	mod	mod	mod	tg	ht	wh/0627.bmp
190.80	0.72	256	1	3	56	per	lib	mod	mod	mod	tg	ht	wh/0274.bmp
191.52	0.72	257	3	1	48	mem	con	mod	mod	mod	tg	ht	wh/0938.bmp
192.24	0.72	258	3	1	104	mem	lib	mod	mod	low	tg	ht	wh/0997.bmp
192.96	0.72	259	2	1	102	mem	lib	mod	mod	low	tg	ht	wh/0597.bmp
193.68	0.72	260	2	2	22	per	con	mod	mod	mod	nt	cr	nh/0289_nh.bmp
194.40	0.72	261	4	1	114	per	lib	mod	mod	mod	nt	cr	nh/0801_nh.bmp
195.12	0.72	262	3	3	125	per	con	low	mod	low	nt	cr	nh/0298_nh.bmp
195.84	0.72	263	1	2	40	mem	lib	low	low	low	tg	ht	wh/0362.bmp
196.56	0.72	264	2	3	52	per	lib	mod	mod	mod	tg	ht	wh/0405.bmp
197.28	0.72	265	2	1	15	per	con	low	mod	low	tg	ms	wh/0251.bmp
198.00	0.72	266	1	1	3	per	con	low	mod	low	tg	ms	wh/0233.bmp
198.72	0.72	267	2	1	37	mem	con	mod	mod	mod	tg	ht	wh/0857.bmp
199.44	0.72	268	2	3	59	per	lib	mod	mod	mod	nt	cr	nh/0017_nh.bmp
200.16	0.72	269	1	3	65	mem	lib	mod	mod	mod	nt	ht	nh/0965_nh.bmp
200.88	0.72	270	3	3	2	mem	con	mod	mod	low	nt	ms	nh/0178_nh.bmp
201.60	0.72	271	1	2	27	per	con	mod	mod	mod	tg	ht	wh/0692.bmp
202.32	0.72	272	3	2	96	mem	con	mod	mod	low	tg	ms	wh/0675.bmp
203.04	0.72	273	1	4	128	mem	lib	mod	mod	low	tg	ht	wh/0353.bmp
203.76	0.72	274	2	3	65	mem	lib	mod	mod	mod	nt	ht	nh/0965_nh.bmp
204.48	0.72	275	2	2	13	mem	lib	mod	mod	mod	nt	ht	nh/0955_nh.bmp
205.20	0.72	276	2	3	116	per	con	low	mod	low	tg	ms	wh/0648.bmp
205.92	0.72	277	2	2	16	mem	lib	mod	mod	mod	tg	ht	wh/0896.bmp
206.64	0.72	278	1	4	90	per	lib	low	mod	low	nt	fa	nh/0116_nh.bmp
207.36	0.72	279	2	2	91	mem	con	mod	mod	low	tg	ht	wh/0739.bmp
208.08	0.72	280	3	2	90	mem	con	mod	mod	low	nt	ht	nh/0733_nh.bmp
208.80	0.72	281	2	1	6	per	con	low	mod	low	tg	ms	wh/0624.bmp
209.52	0.72	282	3	4	124	mem	lib	mod	mod	low	nt	ht	nh/0133_nh.bmp
210.24	0.72	283	1	2	9	mem	lib	mod	mod	mod	nt	ht	nh/0700_nh.bmp
210.96	0.72	284	3	3	9	mem	con	mod	mod	low	tg	ht	wh/0040.bmp
211.68	0.72	285	1	1	25	per	con	mod	low	mod	nt	cr	nh/0332_nh.bmp
212.40	0.72	286	3	3	50	per	lib	mod	mod	mod	tg	ht	wh/0189.bmp
213.12	0.72	287	3	3	16	mem	con	mod	mod	low	tg	ht	wh/0115.bmp
213.84	0.72	288	2	1	120	per	lib	mod	mod	mod	tg	ht	wh/0466.bmp
214.56	0.72	289	1	2	18	per	con	mod	mod	mod	nt	cr	nh/0899_nh.bmp
215.28	0.72	290	4	4	61	mem	con	mod	mod	mod	nt	ms	nh/0600_nh.bmp
216.00	0.72	291	2	3	58	per	lib	mod	mod	mod	nt	cr	nh/0975_nh.bmp
216.72	0.72	292	2	1	118	per	lib	mod	mod	mod	nt	cr	nh/0391_nh.bmp
217.44	0.72	293	2	2	97	per	lib	low	mod	low	nt	cr	nh/0766_nh.bmp
218.16	0.72	294	3	3	10	mem	con	mod	mod	low	nt	ht	nh/0014_nh.bmp
218.88	0.72	295	3	3	73	mem	lib	mod	mod	mod	tg	ht	wh/0841.bmp
219.60	0.72	296	3	2	82	mem	con	mod	mod	low	nt	ht	nh/0421_nh.bmp
220.32	0.72	297	2	2	27	per	con	mod	mod	mod	tg	ht	wh/0692.bmp
221.04	0.72	298	2	1	12	per	con	low	mod	low	tg	ms	wh/0836.bmp
221.76	0.72	299	3	1	12	per	con	low	mod	low	tg	ms	wh/0836.bmp
222.48	0.72	300	4	1	104	mem	lib	mod	mod	low	tg	ht	wh/0997.bmp
223.20	0.72	301	1	4	96	per	lib	low	mod	low	tg	ht	wh/0205.bmp
223.92	0.72	302	2	2	111	per	lib	low	mod	low	tg	ht	wh/0145.bmp
224.64	0.72	303	2	1	124	per	lib	mod	mod	mod	nt	cr	nh/0414_nh.bmp
225.36	0.72	304	3	2	27	per	con	mod	mod	mod	tg	ht	wh/0692.bmp
226.08	0.72	305	2	4	90	per	lib	low	mod	low	nt	fa	nh/0116_nh.bmp
226.80	0.72	306	3	1	15	per	con	low	mod	low	tg	ms	wh/0251.bmp
227.52	0.72	307	1	3	66	mem	lib	mod	mod	mod	tg	ht	wh/0561.bmp
228.24	0.72	308	3	4	126	mem	lib	mod	mod	low	nt	ht	nh/0435_nh.bmp
228.96	0.72	309	2	3	56	per	lib	mod	mod	mod	tg	ht	wh/0274.bmp
229.68	0.72	310	4	3	125	per	con	low	mod	low	nt	cr	nh/0298_nh.bmp
230.40	0.72	311	3	1	34	mem	con	mod	mod	mod	tg	ht	wh/0919.bmp
231.12	0.72	312	2	4	96	per	lib	low	mod	low	tg	ht	wh/0205.bmp
231.84	0.72	313	3	2	101	per	lib	low	mod	low	tg	ht	wh/0514.bmp
232.56	0.72	314	3	2	102	per	lib	low	mod	low	nt	cr	nh/0745_nh.bmp
233.28	0.72	315	3	1	120	per	lib	mod	mod	mod	tg	ht	wh/0466.bmp
234.00	0.72	316	2	4	8	per	con	mod	mod	mod	tg	ht	wh/0473.bmp
234.72	0.72	317	4	3	50	per	lib	mod	mod	mod	tg	ht	wh/0189.bmp
235.44	0.72	318	4	3	49	per	lib	mod	mod	mod	nt	cr	nh/0959_nh.bmp
236.16	0.72	319	4	1	44	mem	con	mod	mod	mod	nt	ms	nh/0580_nh.bmp
236.88	0.72	320	3	2	97	per	lib	low	mod	low	nt	cr	nh/0766_nh.bmp
237.60	0.72	321	1	1	18	per	con	mod	low	mod	tg	ms	wh/0725.bmp
238.32	0.72	322	4	4	126	mem	lib	mod	mod	low	nt	ht	nh/0435_nh.bmp
239.04	0.72	323	2	1	47	mem	con	mod	mod	mod	tg	ht	wh/0070.bmp
239.76	0.72	324	1	4	105	per	con	low	low	low	tg	ms	wh/0786.bmp
240.48	0.72	325	3	3	59	per	lib	mod	mod	mod	nt	cr	nh/0017_nh.bmp
241.20	0.72	326	1	1	63	per	lib	low	low	low	nt	fa	nh/0307_nh.bmp
241.92	0.72	327	4	3	67	mem	lib	mod	mod	mod	tg	ht	wh/0204.bmp
242.64	0.72	328	3	1	37	mem	con	mod	mod	mod	tg	ht	wh/0857.bmp
243.36	0.72	329	3	2	32	per	con	mod	mod	mod	tg	ht	wh/0429.bmp
244.08	0.72	330	4	1	48	mem	con	mod	mod	mod	tg	ht	wh/0938.bmp
244.80	0.72	331	3	4	90	per	lib	low	mod	low	nt	fa	nh/0116_nh.bmp
245.52	0.72	332	2	1	16	per	con	low	mod	low	nt	cr	nh/0472_nh.bmp
246.24	0.72	333	4	4	90	per	lib	low	mod	low	nt	fa	nh/0116_nh.bmp
246.96	0.72	334	3	2	29	per	con	mod	mod	mod	nt	cr	nh/0621_nh.bmp
247.68	0.72	335	3	1	117	per	lib	mod	mod	mod	tg	ht	wh/0981.bmp
248.40	0.72	336	3	4	113	mem	lib	mod	mod	low	nt	ht	nh/0155_nh.bmp
249.12	0.72	337	3	3	65	mem	lib	mod	mod	mod	nt	ht	nh/0965_nh.bmp
249.84	0.72	338	3	1	107	mem	lib	mod	mod	low	tg	ht	wh/0019.bmp
250.56	0.72	339	1	2	61	per	con	low	low	low	tg	ms	wh/0777.bmp
251.28	0.72	340	1	3	51	per	lib	mod	mod	mod	tg	ht	wh/0775.bmp
252.00	0.72	341	4	2	82	mem	con	mod	mod	low	nt	ht	nh/0421_nh.bmp
252.72	0.72	342	3	2	10	mem	lib	mod	mod	mod	tg	ht	wh/0984.bmp
253.44	0.72	343	3	3	116	per	con	low	mod	low	tg	ms	wh/0648.bmp
254.16	0.72	344	5	3	49	per	lib	mod	mod	mod	nt	cr	nh/0959_nh.bmp
254.88	0.72	345	1	2	108	per	lib	low	mod	low	tg	ht	wh/0231.bmp
255.60	0.72	346	3	1	16	per	con	low	mod	low	nt	cr	nh/0472_nh.bmp
256.32	0.72	347	1	2	89	mem	con	mod	mod	low	tg	ht	wh/0217.bmp
257.04	0.72	348	4	1	16	per	con	low	mod	low	nt	cr	nh/0472_nh.bmp
257.76	0.72	349	3	2	94	mem	con	mod	mod	low	nt	ms	nh/0868_nh.bmp
258.48	0.72	350	3	1	47	mem	con	mod	mod	mod	tg	ht	wh/0070.bmp
259.20	0.72	351	2	3	61	per	lib	mod	mod	mod	nt	cr	nh/0393_nh.bmp
259.92	0.72	352	1	2	117	mem	con	low	low	low	tg	ht	wh/0614.bmp
260.64	0.72	353	2	4	3	per	con	mod	mod	mod	nt	cr	nh/0679_nh.bmp
261.36	0.72	354	2	3	119	per	con	low	mod	low	tg	ms	wh/0105.bmp
262.08	0.72	355	1	4	44	per	lib	mod	low	mod	tg	ht	wh/0922.bmp
262.80	0.72	356	3	1	118	per	lib	mod	mod	mod	nt	cr	nh/0391_nh.bmp
263.52	0.72	357	4	1	118	per	lib	mod	mod	mod	nt	cr	nh/0391_nh.bmp
264.24	0.72	358	3	4	3	per	con	mod	mod	mod	nt	cr	nh/0679_nh.bmp
264.96	0.72	359	1	1	59	per	lib	low	low	low	tg	ms	wh/0800.bmp
265.68	0.72	360	6	3	49	per	lib	mod	mod	mod	nt	cr	nh/0959_nh.bmp
266.40	0.72	361	2	1	98	mem	lib	mod	mod	low	nt	ht	nh/0128_nh.bmp
267.12	0.72	362	2	4	83	per	lib	low	mod	low	nt	fa	nh/0200_nh.bmp
267.84	0.72	363	2	2	6	mem	lib	mod	mod	mod	nt	ht	nh/0001_nh.bmp
268.56	0.72	364	3	3	3	mem	con	mod	mod	low	tg	ht	wh/0741.bmp
269.28	0.72	365	2	3	66	mem	lib	mod	mod	mod	tg	ht	wh/0561.bmp
270.00	0.72	366	2	1	97	mem	lib	mod	mod	low	tg	ht	wh/0377.bmp
270.72	0.72	367	3	3	61	per	lib	mod	mod	mod	nt	cr	nh/0393_nh.bmp
271.44	0.72	368	3	3	13	mem	con	mod	mod	low	tg	ms	wh/0027.bmp
272.16	0.72	369	2	2	89	mem	con	mod	mod	low	tg	ht	wh/0217.bmp
272.88	0.72	370	2	1	1	per	con	low	mod	low	nt	cr	nh/0853_nh.bmp
273.60	0.72	371	4	3	3	mem	con	mod	mod	low	tg	ht	wh/0741.bmp
274.32	0.72	372	2	2	14	mem	lib	mod	mod	mod	tg	ht	wh/0642.bmp
275.04	0.72	373	4	2	102	per	lib	low	mod	low	nt	cr	nh/0745_nh.bmp
275.76	0.72	374	2	3	72	mem	lib	mod	mod	mod	nt	ht	nh/0463_nh.bmp
276.48	0.72	375	1	2	112	per	lib	low	mod	low	nt	fa	nh/0156_nh.bmp
277.20	0.72	376	1	3	36	mem	lib	low	low	mod	tg	ms	wh/0286.bmp
277.92	0.72	377	1	4	26	mem	con	low	low	low	nt	ms	nh/0747_nh.bmp
278.64	0.72	378	2	2	18	per	con	mod	mod	mod	nt	cr	nh/0899_nh.bmp
279.36	0.72	379	2	4	51	mem	con	mod	mod	mod	nt	ms	nh/0162_nh.bmp
280.08	0.72	380	1	4	108	per	con	low	low	low	tg	ms	wh/0076.bmp
280.80	0.72	381	3	3	58	per	lib	mod	mod	mod	nt	cr	nh/0975_nh.bmp
281.52	0.72	382	5	1	108	mem	lib	mod	mod	low	nt	ht	nh/0816_nh.bmp
282.24	0.72	383	4	1	42	mem	con	mod	mod	mod	nt	ht	nh/0847_nh.bmp
282.96	0.72	384	5	4	86	per	lib	low	mod	low	tg	ht	wh/0168.bmp
283.68	0.72	385	4	1	47	mem	con	mod	mod	mod	tg	ht	wh/0070.bmp
284.40	0.72	386	4	3	10	mem	con	mod	mod	low	nt	ht	nh/0014_nh.bmp
285.12	0.72	387	3	4	50	mem	con	mod	mod	mod	tg	ms	wh/0724.bmp
285.84	0.72	388	1	1	22	per	con	mod	low	mod	nt	cr	nh/0235_nh.bmp
286.56	0.72	389	1	4	102	per	con	low	low	low	nt	cr	nh/0015_nh.bmp
287.28	0.72	390	4	4	3	per	con	mod	mod	mod	nt	cr	nh/0679_nh.bmp
288.00	0.72	391	3	3	56	per	lib	mod	mod	mod	tg	ht	wh/0274.bmp
288.72	0.72	392	3	4	8	per	con	mod	mod	mod	tg	ht	wh/0473.bmp
289.44	0.72	393	4	3	56	per	lib	mod	mod	mod	tg	ht	wh/0274.bmp
290.16	0.72	394	5	1	42	mem	con	mod	mod	mod	nt	ht	nh/0847_nh.bmp
290.88	0.72	395	1	1	115	per	lib	mod	mod	mod	tg	ht	wh/0681.bmp
291.60	0.72	396	1	3	95	mem	con	low	low	mod	tg	ms	wh/0974.bmp
292.32	0.72	397	2	2	24	per	con	mod	mod	mod	tg	ms	wh/0098.bmp
293.04	0.72	398	4	3	59	per	lib	mod	mod	mod	nt	cr	nh/0017_nh.bmp
293.76	0.72	399	3	3	128	per	con	low	mod	low	tg	ms	wh/0265.bmp
294.48	0.72	400	1	1	38	mem	con	mod	mod	mod	nt	ms	nh/0878_nh.bmp
295.20	0.72	401	3	2	111	per	lib	low	mod	low	tg	ht	wh/0145.bmp
295.92	0.72	402	4	4	50	mem	con	mod	mod	mod	tg	ms	wh/0724.bmp
296.64	0.72	403	3	2	89	mem	con	mod	mod	low	tg	ht	wh/0217.bmp
297.36	0.72	404	4	4	2	per	con	mod	mod	mod	nt	cr	nh/0884_nh.bmp
298.08	0.72	405	1	4	75	mem	lib	low	low	low	nt	ht	nh/0903_nh.bmp
298.80	0.72	406	3	1	121	per	lib	mod	mod	mod	tg	ht	wh/0534.bmp
299.52	0.72	407	4	1	121	per	lib	mod	mod	mod	tg	ht	wh/0534.bmp
300.24	0.72	408	3	4	83	per	lib	low	mod	low	nt	fa	nh/0200_nh.bmp
300.96	0.72	409	3	3	119	per	con	low	mod	low	tg	ms	wh/0105.bmp
301.68	0.72	410	1	4	70	mem	lib	low	low	low	tg	ht	wh/0486.bmp
302.40	0.72	411	4	1	37	mem	con	mod	mod	mod	tg	ht	wh/0857.bmp
303.12	0.72	412	4	2	10	mem	lib	mod	mod	mod	tg	ht	wh/0984.bmp
303.84	0.72	413	4	3	61	per	lib	mod	mod	mod	nt	cr	nh/0393_nh.bmp
304.56	0.72	414	1	1	65	mem	con	low	low	mod	nt	ms	nh/0501_nh.bmp
305.28	0.72	415	5	3	59	per	lib	mod	mod	mod	nt	cr	nh/0017_nh.bmp
306.00	0.72	416	1	4	106	per	con	low	low	low	nt	cr	nh/0006_nh.bmp
306.72	0.72	417	1	1	82	mem	lib	low	low	mod	tg	ms	wh/0712.bmp
307.44	0.72	418	1	2	43	mem	lib	low	low	low	nt	ms	nh/0456_nh.bmp
308.16	0.72	419	3	2	100	per	lib	low	mod	low	tg	ms	wh/0325.bmp
308.88	0.72	420	1	1	83	mem	lib	low	low	mod	nt	ms	nh/0601_nh.bmp
309.60	0.72	421	3	1	43	mem	con	mod	mod	mod	nt	ht	nh/0287_nh.bmp
310.32	0.72	422	4	1	15	per	con	low	mod	low	tg	ms	wh/0251.bmp
311.04	0.72	423	1	2	41	mem	lib	low	low	low	tg	ht	wh/0054.bmp
311.76	0.72	424	3	1	6	per	con	low	mod	low	tg	ms	wh/0624.bmp
312.48	0.72	425	2	3	51	per	lib	mod	mod	mod	tg	ht	wh/0775.bmp
313.20	0.72	426	4	1	12	per	con	low	mod	low	tg	ms	wh/0836.bmp
313.92	0.72	427	1	3	84	mem	con	low	low	mod	tg	ms	wh/0887.bmp
314.64	0.72	428	4	1	8	per	con	low	mod	low	nt	cr	nh/0573_nh.bmp
315.36	0.72	429	4	3	13	mem	con	mod	mod	low	tg	ms	wh/0027.bmp
316.08	0.72	430	4	2	32	per	con	mod	mod	mod	tg	ht	wh/0429.bmp
316.80	0.72	431	1	1	78	mem	con	low	low	mod	tg	ms	wh/1017.bmp
317.52	0.72	432	3	4	87	per	lib	low	mod	low	nt	fa	nh/0727_nh.bmp
318.24	0.72	433	2	1	38	mem	con	mod	mod	mod	nt	ms	nh/0878_nh.bmp
318.96	0.72	434	5	1	37	mem	con	mod	mod	mod	tg	ht	wh/0857.bmp
319.68	0.72	435	2	1	125	per	lib	mod	mod	mod	nt	cr	nh/0605_nh.bmp
320.40	0.72	436	2	4	59	mem	con	mod	mod	mod	nt	ms	nh/0879_nh.bmp
321.12	0.72	437	4	1	6	per	con	low	mod	low	tg	ms	wh/0624.bmp
321.84	0.72	438	1	4	20	mem	con	low	low	low	nt	ms	nh/0119_nh.bmp
322.56	0.72	439	5	3	125	per	con	low	mod	low	nt	cr	nh/0298_nh.bmp
323.28	0.72	440	4	3	58	per	lib	mod	mod	mod	nt	cr	nh/0975_nh.bmp
324.00	0.72	441	1	2	57	per	con	low	low	low	nt	cr	nh/0654_nh.bmp
324.72	0.72	442	5	4	50	mem	con	mod	mod	mod	tg	ms	wh/0724.bmp
325.44	0.72	443	4	2	94	mem	con	mod	mod	low	nt	ms	nh/0868_nh.bmp
326.16	0.72	444	4	3	2	mem	con	mod	mod	low	nt	ms	nh/0178_nh.bmp
326.88	0.72	445	5	4	90	per	lib	low	mod	low	nt	fa	nh/0116_nh.bmp
327.60	0.72	446	3	3	52	per	lib	mod	mod	mod	tg	ht	wh/0405.bmp
328.32	0.72	447	5	1	48	mem	con	mod	mod	mod	tg	ht	wh/0938.bmp
329.04	0.72	448	4	2	27	per	con	mod	mod	mod	tg	ht	wh/0692.bmp
329.76	0.72	449	3	2	18	per	con	mod	mod	mod	nt	cr	nh/0899_nh.bmp
330.48	0.72	450	4	3	128	per	con	low	mod	low	tg	ms	wh/0265.bmp
331.20	0.72	451	5	1	44	mem	con	mod	mod	mod	nt	ms	nh/0580_nh.bmp
331.92	0.72	452	2	2	9	mem	lib	mod	mod	mod	nt	ht	nh/0700_nh.bmp
332.64	0.72	453	3	3	124	per	con	low	mod	low	nt	cr	nh/0704_nh.bmp
333.36	0.72	454	5	1	15	per	con	low	mod	low	tg	ms	wh/0251.bmp
334.08	0.72	455	4	2	18	per	con	mod	mod	mod	nt	cr	nh/0899_nh.bmp
334.80	0.72	456	4	1	107	mem	lib	mod	mod	low	tg	ht	wh/0019.bmp
335.52	0.72	457	5	2	82	mem	con	mod	mod	low	nt	ht	nh/0421_nh.bmp
336.24	0.72	458	5	3	56	per	lib	mod	mod	mod	tg	ht	wh/0274.bmp
336.96	0.72	459	3	4	51	mem	con	mod	mod	mod	nt	ms	nh/0162_nh.bmp
337.68	0.72	460	4	3	73	mem	lib	mod	mod	mod	tg	ht	wh/0841.bmp
338.40	0.72	461	3	4	53	mem	con	mod	mod	mod	nt	ht	nh/0596_nh.bmp
339.12	0.72	462	4	3	116	per	con	low	mod	low	tg	ms	wh/0648.bmp
339.84	0.72	463	4	4	125	mem	lib	mod	mod	low	tg	ht	wh/0392.bmp
340.56	0.72	464	4	3	122	per	con	low	mod	low	nt	cr	nh/0379_nh.bmp
341.28	0.72	465	3	2	99	per	lib	low	mod	low	nt	cr	nh/0387_nh.bmp
342.00	0.72	466	5	3	13	mem	con	mod	mod	low	tg	ms	wh/0027.bmp
342.72	0.72	467	1	3	75	mem	lib	mod	mod	mod	nt	ht	nh/0698_nh.bmp
343.44	0.72	468	3	1	124	per	lib	mod	mod	mod	nt	cr	nh/0414_nh.bmp
344.16	0.72	469	5	2	19	per	con	mod	mod	mod	nt	cr	nh/0658_nh.bmp
344.88	0.72	470	4	3	16	mem	con	mod	mod	low	tg	ht	wh/0115.bmp
345.60	0.72	471	3	3	51	per	lib	mod	mod	mod	tg	ht	wh/0775.bmp
346.32	0.72	472	1	4	92	per	lib	low	mod	low	tg	ht	wh/0455.bmp
347.04	0.72	473	2	4	7	per	con	mod	mod	mod	tg	ms	wh/0100.bmp
347.76	0.72	474	5	4	61	mem	con	mod	mod	mod	nt	ms	nh/0600_nh.bmp
348.48	0.72	475	2	2	108	per	lib	low	mod	low	tg	ht	wh/0231.bmp
349.20	0.72	476	5	1	6	per	con	low	mod	low	tg	ms	wh/0624.bmp
349.92	0.72	477	4	3	52	per	lib	mod	mod	mod	tg	ht	wh/0405.bmp
350.64	0.72	478	5	2	94	mem	con	mod	mod	low	nt	ms	nh/0868_nh.bmp
351.36	0.72	479	4	2	100	per	lib	low	mod	low	tg	ms	wh/0325.bmp
352.08	0.72	480	1	2	120	mem	con	low	low	low	nt	ms	nh/0771_nh.bmp
352.80	0.72	481	4	3	9	mem	con	mod	mod	low	tg	ht	wh/0040.bmp
353.52	0.72	482	3	3	120	per	con	low	mod	low	nt	cr	nh/0897_nh.bmp
354.24	0.72	483	1	4	47	per	lib	mod	low	mod	nt	fa	nh/0270_nh.bmp
354.96	0.72	484	2	1	115	per	lib	mod	mod	mod	tg	ht	wh/0681.bmp
355.68	0.72	485	1	1	80	mem	con	low	low	mod	tg	ms	wh/0912.bmp
356.40	0.72	486	5	1	12	per	con	low	mod	low	tg	ms	wh/0836.bmp
357.12	0.72	487	3	2	11	mem	lib	mod	mod	mod	nt	ht	nh/0425_nh.bmp
357.84	0.72	488	4	2	111	per	lib	low	mod	low	tg	ht	wh/0145.bmp
358.56	0.72	489	1	4	91	per	lib	low	mod	low	tg	ms	wh/0755.bmp
359.28	0.72	490	3	2	6	mem	lib	mod	mod	mod	nt	ht	nh/0001_nh.bmp
360.00	0.72	491	4	3	124	per	con	low	mod	low	nt	cr	nh/0704_nh.bmp
360.72	0.72	492	3	2	22	per	con	mod	mod	mod	nt	cr	nh/0289_nh.bmp
361.44	0.72	493	4	4	87	per	lib	low	mod	low	nt	fa	nh/0727_nh.bmp
362.16	0.72	494	5	3	122	per	con	low	mod	low	nt	cr	nh/0379_nh.bmp
362.88	0.72	495	1	1	31	per	con	mod	low	mod	tg	ms	wh/0844.bmp
363.60	0.72	496	1	2	72	per	lib	mod	low	mod	nt	cr	nh/0311_nh.bmp
364.32	0.72	497	4	1	112	mem	lib	mod	mod	low	nt	ht	nh/0066_nh.bmp
365.04	0.72	498	4	1	124	per	lib	mod	mod	mod	nt	cr	nh/0414_nh.bmp
365.76	0.72	499	3	1	97	mem	lib	mod	mod	low	tg	ht	wh/0377.bmp
366.48	0.72	500	2	2	112	per	lib	low	mod	low	nt	fa	nh/0156_nh.bmp
367.20	0.72	501	4	1	120	per	lib	mod	mod	mod	tg	ht	wh/0466.bmp
367.92	0.72	502	3	4	7	per	con	mod	mod	mod	tg	ms	wh/0100.bmp
368.64	0.72	503	4	3	80	mem	lib	mod	mod	mod	tg	ht	wh/0585.bmp
369.36	0.72	504	5	1	114	per	lib	mod	mod	mod	nt	cr	nh/0801_nh.bmp
370.08	0.72	505	2	4	119	mem	lib	mod	mod	low	tg	ms	wh/0163.bmp
370.80	0.72	506	5	3	10	mem	con	mod	mod	low	nt	ht	nh/0014_nh.bmp
371.52	0.72	507	4	3	51	per	lib	mod	mod	mod	tg	ht	wh/0775.bmp
372.24	0.72	508	5	2	32	per	con	mod	mod	mod	tg	ht	wh/0429.bmp
372.96	0.72	509	6	3	56	per	lib	mod	mod	mod	tg	ht	wh/0274.bmp
373.68	0.72	510	4	4	7	per	con	mod	mod	mod	tg	ms	wh/0100.bmp
374.40	0.72	511	2	4	91	per	lib	low	mod	low	tg	ms	wh/0755.bmp
375.12	0.72	512	3	1	111	mem	lib	mod	mod	low	nt	ht	nh/0529_nh.bmp
375.84	0.72	513	1	1	50	per	lib	low	low	low	tg	ht	wh/0464.bmp
376.56	0.72	514	3	2	24	per	con	mod	mod	mod	tg	ms	wh/0098.bmp
377.28	0.72	515	3	2	112	per	lib	low	mod	low	nt	fa	nh/0156_nh.bmp
378.00	0.72	516	3	3	66	mem	lib	mod	mod	mod	tg	ht	wh/0561.bmp
378.72	0.72	517	4	3	66	mem	lib	mod	mod	mod	tg	ht	wh/0561.bmp
379.44	0.72	518	4	2	89	mem	con	mod	mod	low	tg	ht	wh/0217.bmp
380.16	0.72	519	4	2	112	per	lib	low	mod	low	nt	fa	nh/0156_nh.bmp
380.88	0.72	520	5	4	11	per	con	mod	mod	mod	tg	ht	wh/0183.bmp
381.60	0.72	521	4	4	83	per	lib	low	mod	low	nt	fa	nh/0200_nh.bmp
382.32	0.72	522	3	1	98	mem	lib	mod	mod	low	nt	ht	nh/0128_nh.bmp
383.04	0.72	523	2	4	62	mem	con	mod	mod	mod	tg	ms	wh/0526.bmp
383.76	0.72	524	6	2	82	mem	con	mod	mod	low	nt	ht	nh/0421_nh.bmp
384.48	0.72	525	1	2	59	per	con	low	low	low	tg	ms	wh/0662.bmp
385.20	0.72	526	3	4	96	per	lib	low	mod	low	tg	ht	wh/0205.bmp
385.92	0.72	527	1	4	24	mem	con	low	low	low	nt	ms	nh/0996_nh.bmp
386.64	0.72	528	4	1	117	per	lib	mod	mod	mod	tg	ht	wh/0981.bmp
387.36	0.72	529	3	4	91	per	lib	low	mod	low	tg	ms	wh/0755.bmp
388.08	0.72	530	4	4	115	mem	lib	mod	mod	low	nt	ht	nh/0515_nh.bmp
388.80	0.72	531	1	4	55	mem	con	mod	mod	mod	tg	ht	wh/0920.bmp
389.52	0.72	532	3	4	59	mem	con	mod	mod	mod	nt	ms	nh/0879_nh.bmp
390.24	0.72	533	4	4	113	mem	lib	mod	mod	low	nt	ht	nh/0155_nh.bmp
390.96	0.72	534	1	1	67	mem	con	low	low	mod	nt	ht	nh/0905_nh.bmp
391.68	0.72	535	1	4	100	per	con	low	low	low	tg	ms	wh/0533.bmp
392.40	0.72	536	2	1	13	per	con	low	mod	low	nt	cr	nh/0769_nh.bmp
393.12	0.72	537	3	1	115	per	lib	mod	mod	mod	tg	ht	wh/0681.bmp
393.84	0.72	538	5	3	9	mem	con	mod	mod	low	tg	ht	wh/0040.bmp
394.56	0.72	539	2	4	92	per	lib	low	mod	low	tg	ht	wh/0455.bmp
395.28	0.72	540	3	4	62	mem	con	mod	mod	mod	tg	ms	wh/0526.bmp
396.00	0.72	541	5	1	47	mem	con	mod	mod	mod	tg	ht	wh/0070.bmp
396.72	0.72	542	6	1	42	mem	con	mod	mod	mod	nt	ht	nh/0847_nh.bmp
397.44	0.72	543	1	1	49	per	lib	low	low	low	tg	ht	wh/0889.bmp
398.16	0.72	544	5	3	16	mem	con	mod	mod	low	tg	ht	wh/0115.bmp
398.88	0.72	545	5	1	107	mem	lib	mod	mod	low	tg	ht	wh/0019.bmp
399.60	0.72	546	5	4	87	per	lib	low	mod	low	nt	fa	nh/0727_nh.bmp
400.32	0.72	547	1	1	55	per	lib	low	low	low	nt	cr	nh/0407_nh.bmp
401.04	0.72	548	5	3	50	per	lib	mod	mod	mod	tg	ht	wh/0189.bmp
401.76	0.72	549	5	3	3	mem	con	mod	mod	low	tg	ht	wh/0741.bmp
402.48	0.72	550	4	4	96	per	lib	low	mod	low	tg	ht	wh/0205.bmp
403.20	0.72	551	5	1	117	per	lib	mod	mod	mod	tg	ht	wh/0981.bmp
403.92	0.72	552	1	1	61	per	lib	low	low	low	nt	fa	nh/0210_nh.bmp
404.64	0.72	553	5	4	126	mem	lib	mod	mod	low	nt	ht	nh/0435_nh.bmp
405.36	0.72	554	5	4	118	mem	lib	mod	mod	low	tg	ht	wh/0031.bmp
406.08	0.72	555	3	3	74	mem	lib	mod	mod	mod	nt	ht	nh/0785_nh.bmp
406.80	0.72	556	3	2	14	mem	lib	mod	mod	mod	tg	ht	wh/0642.bmp
407.52	0.72	557	5	3	124	per	con	low	mod	low	nt	cr	nh/0704_nh.bmp
408.24	0.72	558	4	2	83	mem	con	mod	mod	low	tg	ht	wh/0177.bmp
408.96	0.72	559	5	4	83	per	lib	low	mod	low	nt	fa	nh/0200_nh.bmp
409.68	0.72	560	2	4	55	mem	con	mod	mod	mod	tg	ht	wh/0920.bmp
410.40	0.72	561	4	1	43	mem	con	mod	mod	mod	nt	ht	nh/0287_nh.bmp
411.12	0.72	562	1	4	76	mem	lib	low	low	low	tg	ms	wh/0481.bmp
411.84	0.72	563	4	2	22	per	con	mod	mod	mod	nt	cr	nh/0289_nh.bmp
412.56	0.72	564	5	3	51	per	lib	mod	mod	mod	tg	ht	wh/0775.bmp
413.28	0.72	565	1	1	21	per	con	mod	low	mod	tg	ht	wh/0898.bmp
414.00	0.72	566	6	4	11	per	con	mod	mod	mod	tg	ht	wh/0183.bmp
414.72	0.72	567	1	4	40	per	lib	mod	low	mod	tg	ht	wh/0589.bmp
415.44	0.72	568	6	1	6	per	con	low	mod	low	tg	ms	wh/0624.bmp
416.16	0.72	569	4	2	6	mem	lib	mod	mod	mod	nt	ht	nh/0001_nh.bmp
416.88	0.72	570	3	1	38	mem	con	mod	mod	mod	nt	ms	nh/0878_nh.bmp
417.60	0.72	571	3	2	91	mem	con	mod	mod	low	tg	ht	wh/0739.bmp
418.32	0.72	572	6	4	83	per	lib	low	mod	low	nt	fa	nh/0200_nh.bmp
419.04	0.72	573	4	4	51	mem	con	mod	mod	mod	nt	ms	nh/0162_nh.bmp
419.76	0.72	574	4	2	11	mem	lib	mod	mod	mod	nt	ht	nh/0425_nh.bmp
420.48	0.72	575	3	2	108	per	lib	low	mod	low	tg	ht	wh/0231.bmp
421.20	0.72	576	1	3	23	per	con	mod	low	mod	nt	cr	nh/0910_nh.bmp
421.92	0.72	577	5	1	121	per	lib	mod	mod	mod	tg	ht	wh/0534.bmp
422.64	0.72	578	1	1	84	mem	lib	low	low	mod	tg	ht	wh/0866.bmp
423.36	0.72	579	1	3	39	mem	lib	low	low	mod	tg	ht	wh/0296.bmp
424.08	0.72	580	5	3	67	mem	lib	mod	mod	mod	tg	ht	wh/0204.bmp
424.80	0.72	581	6	3	125	per	con	low	mod	low	nt	cr	nh/0298_nh.bmp
425.52	0.72	582	3	4	13	per	con	mod	mod	mod	tg	ms	wh/0750.bmp
426.24	0.72	583	5	3	2	mem	con	mod	mod	low	nt	ms	nh/0178_nh.bmp
426.96	0.72	584	6	3	3	mem	con	mod	mod	low	tg	ht	wh/0741.bmp
427.68	0.72	585	5	3	73	mem	lib	mod	mod	mod	tg	ht	wh/0841.bmp
428.40	0.72	586	5	4	2	per	con	mod	mod	mod	nt	cr	nh/0884_nh.bmp
429.12	0.72	587	5	1	124	per	lib	mod	mod	mod	nt	cr	nh/0414_nh.bmp
429.84	0.72	588	5	3	117	per	con	low	mod	low	tg	ht	wh/0932.bmp
430.56	0.72	589	6	4	61	mem	con	mod	mod	mod	nt	ms	nh/0600_nh.bmp
431.28	0.72	590	5	4	3	per	con	mod	mod	mod	nt	cr	nh/0679_nh.bmp
432.00	0.72	591	1	3	38	mem	lib	low	low	mod	nt	ht	nh/0551_nh.bmp
432.72	0.72	592	4	2	101	per	lib	low	mod	low	tg	ht	wh/0514.bmp
433.44	0.72	593	3	4	119	mem	lib	mod	mod	low	tg	ms	wh/0163.bmp
434.16	0.72	594	4	4	62	mem	con	mod	mod	mod	tg	ms	wh/0526.bmp
434.88	0.72	595	5	4	7	per	con	mod	mod	mod	tg	ms	wh/0100.bmp
435.60	0.72	596	4	2	91	mem	con	mod	mod	low	tg	ht	wh/0739.bmp
436.32	0.72	597	5	3	80	mem	lib	mod	mod	mod	tg	ht	wh/0585.bmp
437.04	0.72	598	3	2	13	mem	lib	mod	mod	mod	nt	ht	nh/0955_nh.bmp
437.76	0.72	599	6	1	107	mem	lib	mod	mod	low	tg	ht	wh/0019.bmp
438.48	0.72	600	3	4	5	per	con	mod	mod	mod	nt	cr	nh/0637_nh.bmp
439.20	0.72	601	2	3	75	mem	lib	mod	mod	mod	nt	ht	nh/0698_nh.bmp
439.92	0.72	602	4	4	119	mem	lib	mod	mod	low	tg	ms	wh/0163.bmp
440.64	0.72	603	6	1	114	per	lib	mod	mod	mod	nt	cr	nh/0801_nh.bmp
441.36	0.72	604	4	1	34	mem	con	mod	mod	mod	tg	ht	wh/0919.bmp
442.08	0.72	605	5	3	52	per	lib	mod	mod	mod	tg	ht	wh/0405.bmp
442.80	0.72	606	3	4	4	per	con	mod	mod	mod	nt	cr	nh/0942_nh.bmp
443.52	0.72	607	4	4	53	mem	con	mod	mod	mod	nt	ht	nh/0596_nh.bmp
444.24	0.72	608	4	2	24	per	con	mod	mod	mod	tg	ms	wh/0098.bmp
444.96	0.72	609	5	4	119	mem	lib	mod	mod	low	tg	ms	wh/0163.bmp
445.68	0.72	610	1	4	68	mem	lib	low	low	low	nt	ht	nh/0651_nh.bmp
446.40	0.72	611	3	4	92	per	lib	low	mod	low	tg	ht	wh/0455.bmp
447.12	0.72	612	1	4	38	per	lib	mod	low	mod	nt	cr	nh/0918_nh.bmp
447.84	0.72	613	5	2	100	per	lib	low	mod	low	tg	ms	wh/0325.bmp
448.56	0.72	614	3	3	72	mem	lib	mod	mod	mod	nt	ht	nh/0463_nh.bmp
449.28	0.72	615	4	2	99	per	lib	low	mod	low	nt	cr	nh/0387_nh.bmp
450.00	0.72	616	3	2	16	mem	lib	mod	mod	mod	tg	ht	wh/0896.bmp
450.72	0.72	617	2	3	4	mem	con	mod	mod	low	nt	ht	nh/0649_nh.bmp
451.44	0.72	618	4	4	59	mem	con	mod	mod	mod	nt	ms	nh/0879_nh.bmp
452.16	0.72	619	5	2	10	mem	lib	mod	mod	mod	tg	ht	wh/0984.bmp
452.88	0.72	620	5	2	1	mem	lib	mod	mod	mod	tg	ht	wh/0935.bmp
453.60	0.72	621	6	3	51	per	lib	mod	mod	mod	tg	ht	wh/0775.bmp
454.32	0.72	622	4	2	16	mem	lib	mod	mod	mod	tg	ht	wh/0896.bmp
455.04	0.72	623	1	3	27	per	con	mod	low	mod	nt	cr	nh/0406_nh.bmp
455.76	0.72	624	4	2	90	mem	con	mod	mod	low	nt	ht	nh/0733_nh.bmp
456.48	0.72	625	6	3	59	per	lib	mod	mod	mod	nt	cr	nh/0017_nh.bmp
457.20	0.72	626	4	1	38	mem	con	mod	mod	mod	nt	ms	nh/0878_nh.bmp
457.92	0.72	627	3	4	55	mem	con	mod	mod	mod	tg	ht	wh/0920.bmp
458.64	0.72	628	1	2	62	per	con	low	low	low	tg	ms	wh/0122.bmp
459.36	0.72	629	6	3	16	mem	con	mod	mod	low	tg	ht	wh/0115.bmp
460.08	0.72	630	4	2	97	per	lib	low	mod	low	nt	cr	nh/0766_nh.bmp
460.80	0.72	631	4	4	55	mem	con	mod	mod	mod	tg	ht	wh/0920.bmp
461.52	0.72	632	5	2	16	mem	lib	mod	mod	mod	tg	ht	wh/0896.bmp
462.24	0.72	633	2	4	94	per	lib	low	mod	low	nt	fa	nh/1021_nh.bmp
462.96	0.72	634	4	4	91	per	lib	low	mod	low	tg	ms	wh/0755.bmp
463.68	0.72	635	6	1	12	per	con	low	mod	low	tg	ms	wh/0836.bmp
464.40	0.72	636	4	2	13	mem	lib	mod	mod	mod	nt	ht	nh/0955_nh.bmp
465.12	0.72	637	5	1	104	mem	lib	mod	mod	low	tg	ht	wh/0997.bmp
465.84	0.72	638	6	4	90	per	lib	low	mod	low	nt	fa	nh/0116_nh.bmp
466.56	0.72	639	1	4	21	mem	con	low	low	low	tg	ht	wh/0159.bmp
467.28	0.72	640	5	2	18	per	con	mod	mod	mod	nt	cr	nh/0899_nh.bmp
468.00	0.72	641	3	1	125	per	lib	mod	mod	mod	nt	cr	nh/0605_nh.bmp
468.72	0.72	642	1	3	109	per	lib	low	low	low	tg	ht	wh/0817.bmp
469.44	0.72	643	4	1	115	per	lib	mod	mod	mod	tg	ht	wh/0681.bmp
470.16	0.72	644	1	4	36	per	lib	mod	low	mod	nt	fa	nh/0218_nh.bmp
470.88	0.72	645	4	2	14	mem	lib	mod	mod	mod	tg	ht	wh/0642.bmp
471.60	0.72	646	4	2	29	per	con	mod	mod	mod	nt	cr	nh/0621_nh.bmp
472.32	0.72	647	5	2	27	per	con	mod	mod	mod	tg	ht	wh/0692.bmp
473.04	0.72	648	4	2	108	per	lib	low	mod	low	tg	ht	wh/0231.bmp
473.76	0.72	649	5	2	89	mem	con	mod	mod	low	tg	ht	wh/0217.bmp
474.48	0.72	650	5	4	115	mem	lib	mod	mod	low	nt	ht	nh/0515_nh.bmp
475.20	0.72	651	3	1	1	per	con	low	mod	low	nt	cr	nh/0853_nh.bmp
475.92	0.72	652	4	1	125	per	lib	mod	mod	mod	nt	cr	nh/0605_nh.bmp
476.64	0.72	653	4	2	96	mem	con	mod	mod	low	tg	ms	wh/0675.bmp
477.36	0.72	654	4	4	4	per	con	mod	mod	mod	nt	cr	nh/0942_nh.bmp
478.08	0.72	655	2	1	3	per	con	low	mod	low	tg	ms	wh/0233.bmp
478.80	0.72	656	5	4	55	mem	con	mod	mod	mod	tg	ht	wh/0920.bmp
479.52	0.72	657	5	2	108	per	lib	low	mod	low	tg	ht	wh/0231.bmp
480.24	0.72	658	4	4	8	per	con	mod	mod	mod	tg	ht	wh/0473.bmp
480.96	0.72	659	6	4	2	per	con	mod	mod	mod	nt	cr	nh/0884_nh.bmp
481.68	0.72	660	3	3	75	mem	lib	mod	mod	mod	nt	ht	nh/0698_nh.bmp
482.40	0.72	661	1	1	76	mem	con	low	low	mod	nt	ms	nh/0478_nh.bmp
483.12	0.72	662	1	3	25	per	con	mod	low	mod	tg	ms	wh/0449.bmp
483.84	0.72	663	3	1	3	per	con	low	mod	low	tg	ms	wh/0233.bmp
484.56	0.72	664	1	1	93	mem	lib	low	low	mod	nt	ht	nh/0702_nh.bmp
485.28	0.72	665	3	1	102	mem	lib	mod	mod	low	tg	ht	wh/0597.bmp
486.00	0.72	666	6	4	87	per	lib	low	mod	low	nt	fa	nh/0727_nh.bmp
486.72	0.72	667	4	3	72	mem	lib	mod	mod	mod	nt	ht	nh/0463_nh.bmp
487.44	0.72	668	5	2	112	per	lib	low	mod	low	nt	fa	nh/0156_nh.bmp
488.16	0.72	669	4	3	119	per	con	low	mod	low	tg	ms	wh/0105.bmp
488.88	0.72	670	5	1	118	per	lib	mod	mod	mod	nt	cr	nh/0391_nh.bmp
489.60	0.72	671	1	1	81	mem	lib	low	low	mod	tg	ht	wh/0303.bmp
490.32	0.72	672	5	2	102	per	lib	low	mod	low	nt	cr	nh/0745_nh.bmp
491.04	0.72	673	5	4	4	per	con	mod	mod	mod	nt	cr	nh/0942_nh.bmp
491.76	0.72	674	4	4	92	per	lib	low	mod	low	tg	ht	wh/0455.bmp
492.48	0.72	675	5	1	8	per	con	low	mod	low	nt	cr	nh/0573_nh.bmp
493.20	0.72	676	5	3	61	per	lib	mod	mod	mod	nt	cr	nh/0393_nh.bmp
493.92	0.72	677	1	4	74	mem	lib	low	low	low	tg	ht	wh/0411.bmp
494.64	0.72	678	5	2	11	mem	lib	mod	mod	mod	nt	ht	nh/0425_nh.bmp
495.36	0.72	679	6	2	112	per	lib	low	mod	low	nt	fa	nh/0156_nh.bmp
496.08	0.72	680	5	3	128	per	con	low	mod	low	tg	ms	wh/0265.bmp
496.80	0.72	681	6	3	13	mem	con	mod	mod	low	tg	ms	wh/0027.bmp
497.52	0.72	682	5	3	15	mem	con	mod	mod	low	nt	ht	nh/0926_nh.bmp
498.24	0.72	683	6	3	2	mem	con	mod	mod	low	nt	ms	nh/0178_nh.bmp
498.96	0.72	684	6	1	37	mem	con	mod	mod	mod	tg	ht	wh/0857.bmp
499.68	0.72	685	5	2	101	per	lib	low	mod	low	tg	ht	wh/0514.bmp
500.40	0.72	686	6	4	118	mem	lib	mod	mod	low	tg	ht	wh/0031.bmp
501.12	0.72	687	4	3	120	per	con	low	mod	low	nt	cr	nh/0897_nh.bmp
501.84	0.72	688	5	3	120	per	con	low	mod	low	nt	cr	nh/0897_nh.bmp
502.56	0.72	689	4	4	13	per	con	mod	mod	mod	tg	ms	wh/0750.bmp
503.28	0.72	690	1	3	46	mem	lib	low	low	mod	nt	ms	nh/0659_nh.bmp
504.00	0.72	691	5	1	125	per	lib	mod	mod	mod	nt	cr	nh/0605_nh.bmp
504.72	0.72	692	5	2	99	per	lib	low	mod	low	nt	cr	nh/0387_nh.bmp
505.44	0.72	693	6	2	1	mem	lib	mod	mod	mod	tg	ht	wh/0935.bmp
506.16	0.72	694	5	2	13	mem	lib	mod	mod	mod	nt	ht	nh/0955_nh.bmp
506.88	0.72	695	5	2	22	per	con	mod	mod	mod	nt	cr	nh/0289_nh.bmp
507.60	0.72	696	6	1	44	mem	con	mod	mod	mod	nt	ms	nh/0580_nh.bmp
508.32	0.72	697	5	4	92	per	lib	low	mod	low	tg	ht	wh/0455.bmp
509.04	0.72	698	6	1	124	per	lib	mod	mod	mod	nt	cr	nh/0414_nh.bmp
509.76	0.72	699	4	1	97	mem	lib	mod	mod	low	tg	ht	wh/0377.bmp
510.48	0.72	700	5	2	14	mem	lib	mod	mod	mod	tg	ht	wh/0642.bmp
511.20	0.72	701	4	4	5	per	con	mod	mod	mod	nt	cr	nh/0637_nh.bmp
511.92	0.72	702	6	2	28	per	con	mod	mod	mod	tg	ht	wh/0627.bmp
512.64	0.72	703	4	3	65	mem	lib	mod	mod	mod	nt	ht	nh/0965_nh.bmp
513.36	0.72	704	2	2	88	mem	con	mod	mod	low	nt	ms	nh/0341_nh.bmp
514.08	0.72	705	5	4	51	mem	con	mod	mod	mod	nt	ms	nh/0162_nh.bmp
514.80	0.72	706	5	2	97	per	lib	low	mod	low	nt	cr	nh/0766_nh.bmp
515.52	0.72	707	4	3	74	mem	lib	mod	mod	mod	nt	ht	nh/0785_nh.bmp
516.24	0.72	708	3	2	88	mem	con	mod	mod	low	nt	ms	nh/0341_nh.bmp
516.96	0.72	709	3	4	94	per	lib	low	mod	low	nt	fa	nh/1021_nh.bmp
517.68	0.72	710	2	4	128	mem	lib	mod	mod	low	tg	ht	wh/0353.bmp
518.40	0.72	711	6	2	100	per	lib	low	mod	low	tg	ms	wh/0325.bmp
519.12	0.72	712	3	4	128	mem	lib	mod	mod	low	tg	ht	wh/0353.bmp
519.84	0.72	713	5	1	43	mem	con	mod	mod	mod	nt	ht	nh/0287_nh.bmp
520.56	0.72	714	3	2	9	mem	lib	mod	mod	mod	nt	ht	nh/0700_nh.bmp
521.28	0.72	715	5	1	112	mem	lib	mod	mod	low	nt	ht	nh/0066_nh.bmp
522.00	0.72	716	6	3	15	mem	con	mod	mod	low	nt	ht	nh/0926_nh.bmp
522.72	0.72	717	6	3	124	per	con	low	mod	low	nt	cr	nh/0704_nh.bmp
523.44	0.72	718	1	3	29	per	con	mod	low	mod	tg	ht	wh/0885.bmp
524.16	0.72	719	5	4	13	per	con	mod	mod	mod	tg	ms	wh/0750.bmp
524.88	0.72	720	6	2	102	per	lib	low	mod	low	nt	cr	nh/0745_nh.bmp
525.60	0.72	721	1	3	96	mem	con	low	low	mod	tg	ms	wh/0476.bmp
526.32	0.72	722	5	2	6	mem	lib	mod	mod	mod	nt	ht	nh/0001_nh.bmp
527.04	0.72	723	6	1	48	mem	con	mod	mod	mod	tg	ht	wh/0938.bmp
527.76	0.72	724	6	4	126	mem	lib	mod	mod	low	nt	ht	nh/0435_nh.bmp
528.48	0.72	725	5	4	53	mem	con	mod	mod	mod	nt	ht	nh/0596_nh.bmp
529.20	0.72	726	5	3	66	mem	lib	mod	mod	mod	tg	ht	wh/0561.bmp
529.92	0.72	727	4	3	75	mem	lib	mod	mod	mod	nt	ht	nh/0698_nh.bmp
530.64	0.72	728	1	4	80	mem	lib	low	low	low	nt	ht	nh/0152_nh.bmp
531.36	0.72	729	6	3	73	mem	lib	mod	mod	mod	tg	ht	wh/0841.bmp
532.08	0.72	730	1	3	106	per	lib	low	low	low	nt	fa	nh/0126_nh.bmp
532.80	0.72	731	4	1	111	mem	lib	mod	mod	low	nt	ht	nh/0529_nh.bmp
533.52	0.72	732	4	1	1	per	con	low	mod	low	nt	cr	nh/0853_nh.bmp
534.24	0.72	733	4	4	94	per	lib	low	mod	low	nt	fa	nh/1021_nh.bmp
534.96	0.72	734	6	2	97	per	lib	low	mod	low	nt	cr	nh/0766_nh.bmp
535.68	0.72	735	6	3	66	mem	lib	mod	mod	mod	tg	ht	wh/0561.bmp
536.40	0.72	736	5	3	65	mem	lib	mod	mod	mod	nt	ht	nh/0965_nh.bmp
537.12	0.72	737	5	1	34	mem	con	mod	mod	mod	tg	ht	wh/0919.bmp
537.84	0.72	738	5	1	115	per	lib	mod	mod	mod	tg	ht	wh/0681.bmp
538.56	0.72	739	4	1	102	mem	lib	mod	mod	low	tg	ht	wh/0597.bmp
539.28	0.72	740	6	3	61	per	lib	mod	mod	mod	nt	cr	nh/0393_nh.bmp
540.00	0.72	741	1	2	127	mem	con	low	low	low	tg	ms	wh/0709.bmp
540.72	0.72	742	5	2	83	mem	con	mod	mod	low	tg	ht	wh/0177.bmp
541.44	0.72	743	6	4	53	mem	con	mod	mod	mod	nt	ht	nh/0596_nh.bmp
542.16	0.72	744	5	3	116	per	con	low	mod	low	tg	ms	wh/0648.bmp
542.88	0.72	745	4	2	88	mem	con	mod	mod	low	nt	ms	nh/0341_nh.bmp
543.60	0.72	746	3	1	13	per	con	low	mod	low	nt	cr	nh/0769_nh.bmp
544.32	0.72	747	6	3	80	mem	lib	mod	mod	mod	tg	ht	wh/0585.bmp
545.04	0.72	748	5	1	1	per	con	low	mod	low	nt	cr	nh/0853_nh.bmp
545.76	0.72	749	6	1	15	per	con	low	mod	low	tg	ms	wh/0251.bmp
546.48	0.72	750	5	2	29	per	con	mod	mod	mod	nt	cr	nh/0621_nh.bmp
547.20	0.72	751	5	3	119	per	con	low	mod	low	tg	ms	wh/0105.bmp
547.92	0.72	752	1	2	52	per	con	low	low	low	nt	cr	nh/0257_nh.bmp
548.64	0.72	753	6	2	89	mem	con	mod	mod	low	tg	ht	wh/0217.bmp
549.36	0.72	754	6	3	117	per	con	low	mod	low	tg	ht	wh/0932.bmp
550.08	0.72	755	6	3	119	per	con	low	mod	low	tg	ms	wh/0105.bmp
550.80	0.72	756	5	2	111	per	lib	low	mod	low	tg	ht	wh/0145.bmp
551.52	0.72	757	6	3	122	per	con	low	mod	low	nt	cr	nh/0379_nh.bmp
552.24	0.72	758	6	2	101	per	lib	low	mod	low	tg	ht	wh/0514.bmp
552.96	0.72	759	1	1	85	mem	lib	low	low	mod	nt	ht	nh/0213_nh.bmp
553.68	0.72	760	4	1	98	mem	lib	mod	mod	low	nt	ht	nh/0128_nh.bmp
554.40	0.72	761	5	1	102	mem	lib	mod	mod	low	tg	ht	wh/0597.bmp
555.12	0.72	762	6	2	99	per	lib	low	mod	low	nt	cr	nh/0387_nh.bmp
555.84	0.72	763	1	3	41	mem	lib	low	low	mod	nt	ht	nh/0324_nh.bmp
556.56	0.72	764	6	1	112	mem	lib	mod	mod	low	nt	ht	nh/0066_nh.bmp
557.28	0.72	765	6	1	118	per	lib	mod	mod	mod	nt	cr	nh/0391_nh.bmp
558.00	0.72	766	5	2	96	mem	con	mod	mod	low	tg	ms	wh/0675.bmp
558.72	0.72	767	6	2	16	mem	lib	mod	mod	mod	tg	ht	wh/0896.bmp
559.44	0.72	768	5	2	24	per	con	mod	mod	mod	tg	ms	wh/0098.bmp
560.16	0.72	769	6	3	52	per	lib	mod	mod	mod	tg	ht	wh/0405.bmp
560.88	0.72	770	6	2	96	mem	con	mod	mod	low	tg	ms	wh/0675.bmp
561.60	0.72	771	1	1	69	mem	con	low	low	mod	tg	ms	wh/0977.bmp
562.32	0.72	772	5	4	125	mem	lib	mod	mod	low	tg	ht	wh/0392.bmp
563.04	0.72	773	6	2	24	per	con	mod	mod	mod	tg	ms	wh/0098.bmp
563.76	0.72	774	6	1	121	per	lib	mod	mod	mod	tg	ht	wh/0534.bmp
564.48	0.72	775	5	1	38	mem	con	mod	mod	mod	nt	ms	nh/0878_nh.bmp
565.20	0.72	776	5	1	16	per	con	low	mod	low	nt	cr	nh/0472_nh.bmp
565.92	0.72	777	6	1	43	mem	con	mod	mod	mod	nt	ht	nh/0287_nh.bmp
566.64	0.72	778	5	2	90	mem	con	mod	mod	low	nt	ht	nh/0733_nh.bmp
567.36	0.72	779	1	4	71	mem	lib	low	low	low	tg	ht	wh/0109.bmp
568.08	0.72	780	4	4	128	mem	lib	mod	mod	low	tg	ht	wh/0353.bmp
568.80	0.72	781	6	3	10	mem	con	mod	mod	low	nt	ht	nh/0014_nh.bmp
569.52	0.72	782	6	4	49	mem	con	mod	mod	mod	tg	ht	wh/0002.bmp
570.24	0.72	783	5	4	5	per	con	mod	mod	mod	nt	cr	nh/0637_nh.bmp
570.96	0.72	784	5	3	75	mem	lib	mod	mod	mod	nt	ht	nh/0698_nh.bmp
571.68	0.72	785	3	3	4	mem	con	mod	mod	low	nt	ht	nh/0649_nh.bmp
572.40	0.72	786	5	4	94	per	lib	low	mod	low	nt	fa	nh/1021_nh.bmp
573.12	0.72	787	6	2	18	per	con	mod	mod	mod	nt	cr	nh/0899_nh.bmp
573.84	0.72	788	6	3	9	mem	con	mod	mod	low	tg	ht	wh/0040.bmp
574.56	0.72	789	6	1	117	per	lib	mod	mod	mod	tg	ht	wh/0981.bmp
575.28	0.72	790	6	3	120	per	con	low	mod	low	nt	cr	nh/0897_nh.bmp
576.00	0.72	791	6	1	38	mem	con	mod	mod	mod	nt	ms	nh/0878_nh.bmp
576.72	0.72	792	6	3	116	per	con	low	mod	low	tg	ms	wh/0648.bmp
577.44	0.72	793	5	3	58	per	lib	mod	mod	mod	nt	cr	nh/0975_nh.bmp
578.16	0.72	794	6	2	14	mem	lib	mod	mod	mod	tg	ht	wh/0642.bmp
578.88	0.72	795	6	1	8	per	con	low	mod	low	nt	cr	nh/0573_nh.bmp
579.60	0.72	796	6	1	108	mem	lib	mod	mod	low	nt	ht	nh/0816_nh.bmp
580.32	0.72	797	5	4	128	mem	lib	mod	mod	low	tg	ht	wh/0353.bmp
581.04	0.72	798	5	1	98	mem	lib	mod	mod	low	nt	ht	nh/0128_nh.bmp
581.76	0.72	799	6	1	104	mem	lib	mod	mod	low	tg	ht	wh/0997.bmp
582.48	0.72	800	5	1	120	per	lib	mod	mod	mod	tg	ht	wh/0466.bmp
583.20	0.72	801	6	4	92	per	lib	low	mod	low	tg	ht	wh/0455.bmp
583.92	0.72	802	5	1	97	mem	lib	mod	mod	low	tg	ht	wh/0377.bmp
584.64	0.72	803	1	4	103	per	con	low	low	low	nt	cr	nh/0141_nh.bmp
585.36	0.72	804	6	4	119	mem	lib	mod	mod	low	tg	ms	wh/0163.bmp
586.08	0.72	805	4	3	4	mem	con	mod	mod	low	nt	ht	nh/0649_nh.bmp
586.80	0.72	806	5	4	113	mem	lib	mod	mod	low	nt	ht	nh/0155_nh.bmp
587.52	0.72	807	6	1	1	per	con	low	mod	low	nt	cr	nh/0853_nh.bmp
588.24	0.72	808	1	2	69	per	lib	mod	low	mod	tg	ht	wh/0972.bmp
588.96	0.72	809	6	4	4	per	con	mod	mod	mod	nt	cr	nh/0942_nh.bmp
589.68	0.72	810	6	3	67	mem	lib	mod	mod	mod	tg	ht	wh/0204.bmp
590.40	0.72	811	5	2	88	mem	con	mod	mod	low	nt	ms	nh/0341_nh.bmp
591.12	0.72	812	6	3	65	mem	lib	mod	mod	mod	nt	ht	nh/0965_nh.bmp
591.84	0.72	813	6	4	3	per	con	mod	mod	mod	nt	cr	nh/0679_nh.bmp
592.56	0.72	814	6	2	22	per	con	mod	mod	mod	nt	cr	nh/0289_nh.bmp
593.28	0.72	815	5	4	91	per	lib	low	mod	low	tg	ms	wh/0755.bmp
594.00	0.72	816	4	2	9	mem	lib	mod	mod	mod	nt	ht	nh/0700_nh.bmp
594.72	0.72	817	6	1	97	mem	lib	mod	mod	low	tg	ht	wh/0377.bmp
595.44	0.72	818	5	2	91	mem	con	mod	mod	low	tg	ht	wh/0739.bmp
596.16	0.72	819	6	2	27	per	con	mod	mod	mod	tg	ht	wh/0692.bmp
596.88	0.72	820	5	4	59	mem	con	mod	mod	mod	nt	ms	nh/0879_nh.bmp
597.60	0.72	821	6	4	128	mem	lib	mod	mod	low	tg	ht	wh/0353.bmp
598.32	0.72	822	5	4	62	mem	con	mod	mod	mod	tg	ms	wh/0526.bmp
599.04	0.72	823	6	2	83	mem	con	mod	mod	low	tg	ht	wh/0177.bmp
599.76	0.72	824	6	1	34	mem	con	mod	mod	mod	tg	ht	wh/0919.bmp
600.48	0.72	825	6	4	5	per	con	mod	mod	mod	nt	cr	nh/0637_nh.bmp
601.20	0.72	826	6	2	11	mem	lib	mod	mod	mod	nt	ht	nh/0425_nh.bmp
601.92	0.72	827	1	3	42	mem	lib	low	low	mod	nt	ht	nh/0087_nh.bmp
602.64	0.72	828	5	3	4	mem	con	mod	mod	low	nt	ht	nh/0649_nh.bmp
603.36	0.72	829	5	3	72	mem	lib	mod	mod	mod	nt	ht	nh/0463_nh.bmp
604.08	0.72	830	6	2	91	mem	con	mod	mod	low	tg	ht	wh/0739.bmp
604.80	0.72	831	4	1	3	per	con	low	mod	low	tg	ms	wh/0233.bmp
605.52	0.72	832	6	1	102	mem	lib	mod	mod	low	tg	ht	wh/0597.bmp
606.24	0.72	833	6	2	13	mem	lib	mod	mod	mod	nt	ht	nh/0955_nh.bmp
606.96	0.72	834	5	4	96	per	lib	low	mod	low	tg	ht	wh/0205.bmp
607.68	0.72	835	6	2	29	per	con	mod	mod	mod	nt	cr	nh/0621_nh.bmp
608.40	0.72	836	6	2	94	mem	con	mod	mod	low	nt	ms	nh/0868_nh.bmp
609.12	0.72	837	1	1	89	mem	lib	low	low	mod	nt	ht	nh/0850_nh.bmp
609.84	0.72	838	6	1	125	per	lib	mod	mod	mod	nt	cr	nh/0605_nh.bmp
610.56	0.72	839	6	4	51	mem	con	mod	mod	mod	nt	ms	nh/0162_nh.bmp
611.28	0.72	840	1	3	94	mem	con	low	low	mod	tg	ms	wh/0322.bmp
612.00	0.72	841	4	1	13	per	con	low	mod	low	nt	cr	nh/0769_nh.bmp
612.72	0.72	842	5	1	13	per	con	low	mod	low	nt	cr	nh/0769_nh.bmp
613.44	0.72	843	1	4	18	mem	con	low	low	low	tg	ms	wh/0008.bmp
614.16	0.72	844	5	3	74	mem	lib	mod	mod	mod	nt	ht	nh/0785_nh.bmp
614.88	0.72	845	6	3	74	mem	lib	mod	mod	mod	nt	ht	nh/0785_nh.bmp
615.60	0.72	846	6	2	90	mem	con	mod	mod	low	nt	ht	nh/0733_nh.bmp
616.32	0.72	847	6	4	94	per	lib	low	mod	low	nt	fa	nh/1021_nh.bmp
617.04	0.72	848	5	1	3	per	con	low	mod	low	tg	ms	wh/0233.bmp
617.76	0.72	849	4	4	124	mem	lib	mod	mod	low	nt	ht	nh/0133_nh.bmp
618.48	0.72	850	6	4	7	per	con	mod	mod	mod	tg	ms	wh/0100.bmp
619.20	0.72	851	6	4	91	per	lib	low	mod	low	tg	ms	wh/0755.bmp
619.92	0.72	852	6	4	96	per	lib	low	mod	low	tg	ht	wh/0205.bmp
620.64	0.72	853	1	2	66	per	lib	mod	low	mod	nt	cr	nh/0288_nh.bmp
621.36	0.72	854	1	3	45	mem	lib	low	low	mod	tg	ms	wh/0553.bmp
622.08	0.72	855	5	4	8	per	con	mod	mod	mod	tg	ht	wh/0473.bmp
622.80	0.72	856	5	1	111	mem	lib	mod	mod	low	nt	ht	nh/0529_nh.bmp
623.52	0.72	857	6	4	13	per	con	mod	mod	mod	tg	ms	wh/0750.bmp
624.24	0.72	858	6	1	16	per	con	low	mod	low	nt	cr	nh/0472_nh.bmp
624.96	0.72	859	6	1	13	per	con	low	mod	low	nt	cr	nh/0769_nh.bmp
625.68	0.72	860	6	1	115	per	lib	mod	mod	mod	tg	ht	wh/0681.bmp
626.40	0.72	861	6	1	98	mem	lib	mod	mod	low	nt	ht	nh/0128_nh.bmp
627.12	0.72	862	6	1	3	per	con	low	mod	low	tg	ms	wh/0233.bmp
627.84	0.72	863	6	4	86	per	lib	low	mod	low	tg	ht	wh/0168.bmp
628.56	0.72	864	6	2	10	mem	lib	mod	mod	mod	tg	ht	wh/0984.bmp
629.28	0.72	865	6	2	32	per	con	mod	mod	mod	tg	ht	wh/0429.bmp
630.00	0.72	866	6	4	55	mem	con	mod	mod	mod	tg	ht	wh/0920.bmp
630.72	0.72	867	1	2	36	mem	lib	low	low	low	tg	ms	wh/0685.bmp
631.44	0.72	868	1	3	18	per	con	mod	low	mod	nt	cr	nh/0550_nh.bmp
632.16	0.72	869	5	4	124	mem	lib	mod	mod	low	nt	ht	nh/0133_nh.bmp
632.88	0.72	870	6	3	75	mem	lib	mod	mod	mod	nt	ht	nh/0698_nh.bmp
633.60	0.72	871	1	3	32	per	con	mod	low	mod	tg	ms	wh/0228.bmp
634.32	0.72	872	6	4	124	mem	lib	mod	mod	low	nt	ht	nh/0133_nh.bmp
635.04	0.72	873	5	2	9	mem	lib	mod	mod	mod	nt	ht	nh/0700_nh.bmp
635.76	0.72	874	6	2	88	mem	con	mod	mod	low	nt	ms	nh/0341_nh.bmp
636.48	0.72	875	6	3	72	mem	lib	mod	mod	mod	nt	ht	nh/0463_nh.bmp
637.20	0.72	876	6	3	50	per	lib	mod	mod	mod	tg	ht	wh/0189.bmp
637.92	0.72	877	1	2	54	per	con	low	low	low	nt	cr	nh/0722_nh.bmp
638.64	0.72	878	6	1	120	per	lib	mod	mod	mod	tg	ht	wh/0466.bmp
639.36	0.72	879	6	4	113	mem	lib	mod	mod	low	nt	ht	nh/0155_nh.bmp
640.08	0.72	880	6	2	19	per	con	mod	mod	mod	nt	cr	nh/0658_nh.bmp
640.80	0.72	881	6	4	8	per	con	mod	mod	mod	tg	ht	wh/0473.bmp
641.52	0.72	882	6	1	47	mem	con	mod	mod	mod	tg	ht	wh/0070.bmp
642.24	0.72	883	6	4	115	mem	lib	mod	mod	low	nt	ht	nh/0515_nh.bmp
642.96	0.72	884	6	4	50	mem	con	mod	mod	mod	tg	ms	wh/0724.bmp
643.68	0.72	885	6	1	111	mem	lib	mod	mod	low	nt	ht	nh/0529_nh.bmp
644.40	0.72	886	6	3	58	per	lib	mod	mod	mod	nt	cr	nh/0975_nh.bmp
645.12	0.72	887	6	2	6	mem	lib	mod	mod	mod	nt	ht	nh/0001_nh.bmp
645.84	0.72	888	1	2	38	mem	lib	low	low	low	tg	ht	wh/0140.bmp
646.56	0.72	889	6	2	111	per	lib	low	mod	low	tg	ht	wh/0145.bmp
647.28	0.72	890	6	4	59	mem	con	mod	mod	mod	nt	ms	nh/0879_nh.bmp
648.00	0.72	891	6	2	108	per	lib	low	mod	low	tg	ht	wh/0231.bmp
648.72	0.72	892	6	4	125	mem	lib	mod	mod	low	tg	ht	wh/0392.bmp
649.44	0.72	893	6	2	9	mem	lib	mod	mod	mod	nt	ht	nh/0700_nh.bmp
650.16	0.72	894	6	3	4	mem	con	mod	mod	low	nt	ht	nh/0649_nh.bmp
650.88	0.72	895	6	4	62	mem	con	mod	mod	mod	tg	ms	wh/0526.bmp
651.60	0.72	896	6	3	128	per	con	low	mod	low	tg	ms	wh/0265.bmp
