onset	duration	trial	pres	ts_blk	ts_trl	task	crit	disc	mem_disc	per_disc	per_type	accuracy	stim_file
7.20	0.72	1	1	7	57	per	lib	low	low	low	nt	cr	nh/0041_nh.bmp
7.92	0.72	2	1	6	69	per	con	mod	mod	mod	nt	cr	nh/0629_nh.bmp
8.64	0.72	3	1	5	110	per	con	mod	low	mod	tg	ht	wh/0475.bmp
9.36	0.72	4	2	6	69	per	con	mod	mod	mod	nt	cr	nh/0629_nh.bmp
10.08	0.72	5	1	6	128	mem	con	mod	mod	mod	tg	ms	wh/0609.bmp
10.80	0.72	6	1	6	19	per	lib	mod	mod	mod	tg	ht	wh/0694.bmp
11.52	0.72	7	1	8	118	mem	lib	mod	mod	low	tg	ht	wh/0401.bmp
12.24	0.72	8	1	5	33	mem	con	low	low	low	nt	ht	nh/0570_nh.bmp
12.96	0.72	9	1	6	73	per	con	mod	mod	mod	tg	ht	wh/0822.bmp
13.68	0.72	10	1	7	37	mem	con	mod	mod	mod	nt	ms	nh/0441_nh.bmp
14.40	0.72	11	1	6	48	per	lib	low	mod	low	tg	ht	wh/0986.bmp
15.12	0.72	12	1	7	81	per	lib	mod	mod	mod	nt	fa	nh/0968_nh.bmp
15.84	0.72	13	1	6	122	mem	con	mod	mod	mod	nt	ht	nh/0764_nh.bmp
16.56	0.72	14	1	6	46	per	lib	low	mod	low	nt	cr	nh/0023_nh.bmp
17.28	0.72	15	1	6	4	per	con	low	mod	low	tg	ms	wh/0139.bmp
18.00	0.72	16	1	7	17	mem	lib	mod	mod	mod	tg	ms	wh/0399.bmp
18.72	0.72	17	1	6	127	mem	con	mod	mod	mod	nt	ms	nh/0715_nh.bmp
19.44	0.72	18	1	5	60	mem	con	mod	mod	low	nt	ht	nh/0165_nh.bmp
20.16	0.72	19	1	5	74	mem	lib	mod	mod	low	tg	ht	wh/0491.bmp
20.88	0.72	20	1	8	124	mem	lib	mod	mod	low	nt	ht	nh/0248_nh.bmp
21.60	0.72	21	1	6	28	per	lib	mod	mod	mod	nt	cr	nh/0020_nh.bmp
22.32	0.72	22	2	8	124	mem	lib	mod	mod	low	nt	ht	nh/0248_nh.bmp
23.04	0.72	23	1	6	117	mem	con	mod	mod	mod	tg	ht	wh/0871.bmp
23.76	0.72	24	1	7	108	mem	lib	low	low	mod	nt	ht	nh/0381_nh.bmp
24.48	0.72	25	1	5	63	mem	con	mod	mod	low	tg	ms	wh/0403.bmp
25.20	0.72	26	1	7	91	per	lib	mod	mod	mod	tg	ht	wh/0821.bmp
25.92	0.72	27	1	8	36	per	lib	low	mod	low	tg	ht	wh/0262.bmp
26.64	0.72	28	1	8	120	mem	lib	mod	mod	low	tg	ht	wh/0756.bmp
27.36	0.72	29	1	8	115	mem	lib	mod	mod	low	nt	ht	nh/0114_nh.bmp
28.08	0.72	30	1	6	36	per	lib	low	mod	low	tg	ht	wh/1019.bmp
28.80	0.72	31	1	6	49	mem	lib	mod	mod	mod	nt	ht	nh/0560_nh.bmp
29.52	0.72	32	1	6	25	per	lib	mod	mod	mod	nt	cr	nh/0717_nh.bmp
30.24	0.72	33	1	6	114	mem	con	mod	mod	mod	tg	ht	wh/0602.bmp
30.96	0.72	34	1	5	52	mem	con	mod	mod	low	tg	ht	wh/0746.bmp
31.68	0.72	35	1	7	95	per	lib	mod	mod	mod	tg	ht	wh/0275.bmp
32.40	0.72	36	1	6	21	per	lib	mod	mod	mod	nt	fa	nh/0378_nh.bmp
33.12	0.72	37	1	7	44	mem	con	mod	mod	mod	tg	ms	wh/0958.bmp
33.84	0.72	38	1	7	73	per	con	low	mod	low	nt	cr	nh/0255_nh.bmp
34.56	0.72	39	1	5	40	mem	con	low	low	low	nt	ht	nh/0280_nh.bmp
35.28	0.72	40	1	6	126	mem	con	mod	mod	mod	nt	ht	nh/0851_nh.bmp
36.00	0.72	41	1	5	95	per	lib	mod	low	mod	nt	fa	nh/0869_nh.bmp
36.72	0.72	42	2	6	25	per	lib	mod	mod	mod	nt	cr	nh/0717_nh.bmp
37.44	0.72	43	1	7	39	mem	con	mod	mod	mod	nt	ms	nh/0888_nh.bmp
38.16	0.72	44	1	8	12	mem	con	mod	mod	low	tg	ht	wh/0883.bmp
38.88	0.72	45	1	6	80	per	con	mod	mod	mod	nt	cr	nh/0366_nh.bmp
39.60	0.72	46	1	5	88	per	lib	mod	low	mod	tg	ht	wh/0093.bmp
40.32	0.72	47	1	7	40	mem	con	mod	mod	mod	tg	ms	wh/0420.bmp
41.04	0.72	48	1	6	108	mem	lib	low	low	mod	tg	ht	wh/0207.bmp
41.76	0.72	49	1	7	7	mem	con	low	low	mod	nt	ms	nh/0663_nh.bmp
42.48	0.72	50	1	7	80	per	con	low	mod	low	tg	ms	wh/0172.bmp
43.20	0.72	51	1	7	5	mem	con	low	low	mod	nt	ms	nh/0924_nh.bmp
43.92	0.72	52	2	5	63	mem	con	mod	mod	low	tg	ms	wh/0403.bmp
44.64	0.72	53	1	7	68	per	con	low	mod	low	nt	fa	nh/0042_nh.bmp
45.36	0.72	54	1	8	10	mem	con	mod	mod	low	tg	ms	wh/0253.bmp
46.08	0.72	55	1	5	68	mem	lib	mod	mod	low	nt	ht	nh/1004_nh.bmp
46.80	0.72	56	1	6	44	per	lib	low	mod	low	tg	ms	wh/0892.bmp
47.52	0.72	57	2	7	68	per	con	low	mod	low	nt	fa	nh/0042_nh.bmp
48.24	0.72	58	1	6	7	per	con	low	mod	low	nt	cr	nh/0064_nh.bmp
48.96	0.72	59	2	6	28	per	lib	mod	mod	mod	nt	cr	nh/0020_nh.bmp
49.68	0.72	60	1	8	122	mem	lib	mod	mod	low	tg	ht	wh/0453.bmp
50.40	0.72	61	2	6	80	per	con	mod	mod	mod	nt	cr	nh/0366_nh.bmp
51.12	0.72	62	1	5	105	per	con	mod	low	mod	tg	ht	wh/0334.bmp
51.84	0.72	63	1	6	68	per	con	mod	mod	mod	tg	ht	wh/0436.bmp
52.56	0.72	64	1	6	57	mem	lib	mod	mod	mod	tg	ht	wh/0833.bmp
53.28	0.72	65	1	6	76	per	con	mod	mod	mod	nt	cr	nh/0179_nh.bmp
54.00	0.72	66	2	6	46	per	lib	low	mod	low	nt	cr	nh/0023_nh.bmp
54.72	0.72	67	3	6	80	per	con	mod	mod	mod	nt	cr	nh/0366_nh.bmp
55.44	0.72	68	1	6	113	mem	con	mod	mod	mod	tg	ms	wh/0269.bmp
56.16	0.72	69	2	6	117	mem	con	mod	mod	mod	tg	ht	wh/0871.bmp
56.88	0.72	70	1	6	61	mem	lib	mod	mod	mod	nt	ht	nh/0337_nh.bmp
57.60	0.72	71	1	8	112	per	lib	mod	low	mod	tg	ht	wh/0402.bmp
58.32	0.72	72	1	6	99	mem	lib	low	low	mod	nt	ht	nh/0180_nh.bmp
59.04	0.72	73	1	6	34	per	lib	low	mod	low	tg	ht	wh/0170.bmp
59.76	0.72	74	1	8	44	per	lib	low	mod	low	tg	ms	wh/0249.bmp
60.48	0.72	75	2	7	39	mem	con	mod	mod	mod	nt	ms	nh/0888_nh.bmp
61.20	0.72	76	1	6	33	per	lib	low	mod	low	nt	fa	nh/0618_nh.bmp
61.92	0.72	77	1	8	63	per	con	mod	mod	mod	nt	fa	nh/0586_nh.bmp
62.64	0.72	78	1	5	56	mem	con	mod	mod	low	tg	ms	wh/0793.bmp
63.36	0.72	79	1	7	102	mem	lib	low	low	mod	nt	ht	nh/0982_nh.bmp
64.08	0.72	80	1	5	45	mem	con	low	low	low	tg	ms	wh/0244.bmp
64.80	0.72	81	1	8	64	per	con	mod	mod	mod	tg	ht	wh/0552.bmp
65.52	0.72	82	1	7	110	mem	lib	low	low	mod	tg	ht	wh/0867.bmp
66.24	0.72	83	1	6	119	mem	con	mod	mod	mod	nt	ms	nh/0495_nh.bmp
66.96	0.72	84	1	6	96	mem	con	low	low	mod	tg	ms	wh/0631.bmp
67.68	0.72	85	1	7	92	per	lib	mod	mod	mod	nt	fa	nh/0590_nh.bmp
68.40	0.72	86	1	5	4	mem	lib	low	low	low	nt	ht	nh/0268_nh.bmp
69.12	0.72	87	2	8	63	per	con	mod	mod	mod	nt	fa	nh/0586_nh.bmp
69.84	0.72	88	3	6	46	per	lib	low	mod	low	nt	cr	nh/0023_nh.bmp
70.56	0.72	89	1	7	61	per	lib	low	low	low	tg	ms	wh/0737.bmp
71.28	0.72	90	4	6	46	per	lib	low	mod	low	nt	cr	nh/0023_nh.bmp
72.00	0.72	91	1	7	29	mem	lib	mod	mod	mod	nt	ht	nh/0564_nh.bmp
72.72	0.72	92	1	5	99	per	con	mod	low	mod	tg	ht	wh/1005.bmp
73.44	0.72	93	1	6	18	per	lib	mod	mod	mod	tg	ht	wh/0603.bmp
74.16	0.72	94	2	8	36	per	lib	low	mod	low	tg	ht	wh/0262.bmp
74.88	0.72	95	2	6	21	per	lib	mod	mod	mod	nt	fa	nh/0378_nh.bmp
75.60	0.72	96	1	6	5	per	con	low	mod	low	nt	cr	nh/1014_nh.bmp
76.32	0.72	97	1	7	26	mem	lib	mod	mod	mod	tg	ht	wh/0735.bmp
77.04	0.72	98	1	5	54	mem	con	mod	mod	low	tg	ms	wh/0118.bmp
77.76	0.72	99	1	6	54	mem	lib	mod	mod	mod	nt	ms	nh/0623_nh.bmp
78.48	0.72	100	1	6	51	mem	lib	mod	mod	mod	tg	ht	wh/0797.bmp
79.20	0.72	101	1	5	73	mem	lib	mod	mod	low	nt	ht	nh/0574_nh.bmp
79.92	0.72	102	1	6	67	per	con	mod	mod	mod	tg	ht	wh/0971.bmp
80.64	0.72	103	1	8	4	mem	con	mod	mod	low	nt	ht	nh/0612_nh.bmp
81.36	0.72	104	1	8	54	per	con	mod	mod	mod	nt	cr	nh/0832_nh.bmp
82.08	0.72	105	1	6	59	mem	lib	mod	mod	mod	tg	ht	wh/0408.bmp
82.80	0.72	106	1	6	13	per	con	low	mod	low	tg	ht	wh/0254.bmp
83.52	0.72	107	1	7	76	per	con	low	mod	low	tg	ht	wh/0450.bmp
84.24	0.72	108	1	6	50	mem	lib	mod	mod	mod	tg	ht	wh/0599.bmp
84.96	0.72	109	1	7	22	mem	lib	mod	mod	mod	nt	ht	nh/0318_nh.bmp
85.68	0.72	110	1	7	34	mem	con	mod	mod	mod	nt	ms	nh/0294_nh.bmp
86.40	0.72	111	2	6	50	mem	lib	mod	mod	mod	tg	ht	wh/0599.bmp
87.12	0.72	112	2	8	44	per	lib	low	mod	low	tg	ms	wh/0249.bmp
87.84	0.72	113	1	8	61	per	con	mod	mod	mod	tg	ht	wh/0978.bmp
88.56	0.72	114	1	8	28	mem	lib	low	low	low	nt	ht	nh/0865_nh.bmp
89.28	0.72	115	3	5	63	mem	con	mod	mod	low	tg	ms	wh/0403.bmp
90.00	0.72	116	1	5	50	mem	con	mod	mod	low	nt	ht	nh/0374_nh.bmp
90.72	0.72	117	1	7	30	mem	lib	mod	mod	mod	nt	ht	nh/0086_nh.bmp
91.44	0.72	118	1	6	22	per	lib	mod	mod	mod	nt	cr	nh/0952_nh.bmp
92.16	0.72	119	1	7	31	mem	lib	mod	mod	mod	tg	ht	wh/0778.bmp
92.88	0.72	120	3	6	50	mem	lib	mod	mod	mod	tg	ht	wh/0599.bmp
93.60	0.72	121	2	7	22	mem	lib	mod	mod	mod	nt	ht	nh/0318_nh.bmp
94.32	0.72	122	2	6	51	mem	lib	mod	mod	mod	tg	ht	wh/0797.bmp
95.04	0.72	123	1	5	70	mem	lib	mod	mod	low	tg	ht	wh/0820.bmp
95.76	0.72	124	1	7	47	mem	con	mod	mod	mod	tg	ms	wh/0686.bmp
96.48	0.72	125	1	8	3	mem	con	mod	mod	low	tg	ms	wh/0297.bmp
97.20	0.72	126	3	6	25	per	lib	mod	mod	mod	nt	cr	nh/0717_nh.bmp
97.92	0.72	127	2	8	122	mem	lib	mod	mod	low	tg	ht	wh/0453.bmp
98.64	0.72	128	1	8	38	per	lib	low	mod	low	nt	fa	nh/0247_nh.bmp
99.36	0.72	129	3	8	122	mem	lib	mod	mod	low	tg	ht	wh/0453.bmp
100.08	0.72	130	1	8	33	per	lib	low	mod	low	tg	ht	wh/0108.bmp
100.80	0.72	131	1	6	30	per	lib	mod	mod	mod	tg	ht	wh/0239.bmp
101.52	0.72	132	3	8	44	per	lib	low	mod	low	tg	ms	wh/0249.bmp
102.24	0.72	133	2	8	115	mem	lib	mod	mod	low	nt	ht	nh/0114_nh.bmp
102.96	0.72	134	1	7	38	mem	con	mod	mod	mod	tg	ms	wh/0546.bmp
103.68	0.72	135	1	8	71	per	con	low	low	low	tg	ht	wh/0058.bmp
104.40	0.72	136	2	5	68	mem	lib	mod	mod	low	nt	ht	nh/1004_nh.bmp
105.12	0.72	137	1	6	26	per	lib	mod	mod	mod	tg	ht	wh/0556.bmp
105.84	0.72	138	1	7	70	per	con	low	mod	low	nt	cr	nh/0848_nh.bmp
106.56	0.72	139	1	7	72	per	con	low	mod	low	tg	ht	wh/0521.bmp
107.28	0.72	140	2	8	61	per	con	mod	mod	mod	tg	ht	wh/0978.bmp
108.00	0.72	141	1	8	117	mem	lib	mod	mod	low	nt	ht	nh/0814_nh.bmp
108.72	0.72	142	1	8	24	mem	lib	low	low	low	tg	ms	wh/1015.bmp
109.44	0.72	143	2	6	113	mem	con	mod	mod	mod	tg	ms	wh/0269.bmp
110.16	0.72	144	1	5	49	mem	con	mod	mod	low	nt	ms	nh/0578_nh.bmp
110.88	0.72	145	1	8	60	per	con	mod	mod	mod	tg	ht	wh/0544.bmp
111.60	0.72	146	2	7	31	mem	lib	mod	mod	mod	tg	ht	wh/0778.bmp
112.32	0.72	147	1	5	93	per	lib	mod	low	mod	nt	cr	nh/0779_nh.bmp
113.04	0.72	148	2	6	127	mem	con	mod	mod	mod	nt	ms	nh/0715_nh.bmp
113.76	0.72	149	1	6	83	mem	con	low	low	mod	nt	ms	nh/0668_nh.bmp
114.48	0.72	150	1	7	67	per	con	low	mod	low	tg	ms	wh/0388.bmp
115.20	0.72	151	2	6	49	mem	lib	mod	mod	mod	nt	ht	nh/0560_nh.bmp
115.92	0.72	152	1	6	104	mem	lib	low	low	mod	tg	ht	wh/0837.bmp
116.64	0.72	153	2	6	5	per	con	low	mod	low	nt	cr	nh/1014_nh.bmp
117.36	0.72	154	2	8	118	mem	lib	mod	mod	low	tg	ht	wh/0401.bmp
118.08	0.72	155	3	7	22	mem	lib	mod	mod	mod	nt	ht	nh/0318_nh.bmp
118.80	0.72	156	2	6	122	mem	con	mod	mod	mod	nt	ht	nh/0764_nh.bmp
119.52	0.72	157	2	7	17	mem	lib	mod	mod	mod	tg	ms	wh/0399.bmp
120.24	0.72	158	1	8	6	mem	con	mod	mod	low	nt	ms	nh/0519_nh.bmp
120.96	0.72	159	2	8	117	mem	lib	mod	mod	low	nt	ht	nh/0814_nh.bmp
121.68	0.72	160	1	8	16	mem	con	mod	mod	low	nt	ms	nh/0024_nh.bmp
122.40	0.72	161	2	6	67	per	con	mod	mod	mod	tg	ht	wh/0971.bmp
123.12	0.72	162	2	8	120	mem	lib	mod	mod	low	tg	ht	wh/0756.bmp
123.84	0.72	163	2	8	16	mem	con	mod	mod	low	nt	ms	nh/0024_nh.bmp
124.56	0.72	164	2	6	73	per	con	mod	mod	mod	tg	ht	wh/0822.bmp
125.28	0.72	165	1	8	76	per	con	low	low	low	tg	ms	wh/1011.bmp
126.00	0.72	166	2	8	12	mem	con	mod	mod	low	tg	ht	wh/0883.bmp
126.72	0.72	167	2	6	76	per	con	mod	mod	mod	nt	cr	nh/0179_nh.bmp
127.44	0.72	168	1	5	16	mem	lib	low	low	low	nt	ht	nh/0260_nh.bmp
128.16	0.72	169	1	8	29	mem	lib	low	low	low	nt	ht	nh/0285_nh.bmp
128.88	0.72	170	3	6	113	mem	con	mod	mod	mod	tg	ms	wh/0269.bmp
129.60	0.72	171	2	8	33	per	lib	low	mod	low	tg	ht	wh/0108.bmp
130.32	0.72	172	2	7	80	per	con	low	mod	low	tg	ms	wh/0172.bmp
131.04	0.72	173	1	5	75	mem	lib	mod	mod	low	tg	ht	wh/0073.bmp
131.76	0.72	174	2	6	22	per	lib	mod	mod	mod	nt	cr	nh/0952_nh.bmp
132.48	0.72	175	1	7	85	per	lib	mod	mod	mod	tg	ht	wh/0666.bmp
133.20	0.72	176	2	7	72	per	con	low	mod	low	tg	ht	wh/0521.bmp
133.92	0.72	177	1	8	43	per	lib	low	mod	low	nt	fa	nh/0647_nh.bmp
134.64	0.72	178	2	7	91	per	lib	mod	mod	mod	tg	ht	wh/0821.bmp
135.36	0.72	179	2	6	19	per	lib	mod	mod	mod	tg	ht	wh/0694.bmp
136.08	0.72	180	2	5	54	mem	con	mod	mod	low	tg	ms	wh/0118.bmp
136.80	0.72	181	1	7	4	mem	con	low	low	mod	tg	ms	wh/0416.bmp
137.52	0.72	182	2	5	52	mem	con	mod	mod	low	tg	ht	wh/0746.bmp
138.24	0.72	183	1	6	37	per	lib	low	mod	low	nt	fa	nh/0678_nh.bmp
138.96	0.72	184	2	5	49	mem	con	mod	mod	low	nt	ms	nh/0578_nh.bmp
139.68	0.72	185	1	7	35	mem	con	mod	mod	mod	nt	ms	nh/0060_nh.bmp
140.40	0.72	186	2	7	38	mem	con	mod	mod	mod	tg	ms	wh/0546.bmp
141.12	0.72	187	1	6	9	per	con	low	mod	low	tg	ms	wh/0012.bmp
141.84	0.72	188	1	7	120	per	con	mod	low	mod	nt	cr	nh/0046_nh.bmp
142.56	0.72	189	2	6	61	mem	lib	mod	mod	mod	nt	ht	nh/0337_nh.bmp
143.28	0.72	190	1	6	72	per	con	mod	mod	mod	nt	cr	nh/0056_nh.bmp
144.00	0.72	191	1	6	93	mem	con	low	low	mod	tg	ht	wh/0559.bmp
144.72	0.72	192	1	8	5	mem	con	mod	mod	low	nt	ht	nh/0863_nh.bmp
145.44	0.72	193	3	7	68	per	con	low	mod	low	nt	fa	nh/0042_nh.bmp
146.16	0.72	194	4	7	68	per	con	low	mod	low	nt	fa	nh/0042_nh.bmp
146.88	0.72	195	2	8	38	per	lib	low	mod	low	nt	fa	nh/0247_nh.bmp
147.60	0.72	196	3	6	61	mem	lib	mod	mod	mod	nt	ht	nh/0337_nh.bmp
148.32	0.72	197	1	8	47	per	lib	low	mod	low	tg	ms	wh/0143.bmp
149.04	0.72	198	1	8	37	per	lib	low	mod	low	nt	fa	nh/0734_nh.bmp
149.76	0.72	199	2	6	26	per	lib	mod	mod	mod	tg	ht	wh/0556.bmp
150.48	0.72	200	2	7	44	mem	con	mod	mod	mod	tg	ms	wh/0958.bmp
151.20	0.72	201	3	5	52	mem	con	mod	mod	low	tg	ht	wh/0746.bmp
151.92	0.72	202	3	8	38	per	lib	low	mod	low	nt	fa	nh/0247_nh.bmp
152.64	0.72	203	1	6	45	per	lib	low	mod	low	nt	fa	nh/0018_nh.bmp
153.36	0.72	204	2	8	3	mem	con	mod	mod	low	tg	ms	wh/0297.bmp
154.08	0.72	205	2	6	7	per	con	low	mod	low	nt	cr	nh/0064_nh.bmp
154.80	0.72	206	3	6	51	mem	lib	mod	mod	mod	tg	ht	wh/0797.bmp
155.52	0.72	207	3	6	19	per	lib	mod	mod	mod	tg	ht	wh/0694.bmp
156.24	0.72	208	3	7	72	per	con	low	mod	low	tg	ht	wh/0521.bmp
156.96	0.72	209	2	6	44	per	lib	low	mod	low	tg	ms	wh/0892.bmp
157.68	0.72	210	4	7	72	per	con	low	mod	low	tg	ht	wh/0521.bmp
158.40	0.72	211	2	7	92	per	lib	mod	mod	mod	nt	fa	nh/0590_nh.bmp
159.12	0.72	212	1	8	125	mem	lib	mod	mod	low	nt	ht	nh/0176_nh.bmp
159.84	0.72	213	4	7	22	mem	lib	mod	mod	mod	nt	ht	nh/0318_nh.bmp
160.56	0.72	214	2	6	13	per	con	low	mod	low	tg	ht	wh/0254.bmp
161.28	0.72	215	2	8	6	mem	con	mod	mod	low	nt	ms	nh/0519_nh.bmp
162.00	0.72	216	1	5	12	mem	lib	low	low	low	nt	ht	nh/0135_nh.bmp
162.72	0.72	217	1	5	76	mem	lib	mod	mod	low	tg	ht	wh/0582.bmp
163.44	0.72	218	1	5	79	mem	lib	mod	mod	low	nt	ht	nh/0875_nh.bmp
164.16	0.72	219	2	7	70	per	con	low	mod	low	nt	cr	nh/0848_nh.bmp
164.88	0.72	220	3	8	36	per	lib	low	mod	low	tg	ht	wh/0262.bmp
165.60	0.72	221	1	5	126	per	lib	low	low	low	tg	ht	wh/0770.bmp
166.32	0.72	222	3	6	69	per	con	mod	mod	mod	nt	cr	nh/0629_nh.bmp
167.04	0.72	223	4	8	36	per	lib	low	mod	low	tg	ht	wh/0262.bmp
167.76	0.72	224	1	6	90	mem	con	low	low	mod	nt	ms	nh/0840_nh.bmp
168.48	0.72	225	3	5	49	mem	con	mod	mod	low	nt	ms	nh/0578_nh.bmp
169.20	0.72	226	2	6	45	per	lib	low	mod	low	nt	fa	nh/0018_nh.bmp
169.92	0.72	227	3	6	26	per	lib	mod	mod	mod	tg	ht	wh/0556.bmp
170.64	0.72	228	3	6	22	per	lib	mod	mod	mod	nt	cr	nh/0952_nh.bmp
171.36	0.72	229	2	7	34	mem	con	mod	mod	mod	nt	ms	nh/0294_nh.bmp
172.08	0.72	230	1	8	59	per	con	mod	mod	mod	nt	cr	nh/0300_nh.bmp
172.80	0.72	231	2	7	37	mem	con	mod	mod	mod	nt	ms	nh/0441_nh.bmp
173.52	0.72	232	1	7	97	mem	lib	low	low	mod	tg	ht	wh/0221.bmp
174.24	0.72	233	1	5	84	per	lib	mod	low	mod	tg	ht	wh/0418.bmp
174.96	0.72	234	2	7	81	per	lib	mod	mod	mod	nt	fa	nh/0968_nh.bmp
175.68	0.72	235	2	7	73	per	con	low	mod	low	nt	cr	nh/0255_nh.bmp
176.40	0.72	236	2	6	59	mem	lib	mod	mod	mod	tg	ht	wh/0408.bmp
177.12	0.72	237	3	7	38	mem	con	mod	mod	mod	tg	ms	wh/0546.bmp
177.84	0.72	238	1	7	60	per	lib	low	low	low	nt	fa	nh/0198_nh.bmp
178.56	0.72	239	3	6	21	per	lib	mod	mod	mod	nt	fa	nh/0378_nh.bmp
179.28	0.72	240	1	8	84	mem	con	low	low	low	tg	ms	wh/0636.bmp
180.00	0.72	241	3	6	59	mem	lib	mod	mod	mod	tg	ht	wh/0408.bmp
180.72	0.72	242	1	7	75	per	con	low	mod	low	nt	cr	nh/0939_nh.bmp
181.44	0.72	243	1	5	103	per	con	mod	low	mod	nt	cr	nh/0625_nh.bmp
182.16	0.72	244	1	8	62	per	con	mod	mod	mod	tg	ht	wh/0763.bmp
182.88	0.72	245	3	6	49	mem	lib	mod	mod	mod	nt	ht	nh/0560_nh.bmp
183.60	0.72	246	2	5	73	mem	lib	mod	mod	low	nt	ht	nh/0574_nh.bmp
184.32	0.72	247	2	7	35	mem	con	mod	mod	mod	nt	ms	nh/0060_nh.bmp
185.04	0.72	248	4	5	49	mem	con	mod	mod	low	nt	ms	nh/0578_nh.bmp
185.76	0.72	249	1	8	41	per	lib	low	mod	low	nt	cr	nh/0164_nh.bmp
186.48	0.72	250	2	6	57	mem	lib	mod	mod	mod	tg	ht	wh/0833.bmp
187.20	0.72	251	5	7	72	per	con	low	mod	low	tg	ht	wh/0521.bmp
187.92	0.72	252	2	7	95	per	lib	mod	mod	mod	tg	ht	wh/0275.bmp
188.64	0.72	253	3	8	117	mem	lib	mod	mod	low	nt	ht	nh/0814_nh.bmp
189.36	0.72	254	3	8	63	per	con	mod	mod	mod	nt	fa	nh/0586_nh.bmp
190.08	0.72	255	5	5	49	mem	con	mod	mod	low	nt	ms	nh/0578_nh.bmp
190.80	0.72	256	2	6	34	per	lib	low	mod	low	tg	ht	wh/0170.bmp
191.52	0.72	257	3	7	17	mem	lib	mod	mod	mod	tg	ms	wh/0399.bmp
192.24	0.72	258	3	8	120	mem	lib	mod	mod	low	tg	ht	wh/0756.bmp
192.96	0.72	259	3	6	28	per	lib	mod	mod	mod	nt	cr	nh/0020_nh.bmp
193.68	0.72	260	1	6	10	per	con	low	mod	low	tg	ht	wh/0780.bmp
194.40	0.72	261	3	7	91	per	lib	mod	mod	mod	tg	ht	wh/0821.bmp
195.12	0.72	262	1	6	95	mem	con	low	low	mod	nt	ms	nh/0389_nh.bmp
195.84	0.72	263	1	6	12	per	con	low	mod	low	nt	cr	nh/0111_nh.bmp
196.56	0.72	264	3	7	31	mem	lib	mod	mod	mod	tg	ht	wh/0778.bmp
197.28	0.72	265	3	6	57	mem	lib	mod	mod	mod	tg	ht	wh/0833.bmp
198.00	0.72	266	3	8	3	mem	con	mod	mod	low	tg	ms	wh/0297.bmp
198.72	0.72	267	3	6	117	mem	con	mod	mod	mod	tg	ht	wh/0871.bmp
199.44	0.72	268	2	6	72	per	con	mod	mod	mod	nt	cr	nh/0056_nh.bmp
200.16	0.72	269	2	6	114	mem	con	mod	mod	mod	tg	ht	wh/0602.bmp
200.88	0.72	270	3	8	6	mem	con	mod	mod	low	nt	ms	nh/0519_nh.bmp
201.60	0.72	271	2	8	54	per	con	mod	mod	mod	nt	cr	nh/0832_nh.bmp
202.32	0.72	272	2	8	60	per	con	mod	mod	mod	tg	ht	wh/0544.bmp
203.04	0.72	273	2	5	75	mem	lib	mod	mod	low	tg	ht	wh/0073.bmp
203.76	0.72	274	1	6	2	per	con	low	mod	low	nt	cr	nh/0640_nh.bmp
204.48	0.72	275	1	8	102	per	lib	mod	low	mod	tg	ht	wh/0751.bmp
205.20	0.72	276	2	8	62	per	con	mod	mod	mod	tg	ht	wh/0763.bmp
205.92	0.72	277	2	6	36	per	lib	low	mod	low	tg	ht	wh/1019.bmp
206.64	0.72	278	4	8	122	mem	lib	mod	mod	low	tg	ht	wh/0453.bmp
207.36	0.72	279	2	5	74	mem	lib	mod	mod	low	tg	ht	wh/0491.bmp
208.08	0.72	280	3	7	81	per	lib	mod	mod	mod	nt	fa	nh/0968_nh.bmp
208.80	0.72	281	1	7	86	per	lib	mod	mod	mod	nt	fa	nh/0827_nh.bmp
209.52	0.72	282	3	6	73	per	con	mod	mod	mod	tg	ht	wh/0822.bmp
210.24	0.72	283	1	8	114	mem	lib	mod	mod	low	tg	ht	wh/0394.bmp
210.96	0.72	284	1	5	124	per	lib	low	low	low	nt	fa	nh/0219_nh.bmp
211.68	0.72	285	1	6	75	per	con	mod	mod	mod	tg	ht	wh/0549.bmp
212.40	0.72	286	1	7	96	per	lib	mod	mod	mod	tg	ht	wh/0638.bmp
213.12	0.72	287	2	6	128	mem	con	mod	mod	mod	tg	ms	wh/0609.bmp
213.84	0.72	288	4	7	91	per	lib	mod	mod	mod	tg	ht	wh/0821.bmp
214.56	0.72	289	3	6	76	per	con	mod	mod	mod	nt	cr	nh/0179_nh.bmp
215.28	0.72	290	2	7	76	per	con	low	mod	low	tg	ht	wh/0450.bmp
216.00	0.72	291	1	5	115	per	lib	low	low	low	nt	fa	nh/0639_nh.bmp
216.72	0.72	292	3	6	127	mem	con	mod	mod	mod	nt	ms	nh/0715_nh.bmp
217.44	0.72	293	2	6	54	mem	lib	mod	mod	mod	nt	ms	nh/0623_nh.bmp
218.16	0.72	294	3	8	61	per	con	mod	mod	mod	tg	ht	wh/0978.bmp
218.88	0.72	295	3	8	12	mem	con	mod	mod	low	tg	ht	wh/0883.bmp
219.60	0.72	296	2	6	2	per	con	low	mod	low	nt	cr	nh/0640_nh.bmp
220.32	0.72	297	1	7	19	mem	lib	mod	mod	mod	nt	ht	nh/0835_nh.bmp
221.04	0.72	298	2	8	4	mem	con	mod	mod	low	nt	ht	nh/0612_nh.bmp
221.76	0.72	299	2	8	37	per	lib	low	mod	low	nt	fa	nh/0734_nh.bmp
222.48	0.72	300	4	8	6	mem	con	mod	mod	low	nt	ms	nh/0519_nh.bmp
223.20	0.72	301	3	6	2	per	con	low	mod	low	nt	cr	nh/0640_nh.bmp
223.92	0.72	302	4	8	117	mem	lib	mod	mod	low	nt	ht	nh/0814_nh.bmp
224.64	0.72	303	2	8	10	mem	con	mod	mod	low	tg	ms	wh/0253.bmp
225.36	0.72	304	1	5	65	mem	lib	mod	mod	low	nt	ht	nh/0241_nh.bmp
226.08	0.72	305	3	6	67	per	con	mod	mod	mod	tg	ht	wh/0971.bmp
226.80	0.72	306	3	6	5	per	con	low	mod	low	nt	cr	nh/1014_nh.bmp
227.52	0.72	307	3	7	80	per	con	low	mod	low	tg	ms	wh/0172.bmp
228.24	0.72	308	1	6	60	mem	lib	mod	mod	mod	nt	ht	nh/0995_nh.bmp
228.96	0.72	309	2	7	29	mem	lib	mod	mod	mod	nt	ht	nh/0564_nh.bmp
229.68	0.72	310	2	6	75	per	con	mod	mod	mod	tg	ht	wh/0549.bmp
230.40	0.72	311	3	8	118	mem	lib	mod	mod	low	tg	ht	wh/0401.bmp
231.12	0.72	312	1	7	10	mem	con	low	low	mod	tg	ms	wh/0084.bmp
231.84	0.72	313	4	8	63	per	con	mod	mod	mod	nt	fa	nh/0586_nh.bmp
232.56	0.72	314	2	8	59	per	con	mod	mod	mod	nt	cr	nh/0300_nh.bmp
233.28	0.72	315	3	8	4	mem	con	mod	mod	low	nt	ht	nh/0612_nh.bmp
234.00	0.72	316	3	6	72	per	con	mod	mod	mod	nt	cr	nh/0056_nh.bmp
234.72	0.72	317	3	8	54	per	con	mod	mod	mod	nt	cr	nh/0832_nh.bmp
235.44	0.72	318	1	8	51	per	con	mod	mod	mod	nt	cr	nh/0852_nh.bmp
236.16	0.72	319	4	6	57	mem	lib	mod	mod	mod	tg	ht	wh/0833.bmp
236.88	0.72	320	4	6	28	per	lib	mod	mod	mod	nt	cr	nh/0020_nh.bmp
237.60	0.72	321	1	5	1	mem	lib	low	low	low	tg	ht	wh/0767.bmp
238.32	0.72	322	1	8	75	per	con	low	low	low	tg	ms	wh/0226.bmp
239.04	0.72	323	4	6	50	mem	lib	mod	mod	mod	tg	ht	wh/0599.bmp
239.76	0.72	324	1	5	31	per	con	low	low	low	nt	fa	nh/0825_nh.bmp
240.48	0.72	325	3	8	62	per	con	mod	mod	mod	tg	ht	wh/0763.bmp
241.20	0.72	326	4	6	59	mem	lib	mod	mod	mod	tg	ht	wh/0408.bmp
241.92	0.72	327	2	5	65	mem	lib	mod	mod	low	nt	ht	nh/0241_nh.bmp
242.64	0.72	328	3	8	59	per	con	mod	mod	mod	nt	cr	nh/0300_nh.bmp
243.36	0.72	329	3	6	114	mem	con	mod	mod	mod	tg	ht	wh/0602.bmp
244.08	0.72	330	4	6	73	per	con	mod	mod	mod	tg	ht	wh/0822.bmp
244.80	0.72	331	2	7	47	mem	con	mod	mod	mod	tg	ms	wh/0686.bmp
245.52	0.72	332	2	7	67	per	con	low	mod	low	tg	ms	wh/0388.bmp
246.24	0.72	333	2	6	30	per	lib	mod	mod	mod	tg	ht	wh/0239.bmp
246.96	0.72	334	1	7	20	mem	lib	mod	mod	mod	tg	ht	wh/0385.bmp
247.68	0.72	335	3	8	124	mem	lib	mod	mod	low	nt	ht	nh/0248_nh.bmp
248.40	0.72	336	3	7	34	mem	con	mod	mod	mod	nt	ms	nh/0294_nh.bmp
249.12	0.72	337	2	7	40	mem	con	mod	mod	mod	tg	ms	wh/0420.bmp
249.84	0.72	338	3	7	76	per	con	low	mod	low	tg	ht	wh/0450.bmp
250.56	0.72	339	2	8	5	mem	con	mod	mod	low	nt	ht	nh/0863_nh.bmp
251.28	0.72	340	3	6	13	per	con	low	mod	low	tg	ht	wh/0254.bmp
252.00	0.72	341	1	7	16	mem	con	low	low	mod	tg	ms	wh/0342.bmp
252.72	0.72	342	2	6	12	per	con	low	mod	low	nt	cr	nh/0111_nh.bmp
253.44	0.72	343	1	5	38	mem	con	low	low	low	tg	ms	wh/0045.bmp
254.16	0.72	344	3	5	74	mem	lib	mod	mod	low	tg	ht	wh/0491.bmp
254.88	0.72	345	3	7	39	mem	con	mod	mod	mod	nt	ms	nh/0888_nh.bmp
255.60	0.72	346	4	7	81	per	lib	mod	mod	mod	nt	fa	nh/0968_nh.bmp
256.32	0.72	347	4	8	4	mem	con	mod	mod	low	nt	ht	nh/0612_nh.bmp
257.04	0.72	348	2	7	30	mem	lib	mod	mod	mod	nt	ht	nh/0086_nh.bmp
257.76	0.72	349	4	6	49	mem	lib	mod	mod	mod	nt	ht	nh/0560_nh.bmp
258.48	0.72	350	3	7	29	mem	lib	mod	mod	mod	nt	ht	nh/0564_nh.bmp
259.20	0.72	351	5	8	6	mem	con	mod	mod	low	nt	ms	nh/0519_nh.bmp
259.92	0.72	352	3	6	30	per	lib	mod	mod	mod	tg	ht	wh/0239.bmp
260.64	0.72	353	5	7	22	mem	lib	mod	mod	mod	nt	ht	nh/0318_nh.bmp
261.36	0.72	354	3	7	35	mem	con	mod	mod	mod	nt	ms	nh/0060_nh.bmp
262.08	0.72	355	1	5	101	per	con	mod	low	mod	nt	n/a	nh/0051_nh.bmp
262.80	0.72	356	1	7	113	per	con	mod	low	mod	tg	ms	wh/0839.bmp
263.52	0.72	357	1	7	114	per	con	mod	low	mod	nt	cr	nh/0921_nh.bmp
264.24	0.72	358	3	8	115	mem	lib	mod	mod	low	nt	ht	nh/0114_nh.bmp
264.96	0.72	359	5	6	46	per	lib	low	mod	low	nt	cr	nh/0023_nh.bmp
265.68	0.72	360	3	8	10	mem	con	mod	mod	low	tg	ms	wh/0253.bmp
266.40	0.72	361	4	6	30	per	lib	mod	mod	mod	tg	ht	wh/0239.bmp
267.12	0.72	362	1	5	62	mem	con	mod	mod	low	nt	ht	nh/0193_nh.bmp
267.84	0.72	363	4	6	61	mem	lib	mod	mod	mod	nt	ht	nh/0337_nh.bmp
268.56	0.72	364	4	8	62	per	con	mod	mod	mod	tg	ht	wh/0763.bmp
269.28	0.72	365	4	6	21	per	lib	mod	mod	mod	nt	fa	nh/0378_nh.bmp
270.00	0.72	366	4	7	39	mem	con	mod	mod	mod	nt	ms	nh/0888_nh.bmp
270.72	0.72	367	1	7	82	per	lib	mod	mod	mod	nt	cr	nh/0915_nh.bmp
271.44	0.72	368	3	7	70	per	con	low	mod	low	nt	cr	nh/0848_nh.bmp
272.16	0.72	369	4	5	74	mem	lib	mod	mod	low	tg	ht	wh/0491.bmp
272.88	0.72	370	2	6	4	per	con	low	mod	low	tg	ms	wh/0139.bmp
273.60	0.72	371	6	6	46	per	lib	low	mod	low	nt	cr	nh/0023_nh.bmp
274.32	0.72	372	1	8	8	mem	con	mod	mod	low	tg	ms	wh/0157.bmp
275.04	0.72	373	2	5	79	mem	lib	mod	mod	low	nt	ht	nh/0875_nh.bmp
275.76	0.72	374	2	6	126	mem	con	mod	mod	mod	nt	ht	nh/0851_nh.bmp
276.48	0.72	375	2	7	85	per	lib	mod	mod	mod	tg	ht	wh/0666.bmp
277.20	0.72	376	2	6	18	per	lib	mod	mod	mod	tg	ht	wh/0603.bmp
277.92	0.72	377	1	8	91	mem	con	low	low	low	nt	ms	nh/0994_nh.bmp
278.64	0.72	378	4	6	19	per	lib	mod	mod	mod	tg	ht	wh/0694.bmp
279.36	0.72	379	3	5	75	mem	lib	mod	mod	low	tg	ht	wh/0073.bmp
280.08	0.72	380	4	8	44	per	lib	low	mod	low	tg	ms	wh/0249.bmp
280.80	0.72	381	1	7	12	mem	con	low	low	mod	nt	ht	nh/0732_nh.bmp
281.52	0.72	382	2	6	68	per	con	mod	mod	mod	tg	ht	wh/0436.bmp
282.24	0.72	383	1	7	2	mem	con	low	low	mod	tg	ms	wh/0091.bmp
282.96	0.72	384	3	6	126	mem	con	mod	mod	mod	nt	ht	nh/0851_nh.bmp
283.68	0.72	385	1	8	72	per	con	low	low	low	nt	fa	nh/0587_nh.bmp
284.40	0.72	386	3	5	54	mem	con	mod	mod	low	tg	ms	wh/0118.bmp
285.12	0.72	387	3	7	30	mem	lib	mod	mod	mod	nt	ht	nh/0086_nh.bmp
285.84	0.72	388	5	8	122	mem	lib	mod	mod	low	tg	ht	wh/0453.bmp
286.56	0.72	389	3	5	79	mem	lib	mod	mod	low	nt	ht	nh/0875_nh.bmp
287.28	0.72	390	4	8	12	mem	con	mod	mod	low	tg	ht	wh/0883.bmp
288.00	0.72	391	5	6	50	mem	lib	mod	mod	mod	tg	ht	wh/0599.bmp
288.72	0.72	392	4	6	25	per	lib	mod	mod	mod	nt	cr	nh/0717_nh.bmp
289.44	0.72	393	4	7	31	mem	lib	mod	mod	mod	tg	ht	wh/0778.bmp
290.16	0.72	394	1	5	37	mem	con	low	low	low	tg	ms	wh/0617.bmp
290.88	0.72	395	3	8	37	per	lib	low	mod	low	nt	fa	nh/0734_nh.bmp
291.60	0.72	396	4	7	30	mem	lib	mod	mod	mod	nt	ht	nh/0086_nh.bmp
292.32	0.72	397	3	8	16	mem	con	mod	mod	low	nt	ms	nh/0024_nh.bmp
293.04	0.72	398	2	6	37	per	lib	low	mod	low	nt	fa	nh/0678_nh.bmp
293.76	0.72	399	2	7	20	mem	lib	mod	mod	mod	tg	ht	wh/0385.bmp
294.48	0.72	400	2	8	43	per	lib	low	mod	low	nt	fa	nh/0647_nh.bmp
295.20	0.72	401	5	8	63	per	con	mod	mod	mod	nt	fa	nh/0586_nh.bmp
295.92	0.72	402	4	6	76	per	con	mod	mod	mod	nt	cr	nh/0179_nh.bmp
296.64	0.72	403	1	7	109	mem	lib	low	low	mod	nt	ht	nh/0395_nh.bmp
297.36	0.72	404	4	8	61	per	con	mod	mod	mod	tg	ht	wh/0978.bmp
298.08	0.72	405	3	8	5	mem	con	mod	mod	low	nt	ht	nh/0863_nh.bmp
298.80	0.72	406	4	8	120	mem	lib	mod	mod	low	tg	ht	wh/0756.bmp
299.52	0.72	407	3	6	34	per	lib	low	mod	low	tg	ht	wh/0170.bmp
300.24	0.72	408	4	5	52	mem	con	mod	mod	low	tg	ht	wh/0746.bmp
300.96	0.72	409	3	6	7	per	con	low	mod	low	nt	cr	nh/0064_nh.bmp
301.68	0.72	410	2	5	50	mem	con	mod	mod	low	nt	ht	nh/0374_nh.bmp
302.40	0.72	411	3	5	68	mem	lib	mod	mod	low	nt	ht	nh/1004_nh.bmp
303.12	0.72	412	3	8	33	per	lib	low	mod	low	tg	ht	wh/0108.bmp
303.84	0.72	413	5	8	62	per	con	mod	mod	mod	tg	ht	wh/0763.bmp
304.56	0.72	414	4	8	59	per	con	mod	mod	mod	nt	cr	nh/0300_nh.bmp
305.28	0.72	415	4	6	13	per	con	low	mod	low	tg	ht	wh/0254.bmp
306.00	0.72	416	4	7	34	mem	con	mod	mod	mod	nt	ms	nh/0294_nh.bmp
306.72	0.72	417	1	5	28	per	con	low	low	low	tg	ms	wh/0676.bmp
307.44	0.72	418	4	6	114	mem	con	mod	mod	mod	tg	ht	wh/0602.bmp
308.16	0.72	419	2	5	56	mem	con	mod	mod	low	tg	ms	wh/0793.bmp
308.88	0.72	420	4	6	51	mem	lib	mod	mod	mod	tg	ht	wh/0797.bmp
309.60	0.72	421	2	6	119	mem	con	mod	mod	mod	nt	ms	nh/0495_nh.bmp
310.32	0.72	422	5	6	28	per	lib	mod	mod	mod	nt	cr	nh/0020_nh.bmp
311.04	0.72	423	5	8	59	per	con	mod	mod	mod	nt	cr	nh/0300_nh.bmp
311.76	0.72	424	4	8	16	mem	con	mod	mod	low	nt	ms	nh/0024_nh.bmp
312.48	0.72	425	5	8	16	mem	con	mod	mod	low	nt	ms	nh/0024_nh.bmp
313.20	0.72	426	3	6	75	per	con	mod	mod	mod	tg	ht	wh/0549.bmp
313.92	0.72	427	4	8	118	mem	lib	mod	mod	low	tg	ht	wh/0401.bmp
314.64	0.72	428	5	6	57	mem	lib	mod	mod	mod	tg	ht	wh/0833.bmp
315.36	0.72	429	3	8	43	per	lib	low	mod	low	nt	fa	nh/0647_nh.bmp
316.08	0.72	430	4	6	67	per	con	mod	mod	mod	tg	ht	wh/0971.bmp
316.80	0.72	431	5	5	74	mem	lib	mod	mod	low	tg	ht	wh/0491.bmp
317.52	0.72	432	2	5	60	mem	con	mod	mod	low	nt	ht	nh/0165_nh.bmp
318.24	0.72	433	4	8	37	per	lib	low	mod	low	nt	fa	nh/0734_nh.bmp
318.96	0.72	434	2	7	26	mem	lib	mod	mod	mod	tg	ht	wh/0735.bmp
319.68	0.72	435	3	6	12	per	con	low	mod	low	nt	cr	nh/0111_nh.bmp
320.40	0.72	436	3	6	36	per	lib	low	mod	low	tg	ht	wh/1019.bmp
321.12	0.72	437	4	8	115	mem	lib	mod	mod	low	nt	ht	nh/0114_nh.bmp
321.84	0.72	438	5	7	91	per	lib	mod	mod	mod	tg	ht	wh/0821.bmp
322.56	0.72	439	3	5	56	mem	con	mod	mod	low	tg	ms	wh/0793.bmp
323.28	0.72	440	2	6	48	per	lib	low	mod	low	tg	ht	wh/0986.bmp
324.00	0.72	441	3	6	4	per	con	low	mod	low	tg	ms	wh/0139.bmp
324.72	0.72	442	3	6	122	mem	con	mod	mod	mod	nt	ht	nh/0764_nh.bmp
325.44	0.72	443	3	6	119	mem	con	mod	mod	mod	nt	ms	nh/0495_nh.bmp
326.16	0.72	444	1	5	91	per	lib	mod	low	mod	tg	ht	wh/0951.bmp
326.88	0.72	445	3	7	92	per	lib	mod	mod	mod	nt	fa	nh/0590_nh.bmp
327.60	0.72	446	1	6	88	mem	con	low	low	mod	tg	ht	wh/0532.bmp
328.32	0.72	447	4	8	10	mem	con	mod	mod	low	tg	ms	wh/0253.bmp
329.04	0.72	448	2	6	10	per	con	low	mod	low	tg	ht	wh/0780.bmp
329.76	0.72	449	5	8	115	mem	lib	mod	mod	low	nt	ht	nh/0114_nh.bmp
330.48	0.72	450	2	5	62	mem	con	mod	mod	low	nt	ht	nh/0193_nh.bmp
331.20	0.72	451	2	6	9	per	con	low	mod	low	tg	ms	wh/0012.bmp
331.92	0.72	452	2	7	75	per	con	low	mod	low	nt	cr	nh/0939_nh.bmp
332.64	0.72	453	3	6	37	per	lib	low	mod	low	nt	fa	nh/0678_nh.bmp
333.36	0.72	454	1	8	108	per	lib	mod	low	mod	tg	ms	wh/1016.bmp
334.08	0.72	455	2	8	8	mem	con	mod	mod	low	tg	ms	wh/0157.bmp
334.80	0.72	456	3	7	40	mem	con	mod	mod	mod	tg	ms	wh/0420.bmp
335.52	0.72	457	4	8	43	per	lib	low	mod	low	nt	fa	nh/0647_nh.bmp
336.24	0.72	458	2	7	96	per	lib	mod	mod	mod	tg	ht	wh/0638.bmp
336.96	0.72	459	4	5	54	mem	con	mod	mod	low	tg	ms	wh/0118.bmp
337.68	0.72	460	5	7	34	mem	con	mod	mod	mod	nt	ms	nh/0294_nh.bmp
338.40	0.72	461	4	6	7	per	con	low	mod	low	nt	cr	nh/0064_nh.bmp
339.12	0.72	462	2	8	125	mem	lib	mod	mod	low	nt	ht	nh/0176_nh.bmp
339.84	0.72	463	3	5	50	mem	con	mod	mod	low	nt	ht	nh/0374_nh.bmp
340.56	0.72	464	2	6	33	per	lib	low	mod	low	nt	fa	nh/0618_nh.bmp
341.28	0.72	465	2	5	70	mem	lib	mod	mod	low	tg	ht	wh/0820.bmp
342.00	0.72	466	1	8	103	per	lib	mod	low	mod	nt	cr	nh/0945_nh.bmp
342.72	0.72	467	3	7	37	mem	con	mod	mod	mod	nt	ms	nh/0441_nh.bmp
343.44	0.72	468	1	5	86	per	lib	mod	low	mod	tg	ms	wh/0188.bmp
344.16	0.72	469	6	8	63	per	con	mod	mod	mod	nt	fa	nh/0586_nh.bmp
344.88	0.72	470	4	8	5	mem	con	mod	mod	low	nt	ht	nh/0863_nh.bmp
345.60	0.72	471	3	7	20	mem	lib	mod	mod	mod	tg	ht	wh/0385.bmp
346.32	0.72	472	3	5	70	mem	lib	mod	mod	low	tg	ht	wh/0820.bmp
347.04	0.72	473	5	7	39	mem	con	mod	mod	mod	nt	ms	nh/0888_nh.bmp
347.76	0.72	474	6	7	34	mem	con	mod	mod	mod	nt	ms	nh/0294_nh.bmp
348.48	0.72	475	5	8	43	per	lib	low	mod	low	nt	fa	nh/0647_nh.bmp
349.20	0.72	476	3	6	18	per	lib	mod	mod	mod	tg	ht	wh/0603.bmp
349.92	0.72	477	3	7	75	per	con	low	mod	low	nt	cr	nh/0939_nh.bmp
350.64	0.72	478	4	7	37	mem	con	mod	mod	mod	nt	ms	nh/0441_nh.bmp
351.36	0.72	479	4	6	37	per	lib	low	mod	low	nt	fa	nh/0678_nh.bmp
352.08	0.72	480	5	5	54	mem	con	mod	mod	low	tg	ms	wh/0118.bmp
352.80	0.72	481	2	7	82	per	lib	mod	mod	mod	nt	cr	nh/0915_nh.bmp
353.52	0.72	482	1	6	86	mem	con	low	low	mod	tg	ms	wh/0101.bmp
354.24	0.72	483	6	5	54	mem	con	mod	mod	low	tg	ms	wh/0118.bmp
354.96	0.72	484	6	8	43	per	lib	low	mod	low	nt	fa	nh/0647_nh.bmp
355.68	0.72	485	3	8	125	mem	lib	mod	mod	low	nt	ht	nh/0176_nh.bmp
356.40	0.72	486	6	6	28	per	lib	mod	mod	mod	nt	cr	nh/0020_nh.bmp
357.12	0.72	487	1	7	128	per	con	mod	low	mod	nt	cr	nh/0227_nh.bmp
357.84	0.72	488	4	6	122	mem	con	mod	mod	mod	nt	ht	nh/0764_nh.bmp
358.56	0.72	489	4	5	79	mem	lib	mod	mod	low	nt	ht	nh/0875_nh.bmp
359.28	0.72	490	4	6	80	per	con	mod	mod	mod	nt	cr	nh/0366_nh.bmp
360.00	0.72	491	4	7	35	mem	con	mod	mod	mod	nt	ms	nh/0060_nh.bmp
360.72	0.72	492	3	8	8	mem	con	mod	mod	low	tg	ms	wh/0157.bmp
361.44	0.72	493	1	8	32	mem	lib	low	low	low	tg	ht	wh/0482.bmp
362.16	0.72	494	3	7	82	per	lib	mod	mod	mod	nt	cr	nh/0915_nh.bmp
362.88	0.72	495	5	8	5	mem	con	mod	mod	low	nt	ht	nh/0863_nh.bmp
363.60	0.72	496	4	8	33	per	lib	low	mod	low	tg	ht	wh/0108.bmp
364.32	0.72	497	2	6	60	mem	lib	mod	mod	mod	nt	ht	nh/0995_nh.bmp
365.04	0.72	498	5	7	31	mem	lib	mod	mod	mod	tg	ht	wh/0778.bmp
365.76	0.72	499	4	5	68	mem	lib	mod	mod	low	nt	ht	nh/1004_nh.bmp
366.48	0.72	500	5	5	79	mem	lib	mod	mod	low	nt	ht	nh/0875_nh.bmp
367.20	0.72	501	1	6	105	mem	lib	low	low	mod	nt	ht	nh/0545_nh.bmp
367.92	0.72	502	4	5	50	mem	con	mod	mod	low	nt	ht	nh/0374_nh.bmp
368.64	0.72	503	4	7	82	per	lib	mod	mod	mod	nt	cr	nh/0915_nh.bmp
369.36	0.72	504	3	6	48	per	lib	low	mod	low	tg	ht	wh/0986.bmp
370.08	0.72	505	2	5	76	mem	lib	mod	mod	low	tg	ht	wh/0582.bmp
370.80	0.72	506	5	5	68	mem	lib	mod	mod	low	nt	ht	nh/1004_nh.bmp
371.52	0.72	507	1	8	81	mem	con	low	low	low	tg	ms	wh/0106.bmp
372.24	0.72	508	3	5	76	mem	lib	mod	mod	low	tg	ht	wh/0582.bmp
372.96	0.72	509	2	8	47	per	lib	low	mod	low	tg	ms	wh/0143.bmp
373.68	0.72	510	5	7	82	per	lib	mod	mod	mod	nt	cr	nh/0915_nh.bmp
374.40	0.72	511	4	6	12	per	con	low	mod	low	nt	cr	nh/0111_nh.bmp
375.12	0.72	512	5	6	49	mem	lib	mod	mod	mod	nt	ht	nh/0560_nh.bmp
375.84	0.72	513	6	6	50	mem	lib	mod	mod	mod	tg	ht	wh/0599.bmp
376.56	0.72	514	3	7	44	mem	con	mod	mod	mod	tg	ms	wh/0958.bmp
377.28	0.72	515	3	8	60	per	con	mod	mod	mod	tg	ht	wh/0544.bmp
378.00	0.72	516	3	5	73	mem	lib	mod	mod	low	nt	ht	nh/0574_nh.bmp
378.72	0.72	517	1	5	29	per	con	low	low	low	nt	fa	nh/0677_nh.bmp
379.44	0.72	518	5	6	67	per	con	mod	mod	mod	tg	ht	wh/0971.bmp
380.16	0.72	519	1	8	20	mem	lib	low	low	low	tg	ht	wh/0154.bmp
380.88	0.72	520	4	8	38	per	lib	low	mod	low	nt	fa	nh/0247_nh.bmp
381.60	0.72	521	4	6	69	per	con	mod	mod	mod	nt	cr	nh/0629_nh.bmp
382.32	0.72	522	3	7	73	per	con	low	mod	low	nt	cr	nh/0255_nh.bmp
383.04	0.72	523	5	6	61	mem	lib	mod	mod	mod	nt	ht	nh/0337_nh.bmp
383.76	0.72	524	5	8	36	per	lib	low	mod	low	tg	ht	wh/0262.bmp
384.48	0.72	525	6	7	72	per	con	low	mod	low	tg	ht	wh/0521.bmp
385.20	0.72	526	1	7	112	mem	lib	low	low	mod	tg	ht	wh/0305.bmp
385.92	0.72	527	2	7	19	mem	lib	mod	mod	mod	nt	ht	nh/0835_nh.bmp
386.64	0.72	528	1	5	117	per	lib	low	low	low	tg	ms	wh/0224.bmp
387.36	0.72	529	3	6	128	mem	con	mod	mod	mod	tg	ms	wh/0609.bmp
388.08	0.72	530	4	6	113	mem	con	mod	mod	mod	tg	ms	wh/0269.bmp
388.80	0.72	531	4	6	48	per	lib	low	mod	low	tg	ht	wh/0986.bmp
389.52	0.72	532	4	5	75	mem	lib	mod	mod	low	tg	ht	wh/0073.bmp
390.24	0.72	533	4	6	26	per	lib	mod	mod	mod	tg	ht	wh/0556.bmp
390.96	0.72	534	3	5	62	mem	con	mod	mod	low	nt	ht	nh/0193_nh.bmp
391.68	0.72	535	4	6	127	mem	con	mod	mod	mod	nt	ms	nh/0715_nh.bmp
392.40	0.72	536	1	5	42	mem	con	low	low	low	nt	ms	nh/0929_nh.bmp
393.12	0.72	537	4	6	72	per	con	mod	mod	mod	nt	cr	nh/0056_nh.bmp
393.84	0.72	538	3	6	33	per	lib	low	mod	low	nt	fa	nh/0618_nh.bmp
394.56	0.72	539	5	6	13	per	con	low	mod	low	tg	ht	wh/0254.bmp
395.28	0.72	540	4	5	76	mem	lib	mod	mod	low	tg	ht	wh/0582.bmp
396.00	0.72	541	4	7	75	per	con	low	mod	low	nt	cr	nh/0939_nh.bmp
396.72	0.72	542	4	7	38	mem	con	mod	mod	mod	tg	ms	wh/0546.bmp
397.44	0.72	543	6	5	68	mem	lib	mod	mod	low	nt	ht	nh/1004_nh.bmp
398.16	0.72	544	5	7	75	per	con	low	mod	low	nt	cr	nh/0939_nh.bmp
398.88	0.72	545	3	7	19	mem	lib	mod	mod	mod	nt	ht	nh/0835_nh.bmp
399.60	0.72	546	3	6	44	per	lib	low	mod	low	tg	ms	wh/0892.bmp
400.32	0.72	547	4	8	3	mem	con	mod	mod	low	tg	ms	wh/0297.bmp
401.04	0.72	548	1	5	114	per	lib	low	low	low	nt	fa	nh/0005_nh.bmp
401.76	0.72	549	5	6	127	mem	con	mod	mod	mod	nt	ms	nh/0715_nh.bmp
402.48	0.72	550	3	5	60	mem	con	mod	mod	low	nt	ht	nh/0165_nh.bmp
403.20	0.72	551	5	5	52	mem	con	mod	mod	low	tg	ht	wh/0746.bmp
403.92	0.72	552	3	7	96	per	lib	mod	mod	mod	tg	ht	wh/0638.bmp
404.64	0.72	553	4	6	2	per	con	low	mod	low	nt	cr	nh/0640_nh.bmp
405.36	0.72	554	4	6	75	per	con	mod	mod	mod	tg	ht	wh/0549.bmp
406.08	0.72	555	3	6	9	per	con	low	mod	low	tg	ms	wh/0012.bmp
406.80	0.72	556	1	8	101	per	lib	mod	low	mod	nt	fa	nh/0980_nh.bmp
407.52	0.72	557	6	5	74	mem	lib	mod	mod	low	tg	ht	wh/0491.bmp
408.24	0.72	558	4	7	19	mem	lib	mod	mod	mod	nt	ht	nh/0835_nh.bmp
408.96	0.72	559	4	6	44	per	lib	low	mod	low	tg	ms	wh/0892.bmp
409.68	0.72	560	1	5	21	per	con	low	low	low	nt	cr	nh/0138_nh.bmp
410.40	0.72	561	5	6	25	per	lib	mod	mod	mod	nt	cr	nh/0717_nh.bmp
411.12	0.72	562	5	7	81	per	lib	mod	mod	mod	nt	fa	nh/0968_nh.bmp
411.84	0.72	563	2	7	86	per	lib	mod	mod	mod	nt	fa	nh/0827_nh.bmp
412.56	0.72	564	3	7	95	per	lib	mod	mod	mod	tg	ht	wh/0275.bmp
413.28	0.72	565	4	5	62	mem	con	mod	mod	low	nt	ht	nh/0193_nh.bmp
414.00	0.72	566	5	6	21	per	lib	mod	mod	mod	nt	fa	nh/0378_nh.bmp
414.72	0.72	567	4	8	54	per	con	mod	mod	mod	nt	cr	nh/0832_nh.bmp
415.44	0.72	568	1	5	3	mem	lib	low	low	low	tg	ht	wh/0480.bmp
416.16	0.72	569	4	7	95	per	lib	mod	mod	mod	tg	ht	wh/0275.bmp
416.88	0.72	570	1	8	83	mem	con	low	low	low	nt	ms	nh/0034_nh.bmp
417.60	0.72	571	4	7	40	mem	con	mod	mod	mod	tg	ms	wh/0420.bmp
418.32	0.72	572	3	6	10	per	con	low	mod	low	tg	ht	wh/0780.bmp
419.04	0.72	573	5	6	114	mem	con	mod	mod	mod	tg	ht	wh/0602.bmp
419.76	0.72	574	3	7	85	per	lib	mod	mod	mod	tg	ht	wh/0666.bmp
420.48	0.72	575	5	8	10	mem	con	mod	mod	low	tg	ms	wh/0253.bmp
421.20	0.72	576	6	8	62	per	con	mod	mod	mod	tg	ht	wh/0763.bmp
421.92	0.72	577	6	8	6	mem	con	mod	mod	low	nt	ms	nh/0519_nh.bmp
422.64	0.72	578	5	5	62	mem	con	mod	mod	low	nt	ht	nh/0193_nh.bmp
423.36	0.72	579	4	7	70	per	con	low	mod	low	nt	cr	nh/0848_nh.bmp
424.08	0.72	580	2	8	41	per	lib	low	mod	low	nt	cr	nh/0164_nh.bmp
424.80	0.72	581	3	7	67	per	con	low	mod	low	tg	ms	wh/0388.bmp
425.52	0.72	582	1	5	85	per	lib	mod	low	mod	nt	cr	nh/0953_nh.bmp
426.24	0.72	583	3	7	26	mem	lib	mod	mod	mod	tg	ht	wh/0735.bmp
426.96	0.72	584	3	6	60	mem	lib	mod	mod	mod	nt	ht	nh/0995_nh.bmp
427.68	0.72	585	3	6	68	per	con	mod	mod	mod	tg	ht	wh/0436.bmp
428.40	0.72	586	4	7	92	per	lib	mod	mod	mod	nt	fa	nh/0590_nh.bmp
429.12	0.72	587	6	8	5	mem	con	mod	mod	low	nt	ht	nh/0863_nh.bmp
429.84	0.72	588	2	8	51	per	con	mod	mod	mod	nt	cr	nh/0852_nh.bmp
430.56	0.72	589	1	6	109	mem	lib	low	low	mod	nt	ht	nh/0749_nh.bmp
431.28	0.72	590	4	6	128	mem	con	mod	mod	mod	tg	ms	wh/0609.bmp
432.00	0.72	591	5	8	117	mem	lib	mod	mod	low	nt	ht	nh/0814_nh.bmp
432.72	0.72	592	4	7	76	per	con	low	mod	low	tg	ht	wh/0450.bmp
433.44	0.72	593	5	6	76	per	con	mod	mod	mod	nt	cr	nh/0179_nh.bmp
434.16	0.72	594	4	7	96	per	lib	mod	mod	mod	tg	ht	wh/0638.bmp
434.88	0.72	595	5	7	19	mem	lib	mod	mod	mod	nt	ht	nh/0835_nh.bmp
435.60	0.72	596	1	8	85	mem	con	low	low	low	tg	ht	wh/0518.bmp
436.32	0.72	597	4	5	63	mem	con	mod	mod	low	tg	ms	wh/0403.bmp
437.04	0.72	598	5	8	44	per	lib	low	mod	low	tg	ms	wh/0249.bmp
437.76	0.72	599	3	6	54	mem	lib	mod	mod	mod	nt	ms	nh/0623_nh.bmp
438.48	0.72	600	4	7	73	per	con	low	mod	low	nt	cr	nh/0255_nh.bmp
439.20	0.72	601	4	6	54	mem	lib	mod	mod	mod	nt	ms	nh/0623_nh.bmp
439.92	0.72	602	5	6	59	mem	lib	mod	mod	mod	tg	ht	wh/0408.bmp
440.64	0.72	603	4	6	126	mem	con	mod	mod	mod	nt	ht	nh/0851_nh.bmp
441.36	0.72	604	4	6	34	per	lib	low	mod	low	tg	ht	wh/0170.bmp
442.08	0.72	605	5	8	37	per	lib	low	mod	low	nt	fa	nh/0734_nh.bmp
442.80	0.72	606	1	8	87	mem	con	low	low	low	nt	ht	nh/0043_nh.bmp
443.52	0.72	607	5	5	75	mem	lib	mod	mod	low	tg	ht	wh/0073.bmp
444.24	0.72	608	5	6	2	per	con	low	mod	low	nt	cr	nh/0640_nh.bmp
444.96	0.72	609	5	6	69	per	con	mod	mod	mod	nt	cr	nh/0629_nh.bmp
445.68	0.72	610	3	8	47	per	lib	low	mod	low	tg	ms	wh/0143.bmp
446.40	0.72	611	5	8	54	per	con	mod	mod	mod	nt	cr	nh/0832_nh.bmp
447.12	0.72	612	4	7	85	per	lib	mod	mod	mod	tg	ht	wh/0666.bmp
447.84	0.72	613	6	8	36	per	lib	low	mod	low	tg	ht	wh/0262.bmp
448.56	0.72	614	5	7	38	mem	con	mod	mod	mod	tg	ms	wh/0546.bmp
449.28	0.72	615	3	6	45	per	lib	low	mod	low	nt	fa	nh/0018_nh.bmp
450.00	0.72	616	5	5	63	mem	con	mod	mod	low	tg	ms	wh/0403.bmp
450.72	0.72	617	5	7	96	per	lib	mod	mod	mod	tg	ht	wh/0638.bmp
451.44	0.72	618	2	8	114	mem	lib	mod	mod	low	tg	ht	wh/0394.bmp
452.16	0.72	619	4	5	70	mem	lib	mod	mod	low	tg	ht	wh/0820.bmp
452.88	0.72	620	4	5	60	mem	con	mod	mod	low	nt	ht	nh/0165_nh.bmp
453.60	0.72	621	4	6	60	mem	lib	mod	mod	mod	nt	ht	nh/0995_nh.bmp
454.32	0.72	622	4	6	4	per	con	low	mod	low	tg	ms	wh/0139.bmp
455.04	0.72	623	6	6	2	per	con	low	mod	low	nt	cr	nh/0640_nh.bmp
455.76	0.72	624	5	6	75	per	con	mod	mod	mod	tg	ht	wh/0549.bmp
456.48	0.72	625	2	8	64	per	con	mod	mod	mod	tg	ht	wh/0552.bmp
457.20	0.72	626	6	7	81	per	lib	mod	mod	mod	nt	fa	nh/0968_nh.bmp
457.92	0.72	627	3	8	51	per	con	mod	mod	mod	nt	cr	nh/0852_nh.bmp
458.64	0.72	628	4	5	73	mem	lib	mod	mod	low	nt	ht	nh/0574_nh.bmp
459.36	0.72	629	3	8	64	per	con	mod	mod	mod	tg	ht	wh/0552.bmp
460.08	0.72	630	3	8	41	per	lib	low	mod	low	nt	cr	nh/0164_nh.bmp
460.80	0.72	631	1	7	115	per	con	mod	low	mod	nt	cr	nh/0347_nh.bmp
461.52	0.72	632	6	6	69	per	con	mod	mod	mod	nt	cr	nh/0629_nh.bmp
462.24	0.72	633	4	6	22	per	lib	mod	mod	mod	nt	cr	nh/0952_nh.bmp
462.96	0.72	634	5	7	30	mem	lib	mod	mod	mod	nt	ht	nh/0086_nh.bmp
463.68	0.72	635	4	8	124	mem	lib	mod	mod	low	nt	ht	nh/0248_nh.bmp
464.40	0.72	636	6	5	75	mem	lib	mod	mod	low	tg	ht	wh/0073.bmp
465.12	0.72	637	5	8	61	per	con	mod	mod	mod	tg	ht	wh/0978.bmp
465.84	0.72	638	4	6	10	per	con	low	mod	low	tg	ht	wh/0780.bmp
466.56	0.72	639	5	7	76	per	con	low	mod	low	tg	ht	wh/0450.bmp
467.28	0.72	640	4	6	119	mem	con	mod	mod	mod	nt	ms	nh/0495_nh.bmp
468.00	0.72	641	5	6	37	per	lib	low	mod	low	nt	fa	nh/0678_nh.bmp
468.72	0.72	642	5	6	44	per	lib	low	mod	low	tg	ms	wh/0892.bmp
469.44	0.72	643	4	8	60	per	con	mod	mod	mod	tg	ht	wh/0544.bmp
470.16	0.72	644	4	8	41	per	lib	low	mod	low	nt	cr	nh/0164_nh.bmp
470.88	0.72	645	3	7	47	mem	con	mod	mod	mod	tg	ms	wh/0686.bmp
471.60	0.72	646	6	8	44	per	lib	low	mod	low	tg	ms	wh/0249.bmp
472.32	0.72	647	5	6	48	per	lib	low	mod	low	tg	ht	wh/0986.bmp
473.04	0.72	648	5	8	38	per	lib	low	mod	low	nt	fa	nh/0247_nh.bmp
473.76	0.72	649	5	7	70	per	con	low	mod	low	nt	cr	nh/0848_nh.bmp
474.48	0.72	650	5	6	72	per	con	mod	mod	mod	nt	cr	nh/0056_nh.bmp
475.20	0.72	651	5	6	122	mem	con	mod	mod	mod	nt	ht	nh/0764_nh.bmp
475.92	0.72	652	4	6	18	per	lib	mod	mod	mod	tg	ht	wh/0603.bmp
476.64	0.72	653	4	8	125	mem	lib	mod	mod	low	nt	ht	nh/0176_nh.bmp
477.36	0.72	654	5	8	125	mem	lib	mod	mod	low	nt	ht	nh/0176_nh.bmp
478.08	0.72	655	5	6	80	per	con	mod	mod	mod	nt	cr	nh/0366_nh.bmp
478.80	0.72	656	4	7	17	mem	lib	mod	mod	mod	tg	ms	wh/0399.bmp
479.52	0.72	657	6	7	91	per	lib	mod	mod	mod	tg	ht	wh/0821.bmp
480.24	0.72	658	6	8	10	mem	con	mod	mod	low	tg	ms	wh/0253.bmp
480.96	0.72	659	5	6	18	per	lib	mod	mod	mod	tg	ht	wh/0603.bmp
481.68	0.72	660	5	7	68	per	con	low	mod	low	nt	fa	nh/0042_nh.bmp
482.40	0.72	661	4	7	29	mem	lib	mod	mod	mod	nt	ht	nh/0564_nh.bmp
483.12	0.72	662	6	8	59	per	con	mod	mod	mod	nt	cr	nh/0300_nh.bmp
483.84	0.72	663	6	6	72	per	con	mod	mod	mod	nt	cr	nh/0056_nh.bmp
484.56	0.72	664	1	7	51	per	lib	low	low	low	tg	ht	wh/0516.bmp
485.28	0.72	665	4	8	47	per	lib	low	mod	low	tg	ms	wh/0143.bmp
486.00	0.72	666	1	6	97	mem	lib	low	low	mod	tg	ht	wh/0016.bmp
486.72	0.72	667	1	8	68	per	con	low	low	low	nt	cr	nh/0089_nh.bmp
487.44	0.72	668	5	7	35	mem	con	mod	mod	mod	nt	ms	nh/0060_nh.bmp
488.16	0.72	669	4	6	117	mem	con	mod	mod	mod	tg	ht	wh/0871.bmp
488.88	0.72	670	5	6	12	per	con	low	mod	low	nt	cr	nh/0111_nh.bmp
489.60	0.72	671	6	8	61	per	con	mod	mod	mod	tg	ht	wh/0978.bmp
490.32	0.72	672	1	7	63	per	lib	low	low	low	nt	cr	nh/0830_nh.bmp
491.04	0.72	673	4	6	68	per	con	mod	mod	mod	tg	ht	wh/0436.bmp
491.76	0.72	674	6	8	122	mem	lib	mod	mod	low	tg	ht	wh/0453.bmp
492.48	0.72	675	1	7	99	mem	lib	low	low	mod	nt	ht	nh/1002_nh.bmp
493.20	0.72	676	5	5	76	mem	lib	mod	mod	low	tg	ht	wh/0582.bmp
493.92	0.72	677	1	8	73	per	con	low	low	low	nt	cr	nh/0506_nh.bmp
494.64	0.72	678	5	6	126	mem	con	mod	mod	mod	nt	ht	nh/0851_nh.bmp
495.36	0.72	679	6	6	80	per	con	mod	mod	mod	nt	cr	nh/0366_nh.bmp
496.08	0.72	680	5	6	26	per	lib	mod	mod	mod	tg	ht	wh/0556.bmp
496.80	0.72	681	6	5	62	mem	con	mod	mod	low	nt	ht	nh/0193_nh.bmp
497.52	0.72	682	4	6	9	per	con	low	mod	low	tg	ms	wh/0012.bmp
498.24	0.72	683	6	6	59	mem	lib	mod	mod	mod	tg	ht	wh/0408.bmp
498.96	0.72	684	1	5	27	per	con	low	low	low	nt	cr	nh/0175_nh.bmp
499.68	0.72	685	4	8	64	per	con	mod	mod	mod	tg	ht	wh/0552.bmp
500.40	0.72	686	6	6	76	per	con	mod	mod	mod	nt	cr	nh/0179_nh.bmp
501.12	0.72	687	6	7	22	mem	lib	mod	mod	mod	nt	ht	nh/0318_nh.bmp
501.84	0.72	688	3	5	65	mem	lib	mod	mod	low	nt	ht	nh/0241_nh.bmp
502.56	0.72	689	6	6	21	per	lib	mod	mod	mod	nt	fa	nh/0378_nh.bmp
503.28	0.72	690	6	6	13	per	con	low	mod	low	tg	ht	wh/0254.bmp
504.00	0.72	691	5	6	68	per	con	mod	mod	mod	tg	ht	wh/0436.bmp
504.72	0.72	692	5	7	40	mem	con	mod	mod	mod	tg	ms	wh/0420.bmp
505.44	0.72	693	4	8	51	per	con	mod	mod	mod	nt	cr	nh/0852_nh.bmp
506.16	0.72	694	4	6	5	per	con	low	mod	low	nt	cr	nh/1014_nh.bmp
506.88	0.72	695	5	8	120	mem	lib	mod	mod	low	tg	ht	wh/0756.bmp
507.60	0.72	696	5	6	51	mem	lib	mod	mod	mod	tg	ht	wh/0797.bmp
508.32	0.72	697	5	8	118	mem	lib	mod	mod	low	tg	ht	wh/0401.bmp
509.04	0.72	698	5	7	17	mem	lib	mod	mod	mod	tg	ms	wh/0399.bmp
509.76	0.72	699	1	8	105	per	lib	mod	low	mod	nt	fa	nh/0373_nh.bmp
510.48	0.72	700	1	5	20	per	con	low	low	low	tg	ms	wh/0859.bmp
511.20	0.72	701	5	5	50	mem	con	mod	mod	low	nt	ht	nh/0374_nh.bmp
511.92	0.72	702	1	7	101	mem	lib	low	low	mod	tg	ht	wh/0372.bmp
512.64	0.72	703	1	5	32	per	con	low	low	low	tg	ht	wh/0360.bmp
513.36	0.72	704	4	6	45	per	lib	low	mod	low	nt	fa	nh/0018_nh.bmp
514.08	0.72	705	6	6	48	per	lib	low	mod	low	tg	ht	wh/0986.bmp
514.80	0.72	706	6	7	70	per	con	low	mod	low	nt	cr	nh/0848_nh.bmp
515.52	0.72	707	5	6	9	per	con	low	mod	low	tg	ms	wh/0012.bmp
516.24	0.72	708	6	8	115	mem	lib	mod	mod	low	nt	ht	nh/0114_nh.bmp
516.96	0.72	709	6	7	82	per	lib	mod	mod	mod	nt	cr	nh/0915_nh.bmp
517.68	0.72	710	4	6	36	per	lib	low	mod	low	tg	ht	wh/1019.bmp
518.40	0.72	711	5	8	41	per	lib	low	mod	low	nt	cr	nh/0164_nh.bmp
519.12	0.72	712	4	8	8	mem	con	mod	mod	low	tg	ms	wh/0157.bmp
519.84	0.72	713	4	5	65	mem	lib	mod	mod	low	nt	ht	nh/0241_nh.bmp
520.56	0.72	714	1	5	116	per	lib	low	low	low	tg	ms	wh/0240.bmp
521.28	0.72	715	3	7	86	per	lib	mod	mod	mod	nt	fa	nh/0827_nh.bmp
522.00	0.72	716	5	6	113	mem	con	mod	mod	mod	tg	ms	wh/0269.bmp
522.72	0.72	717	1	8	69	per	con	low	low	low	nt	cr	nh/0147_nh.bmp
523.44	0.72	718	6	7	30	mem	lib	mod	mod	mod	nt	ht	nh/0086_nh.bmp
524.16	0.72	719	5	7	92	per	lib	mod	mod	mod	nt	fa	nh/0590_nh.bmp
524.88	0.72	720	5	7	85	per	lib	mod	mod	mod	tg	ht	wh/0666.bmp
525.60	0.72	721	5	6	30	per	lib	mod	mod	mod	tg	ht	wh/0239.bmp
526.32	0.72	722	5	6	60	mem	lib	mod	mod	mod	nt	ht	nh/0995_nh.bmp
527.04	0.72	723	5	5	65	mem	lib	mod	mod	low	nt	ht	nh/0241_nh.bmp
527.76	0.72	724	6	7	38	mem	con	mod	mod	mod	tg	ms	wh/0546.bmp
528.48	0.72	725	6	8	41	per	lib	low	mod	low	nt	cr	nh/0164_nh.bmp
529.20	0.72	726	5	8	33	per	lib	low	mod	low	tg	ht	wh/0108.bmp
529.92	0.72	727	6	6	68	per	con	mod	mod	mod	tg	ht	wh/0436.bmp
530.64	0.72	728	4	7	26	mem	lib	mod	mod	mod	tg	ht	wh/0735.bmp
531.36	0.72	729	3	8	114	mem	lib	mod	mod	low	tg	ht	wh/0394.bmp
532.08	0.72	730	6	6	126	mem	con	mod	mod	mod	nt	ht	nh/0851_nh.bmp
532.80	0.72	731	5	6	4	per	con	low	mod	low	tg	ms	wh/0139.bmp
533.52	0.72	732	4	7	80	per	con	low	mod	low	tg	ms	wh/0172.bmp
534.24	0.72	733	6	7	68	per	con	low	mod	low	nt	fa	nh/0042_nh.bmp
534.96	0.72	734	6	6	67	per	con	mod	mod	mod	tg	ht	wh/0971.bmp
535.68	0.72	735	4	7	20	mem	lib	mod	mod	mod	tg	ht	wh/0385.bmp
536.40	0.72	736	5	8	47	per	lib	low	mod	low	tg	ms	wh/0143.bmp
537.12	0.72	737	6	6	30	per	lib	mod	mod	mod	tg	ht	wh/0239.bmp
537.84	0.72	738	1	5	46	mem	con	low	low	low	nt	ht	nh/0880_nh.bmp
538.56	0.72	739	1	5	111	per	con	mod	low	mod	nt	fa	nh/0234_nh.bmp
539.28	0.72	740	4	7	47	mem	con	mod	mod	mod	tg	ms	wh/0686.bmp
540.00	0.72	741	6	6	26	per	lib	mod	mod	mod	tg	ht	wh/0556.bmp
540.72	0.72	742	4	5	56	mem	con	mod	mod	low	tg	ms	wh/0793.bmp
541.44	0.72	743	6	8	125	mem	lib	mod	mod	low	nt	ht	nh/0176_nh.bmp
542.16	0.72	744	5	6	119	mem	con	mod	mod	mod	nt	ms	nh/0495_nh.bmp
542.88	0.72	745	5	7	47	mem	con	mod	mod	mod	tg	ms	wh/0686.bmp
543.60	0.72	746	5	7	20	mem	lib	mod	mod	mod	tg	ht	wh/0385.bmp
544.32	0.72	747	6	7	47	mem	con	mod	mod	mod	tg	ms	wh/0686.bmp
545.04	0.72	748	6	7	75	per	con	low	mod	low	nt	cr	nh/0939_nh.bmp
545.76	0.72	749	5	6	54	mem	lib	mod	mod	mod	nt	ms	nh/0623_nh.bmp
546.48	0.72	750	5	8	60	per	con	mod	mod	mod	tg	ht	wh/0544.bmp
547.20	0.72	751	4	8	114	mem	lib	mod	mod	low	tg	ht	wh/0394.bmp
547.92	0.72	752	5	8	124	mem	lib	mod	mod	low	nt	ht	nh/0248_nh.bmp
548.64	0.72	753	6	7	76	per	con	low	mod	low	tg	ht	wh/0450.bmp
549.36	0.72	754	6	8	47	per	lib	low	mod	low	tg	ms	wh/0143.bmp
550.08	0.72	755	5	6	45	per	lib	low	mod	low	nt	fa	nh/0018_nh.bmp
550.80	0.72	756	5	8	8	mem	con	mod	mod	low	tg	ms	wh/0157.bmp
551.52	0.72	757	6	6	114	mem	con	mod	mod	mod	tg	ht	wh/0602.bmp
552.24	0.72	758	4	6	33	per	lib	low	mod	low	nt	fa	nh/0618_nh.bmp
552.96	0.72	759	4	7	44	mem	con	mod	mod	mod	tg	ms	wh/0958.bmp
553.68	0.72	760	6	6	18	per	lib	mod	mod	mod	tg	ht	wh/0603.bmp
554.40	0.72	761	4	7	67	per	con	low	mod	low	tg	ms	wh/0388.bmp
555.12	0.72	762	1	8	22	mem	lib	low	low	low	nt	ht	nh/0468_nh.bmp
555.84	0.72	763	6	6	122	mem	con	mod	mod	mod	nt	ht	nh/0764_nh.bmp
556.56	0.72	764	6	7	39	mem	con	mod	mod	mod	nt	ms	nh/0888_nh.bmp
557.28	0.72	765	6	7	96	per	lib	mod	mod	mod	tg	ht	wh/0638.bmp
558.00	0.72	766	5	8	114	mem	lib	mod	mod	low	tg	ht	wh/0394.bmp
558.72	0.72	767	6	7	40	mem	con	mod	mod	mod	tg	ms	wh/0420.bmp
559.44	0.72	768	6	8	118	mem	lib	mod	mod	low	tg	ht	wh/0401.bmp
560.16	0.72	769	5	7	29	mem	lib	mod	mod	mod	nt	ht	nh/0564_nh.bmp
560.88	0.72	770	5	6	7	per	con	low	mod	low	nt	cr	nh/0064_nh.bmp
561.60	0.72	771	1	8	80	per	con	low	low	low	tg	ms	wh/0202.bmp
562.32	0.72	772	5	6	5	per	con	low	mod	low	nt	cr	nh/1014_nh.bmp
563.04	0.72	773	5	7	80	per	con	low	mod	low	tg	ms	wh/0172.bmp
563.76	0.72	774	1	8	27	mem	lib	low	low	low	nt	ht	nh/0136_nh.bmp
564.48	0.72	775	5	5	60	mem	con	mod	mod	low	nt	ht	nh/0165_nh.bmp
565.20	0.72	776	1	5	15	mem	lib	low	low	low	tg	ht	wh/0352.bmp
565.92	0.72	777	6	7	17	mem	lib	mod	mod	mod	tg	ms	wh/0399.bmp
566.64	0.72	778	6	7	20	mem	lib	mod	mod	mod	tg	ht	wh/0385.bmp
567.36	0.72	779	5	8	51	per	con	mod	mod	mod	nt	cr	nh/0852_nh.bmp
568.08	0.72	780	1	5	9	mem	lib	low	low	low	tg	ht	wh/0376.bmp
568.80	0.72	781	5	6	73	per	con	mod	mod	mod	tg	ht	wh/0822.bmp
569.52	0.72	782	5	5	73	mem	lib	mod	mod	low	nt	ht	nh/0574_nh.bmp
570.24	0.72	783	6	6	12	per	con	low	mod	low	nt	cr	nh/0111_nh.bmp
570.96	0.72	784	5	7	67	per	con	low	mod	low	tg	ms	wh/0388.bmp
571.68	0.72	785	1	5	98	per	con	mod	low	mod	nt	cr	nh/0537_nh.bmp
572.40	0.72	786	6	7	85	per	lib	mod	mod	mod	tg	ht	wh/0666.bmp
573.12	0.72	787	5	6	36	per	lib	low	mod	low	tg	ht	wh/1019.bmp
573.84	0.72	788	6	8	8	mem	con	mod	mod	low	tg	ms	wh/0157.bmp
574.56	0.72	789	6	6	5	per	con	low	mod	low	nt	cr	nh/1014_nh.bmp
575.28	0.72	790	5	6	22	per	lib	mod	mod	mod	nt	cr	nh/0952_nh.bmp
576.00	0.72	791	1	5	26	per	con	low	low	low	tg	ms	wh/0842.bmp
576.72	0.72	792	5	6	19	per	lib	mod	mod	mod	tg	ht	wh/0694.bmp
577.44	0.72	793	6	6	19	per	lib	mod	mod	mod	tg	ht	wh/0694.bmp
578.16	0.72	794	6	7	80	per	con	low	mod	low	tg	ms	wh/0172.bmp
578.88	0.72	795	6	7	29	mem	lib	mod	mod	mod	nt	ht	nh/0564_nh.bmp
579.60	0.72	796	1	5	8	mem	lib	low	low	low	nt	ht	nh/0566_nh.bmp
580.32	0.72	797	6	7	35	mem	con	mod	mod	mod	nt	ms	nh/0060_nh.bmp
581.04	0.72	798	5	6	33	per	lib	low	mod	low	nt	fa	nh/0618_nh.bmp
581.76	0.72	799	6	8	16	mem	con	mod	mod	low	nt	ms	nh/0024_nh.bmp
582.48	0.72	800	5	8	64	per	con	mod	mod	mod	tg	ht	wh/0552.bmp
583.20	0.72	801	1	5	123	per	lib	low	low	low	nt	fa	nh/0144_nh.bmp
583.92	0.72	802	5	7	37	mem	con	mod	mod	mod	nt	ms	nh/0441_nh.bmp
584.64	0.72	803	5	8	12	mem	con	mod	mod	low	tg	ht	wh/0883.bmp
585.36	0.72	804	5	6	117	mem	con	mod	mod	mod	tg	ht	wh/0871.bmp
586.08	0.72	805	5	6	34	per	lib	low	mod	low	tg	ht	wh/0170.bmp
586.80	0.72	806	6	5	60	mem	con	mod	mod	low	nt	ht	nh/0165_nh.bmp
587.52	0.72	807	6	5	65	mem	lib	mod	mod	low	nt	ht	nh/0241_nh.bmp
588.24	0.72	808	6	5	63	mem	con	mod	mod	low	tg	ms	wh/0403.bmp
588.96	0.72	809	5	7	95	per	lib	mod	mod	mod	tg	ht	wh/0275.bmp
589.68	0.72	810	6	6	54	mem	lib	mod	mod	mod	nt	ms	nh/0623_nh.bmp
590.40	0.72	811	1	6	82	mem	con	low	low	mod	nt	ht	nh/1008_nh.bmp
591.12	0.72	812	6	5	76	mem	lib	mod	mod	low	tg	ht	wh/0582.bmp
591.84	0.72	813	5	7	44	mem	con	mod	mod	mod	tg	ms	wh/0958.bmp
592.56	0.72	814	6	6	25	per	lib	mod	mod	mod	nt	cr	nh/0717_nh.bmp
593.28	0.72	815	1	8	106	per	lib	mod	low	mod	nt	fa	nh/0688_nh.bmp
594.00	0.72	816	1	5	125	per	lib	low	low	low	tg	ht	wh/0181.bmp
594.72	0.72	817	6	6	36	per	lib	low	mod	low	tg	ht	wh/1019.bmp
595.44	0.72	818	6	6	61	mem	lib	mod	mod	mod	nt	ht	nh/0337_nh.bmp
596.16	0.72	819	6	6	33	per	lib	low	mod	low	nt	fa	nh/0618_nh.bmp
596.88	0.72	820	6	7	31	mem	lib	mod	mod	mod	tg	ht	wh/0778.bmp
597.60	0.72	821	5	6	128	mem	con	mod	mod	mod	tg	ms	wh/0609.bmp
598.32	0.72	822	1	8	94	mem	con	low	low	low	tg	ms	wh/0728.bmp
599.04	0.72	823	6	8	124	mem	lib	mod	mod	low	nt	ht	nh/0248_nh.bmp
599.76	0.72	824	6	7	92	per	lib	mod	mod	mod	nt	fa	nh/0590_nh.bmp
600.48	0.72	825	6	8	54	per	con	mod	mod	mod	nt	cr	nh/0832_nh.bmp
601.20	0.72	826	6	8	51	per	con	mod	mod	mod	nt	cr	nh/0852_nh.bmp
601.92	0.72	827	6	8	117	mem	lib	mod	mod	low	nt	ht	nh/0814_nh.bmp
602.64	0.72	828	1	8	96	mem	con	low	low	low	nt	ms	nh/0657_nh.bmp
603.36	0.72	829	1	5	47	mem	con	low	low	low	tg	ht	wh/0063.bmp
604.08	0.72	830	6	6	4	per	con	low	mod	low	tg	ms	wh/0139.bmp
604.80	0.72	831	1	8	110	per	lib	mod	low	mod	tg	ht	wh/0622.bmp
605.52	0.72	832	6	5	73	mem	lib	mod	mod	low	nt	ht	nh/0574_nh.bmp
606.24	0.72	833	6	6	37	per	lib	low	mod	low	nt	fa	nh/0678_nh.bmp
606.96	0.72	834	6	5	79	mem	lib	mod	mod	low	nt	ht	nh/0875_nh.bmp
607.68	0.72	835	1	5	81	per	lib	mod	low	mod	nt	fa	nh/0308_nh.bmp
608.40	0.72	836	6	6	51	mem	lib	mod	mod	mod	tg	ht	wh/0797.bmp
609.12	0.72	837	6	6	113	mem	con	mod	mod	mod	tg	ms	wh/0269.bmp
609.84	0.72	838	5	7	26	mem	lib	mod	mod	mod	tg	ht	wh/0735.bmp
610.56	0.72	839	6	8	12	mem	con	mod	mod	low	tg	ht	wh/0883.bmp
611.28	0.72	840	5	5	70	mem	lib	mod	mod	low	tg	ht	wh/0820.bmp
612.00	0.72	841	6	8	114	mem	lib	mod	mod	low	tg	ht	wh/0394.bmp
612.72	0.72	842	6	8	120	mem	lib	mod	mod	low	tg	ht	wh/0756.bmp
613.44	0.72	843	6	6	73	per	con	mod	mod	mod	tg	ht	wh/0822.bmp
614.16	0.72	844	5	8	3	mem	con	mod	mod	low	tg	ms	wh/0297.bmp
614.88	0.72	845	5	8	4	mem	con	mod	mod	low	nt	ht	nh/0612_nh.bmp
615.60	0.72	846	1	7	121	per	con	mod	low	mod	tg	ht	wh/0349.bmp
616.32	0.72	847	6	5	49	mem	con	mod	mod	low	nt	ms	nh/0578_nh.bmp
617.04	0.72	848	1	6	98	mem	lib	low	low	mod	nt	ht	nh/0907_nh.bmp
617.76	0.72	849	1	7	59	per	lib	low	low	low	tg	ms	wh/0990.bmp
618.48	0.72	850	1	8	19	mem	lib	low	low	low	tg	ht	wh/0258.bmp
619.20	0.72	851	6	6	60	mem	lib	mod	mod	mod	nt	ht	nh/0995_nh.bmp
619.92	0.72	852	6	5	50	mem	con	mod	mod	low	nt	ht	nh/0374_nh.bmp
620.64	0.72	853	4	7	86	per	lib	mod	mod	mod	nt	fa	nh/0827_nh.bmp
621.36	0.72	854	6	6	119	mem	con	mod	mod	mod	nt	ms	nh/0495_nh.bmp
622.08	0.72	855	5	7	73	per	con	low	mod	low	nt	cr	nh/0255_nh.bmp
622.80	0.72	856	6	6	49	mem	lib	mod	mod	mod	nt	ht	nh/0560_nh.bmp
623.52	0.72	857	1	6	100	mem	lib	low	low	mod	tg	ht	wh/0948.bmp
624.24	0.72	858	5	5	56	mem	con	mod	mod	low	tg	ms	wh/0793.bmp
624.96	0.72	859	6	7	37	mem	con	mod	mod	mod	nt	ms	nh/0441_nh.bmp
625.68	0.72	860	6	8	37	per	lib	low	mod	low	nt	fa	nh/0734_nh.bmp
626.40	0.72	861	1	7	122	per	con	mod	low	mod	tg	ht	wh/0186.bmp
627.12	0.72	862	6	6	9	per	con	low	mod	low	tg	ms	wh/0012.bmp
627.84	0.72	863	6	6	44	per	lib	low	mod	low	tg	ms	wh/0892.bmp
628.56	0.72	864	6	7	67	per	con	low	mod	low	tg	ms	wh/0388.bmp
629.28	0.72	865	6	7	19	mem	lib	mod	mod	mod	nt	ht	nh/0835_nh.bmp
630.00	0.72	866	6	8	64	per	con	mod	mod	mod	tg	ht	wh/0552.bmp
630.72	0.72	867	6	6	34	per	lib	low	mod	low	tg	ht	wh/0170.bmp
631.44	0.72	868	6	8	4	mem	con	mod	mod	low	nt	ht	nh/0612_nh.bmp
632.16	0.72	869	6	5	52	mem	con	mod	mod	low	tg	ht	wh/0746.bmp
632.88	0.72	870	6	6	75	per	con	mod	mod	mod	tg	ht	wh/0549.bmp
633.60	0.72	871	1	5	97	per	con	mod	low	mod	tg	ms	wh/0037.bmp
634.32	0.72	872	6	7	44	mem	con	mod	mod	mod	tg	ms	wh/0958.bmp
635.04	0.72	873	6	7	95	per	lib	mod	mod	mod	tg	ht	wh/0275.bmp
635.76	0.72	874	1	7	54	per	lib	low	low	low	tg	ht	wh/0610.bmp
636.48	0.72	875	5	6	10	per	con	low	mod	low	tg	ht	wh/0780.bmp
637.20	0.72	876	1	7	58	per	lib	low	low	low	nt	fa	nh/0022_nh.bmp
637.92	0.72	877	6	6	45	per	lib	low	mod	low	nt	fa	nh/0018_nh.bmp
638.64	0.72	878	6	8	60	per	con	mod	mod	mod	tg	ht	wh/0544.bmp
639.36	0.72	879	5	7	86	per	lib	mod	mod	mod	nt	fa	nh/0827_nh.bmp
640.08	0.72	880	6	8	38	per	lib	low	mod	low	nt	fa	nh/0247_nh.bmp
640.80	0.72	881	6	6	57	mem	lib	mod	mod	mod	tg	ht	wh/0833.bmp
641.52	0.72	882	6	5	70	mem	lib	mod	mod	low	tg	ht	wh/0820.bmp
642.24	0.72	883	6	6	117	mem	con	mod	mod	mod	tg	ht	wh/0871.bmp
642.96	0.72	884	6	5	56	mem	con	mod	mod	low	tg	ms	wh/0793.bmp
643.68	0.72	885	6	8	3	mem	con	mod	mod	low	tg	ms	wh/0297.bmp
644.40	0.72	886	1	7	11	mem	con	low	low	mod	nt	ms	nh/0673_nh.bmp
645.12	0.72	887	6	6	128	mem	con	mod	mod	mod	tg	ms	wh/0609.bmp
645.84	0.72	888	6	6	127	mem	con	mod	mod	mod	nt	ms	nh/0715_nh.bmp
646.56	0.72	889	6	6	7	per	con	low	mod	low	nt	cr	nh/0064_nh.bmp
647.28	0.72	890	6	6	10	per	con	low	mod	low	tg	ht	wh/0780.bmp
648.00	0.72	891	6	7	86	per	lib	mod	mod	mod	nt	fa	nh/0827_nh.bmp
648.72	0.72	892	6	7	26	mem	lib	mod	mod	mod	tg	ht	wh/0735.bmp
649.44	0.72	893	6	8	33	per	lib	low	mod	low	tg	ht	wh/0108.bmp
650.16	0.72	894	6	7	73	per	con	low	mod	low	nt	cr	nh/0255_nh.bmp
650.88	0.72	895	1	7	124	per	con	mod	low	mod	tg	ms	wh/0611.bmp
651.60	0.72	896	6	6	22	per	lib	mod	mod	mod	nt	cr	nh/0952_nh.bmp
