onset	duration	trial	pres	ts_blk	ts_trl	task	crit	disc	mem_disc	per_disc	per_type	accuracy	stim_file
7.20	0.72	1	1	3	10	mem	lib	mod	mod	low	tg	ht	wh/1021.bmp
7.92	0.72	2	1	4	35	per	con	mod	mod	mod	tg	ht	wh/0596.bmp
8.64	0.72	3	1	1	76	per	con	mod	mod	mod	tg	ht	wh/0287.bmp
9.36	0.72	4	1	3	62	mem	con	mod	mod	low	nt	ht	nh/0105_nh.bmp
10.08	0.72	5	1	3	83	per	lib	mod	low	mod	tg	ht	wh/0087.bmp
10.80	0.72	6	1	4	39	per	con	mod	mod	mod	nt	cr	nh/0724_nh.bmp
11.52	0.72	7	1	3	52	mem	con	mod	mod	low	tg	ms	wh/0897.bmp
12.24	0.72	8	1	1	35	per	lib	low	mod	low	tg	ms	wh/0066.bmp
12.96	0.72	9	1	1	52	mem	con	low	low	mod	nt	n/a	nh/0844_nh.bmp
13.68	0.72	10	1	3	3	mem	lib	mod	mod	low	nt	ht	nh/0455_nh.bmp
14.40	0.72	11	1	2	94	per	lib	mod	mod	mod	nt	cr	nh/0896_nh.bmp
15.12	0.72	12	1	3	51	mem	con	mod	mod	low	tg	ht	wh/0298.bmp
15.84	0.72	13	1	1	126	per	con	low	mod	low	tg	ms	wh/0733.bmp
16.56	0.72	14	1	1	3	mem	con	mod	mod	low	nt	ht	nh/0836_nh.bmp
17.28	0.72	15	1	2	14	mem	con	mod	mod	mod	nt	ht	nh/0098_nh.bmp
18.00	0.72	16	1	4	30	mem	con	mod	mod	mod	tg	ms	wh/0942.bmp
18.72	0.72	17	1	4	127	mem	lib	mod	mod	mod	tg	ht	wh/0017.bmp
19.44	0.72	18	1	2	43	per	con	low	low	low	tg	ms	wh/0142.bmp
20.16	0.72	19	1	4	117	mem	lib	mod	mod	mod	nt	ms	nh/0274_nh.bmp
20.88	0.72	20	1	3	49	mem	con	mod	mod	low	tg	ht	wh/0704.bmp
21.60	0.72	21	2	4	30	mem	con	mod	mod	mod	tg	ms	wh/0942.bmp
22.32	0.72	22	1	1	5	mem	con	mod	mod	low	nt	ht	nh/0251_nh.bmp
23.04	0.72	23	1	4	124	mem	lib	mod	mod	mod	nt	ht	nh/0405_nh.bmp
23.76	0.72	24	1	3	34	per	con	mod	low	mod	tg	ms	wh/0527.bmp
24.48	0.72	25	1	4	81	per	lib	mod	mod	mod	nt	fa	nh/0204_nh.bmp
25.20	0.72	26	1	1	40	per	lib	low	mod	low	tg	ht	wh/0128.bmp
25.92	0.72	27	1	4	31	mem	con	mod	mod	mod	tg	ms	wh/0884.bmp
26.64	0.72	28	1	1	2	mem	con	mod	mod	low	tg	n/a	wh/0769.bmp
27.36	0.72	29	1	2	50	mem	lib	mod	mod	mod	nt	ht	nh/0681_nh.bmp
28.08	0.72	30	1	4	36	per	con	mod	mod	mod	nt	cr	nh/0920_nh.bmp
28.80	0.72	31	2	1	76	per	con	mod	mod	mod	tg	ht	wh/0287.bmp
29.52	0.72	32	1	1	33	per	lib	low	mod	low	nt	fa	nh/0597_nh.bmp
30.24	0.72	33	1	1	124	per	con	low	mod	low	nt	fa	nh/0739_nh.bmp
30.96	0.72	34	1	4	118	mem	lib	mod	mod	mod	tg	ht	wh/0975.bmp
31.68	0.72	35	1	2	70	mem	con	low	low	low	nt	ms	nh/0788_nh.bmp
32.40	0.72	36	1	4	61	per	con	low	mod	low	tg	ht	wh/0926.bmp
33.12	0.72	37	1	1	122	per	con	low	mod	low	tg	ms	wh/0868.bmp
33.84	0.72	38	1	2	92	per	lib	mod	mod	mod	nt	fa	nh/0984_nh.bmp
34.56	0.72	39	2	1	122	per	con	low	mod	low	tg	ms	wh/0868.bmp
35.28	0.72	40	1	3	7	mem	lib	mod	mod	low	nt	ht	nh/0168_nh.bmp
36.00	0.72	41	1	3	12	mem	lib	mod	mod	low	nt	ht	nh/0205_nh.bmp
36.72	0.72	42	1	1	77	per	con	mod	mod	mod	tg	ht	wh/0847.bmp
37.44	0.72	43	1	1	70	per	con	mod	mod	mod	tg	ms	wh/0580.bmp
38.16	0.72	44	1	4	83	per	lib	mod	mod	mod	tg	ht	wh/0965.bmp
38.88	0.72	45	1	2	95	per	lib	mod	mod	mod	nt	fa	nh/0642_nh.bmp
39.60	0.72	46	1	1	12	mem	con	mod	mod	low	tg	ht	wh/0573.bmp
40.32	0.72	47	1	1	31	mem	lib	mod	mod	low	nt	ht	nh/0145_nh.bmp
41.04	0.72	48	1	4	84	per	lib	mod	mod	mod	nt	cr	nh/0841_nh.bmp
41.76	0.72	49	1	4	78	per	lib	low	mod	low	tg	ht	wh/0515.bmp
42.48	0.72	50	1	1	114	per	con	low	mod	low	tg	ms	wh/0341.bmp
43.20	0.72	51	1	1	43	per	lib	low	mod	low	nt	fa	nh/0019_nh.bmp
43.92	0.72	52	2	1	35	per	lib	low	mod	low	tg	ms	wh/0066.bmp
44.64	0.72	53	1	4	69	per	lib	low	mod	low	tg	ht	wh/0155.bmp
45.36	0.72	54	1	1	4	mem	con	mod	mod	low	tg	ht	wh/0472.bmp
46.08	0.72	55	1	2	127	per	con	mod	low	mod	nt	cr	nh/0912_nh.bmp
46.80	0.72	56	2	4	31	mem	con	mod	mod	mod	tg	ms	wh/0884.bmp
47.52	0.72	57	1	3	35	per	con	mod	low	mod	tg	ht	wh/0272.bmp
48.24	0.72	58	1	2	15	mem	con	mod	mod	mod	nt	ms	nh/0429_nh.bmp
48.96	0.72	59	1	4	44	per	con	mod	mod	mod	nt	fa	nh/0002_nh.bmp
49.68	0.72	60	1	1	22	mem	lib	mod	mod	low	tg	ht	wh/0766.bmp
50.40	0.72	61	1	3	53	mem	con	mod	mod	low	nt	ht	nh/0265_nh.bmp
51.12	0.72	62	2	4	118	mem	lib	mod	mod	mod	tg	ht	wh/0975.bmp
51.84	0.72	63	1	2	93	per	lib	mod	mod	mod	tg	ms	wh/0425.bmp
52.56	0.72	64	1	1	20	mem	lib	mod	mod	low	nt	ht	nh/0325_nh.bmp
53.28	0.72	65	1	2	63	mem	lib	mod	mod	mod	nt	ht	nh/0466_nh.bmp
54.00	0.72	66	1	3	76	per	con	low	low	low	nt	fa	nh/0979_nh.bmp
54.72	0.72	67	1	4	114	mem	lib	mod	mod	mod	nt	ht	nh/0189_nh.bmp
55.44	0.72	68	1	1	119	per	con	low	mod	low	tg	ms	wh/0421.bmp
56.16	0.72	69	1	4	45	per	con	mod	mod	mod	tg	ht	wh/0600.bmp
56.88	0.72	70	2	1	22	mem	lib	mod	mod	low	tg	ht	wh/0766.bmp
57.60	0.72	71	1	4	60	per	con	low	mod	low	nt	cr	nh/0741_nh.bmp
58.32	0.72	72	1	4	113	mem	lib	mod	mod	mod	tg	ht	wh/0959.bmp
59.04	0.72	73	1	1	128	per	con	low	mod	low	nt	cr	nh/0675_nh.bmp
59.76	0.72	74	1	4	77	per	lib	low	mod	low	tg	ms	wh/0435.bmp
60.48	0.72	75	1	1	25	mem	lib	mod	mod	low	nt	ht	nh/0231_nh.bmp
61.20	0.72	76	2	1	25	mem	lib	mod	mod	low	nt	ht	nh/0231_nh.bmp
61.92	0.72	77	2	1	124	per	con	low	mod	low	nt	fa	nh/0739_nh.bmp
62.64	0.72	78	2	4	78	per	lib	low	mod	low	tg	ht	wh/0515.bmp
63.36	0.72	79	1	4	66	per	lib	low	mod	low	nt	cr	nh/0031_nh.bmp
64.08	0.72	80	1	1	67	per	con	mod	mod	mod	nt	fa	nh/0070_nh.bmp
64.80	0.72	81	1	2	37	per	con	low	low	low	nt	cr	nh/0709_nh.bmp
65.52	0.72	82	1	3	79	per	con	low	low	low	tg	ms	wh/0119.bmp
66.24	0.72	83	1	3	1	mem	lib	mod	mod	low	nt	ht	nh/0755_nh.bmp
66.96	0.72	84	1	4	75	per	lib	low	mod	low	nt	fa	nh/0163_nh.bmp
67.68	0.72	85	1	2	89	per	lib	mod	mod	mod	tg	ht	wh/0955.bmp
68.40	0.72	86	1	1	41	per	lib	low	mod	low	nt	cr	nh/0997_nh.bmp
69.12	0.72	87	1	2	106	mem	lib	low	low	low	nt	ht	nh/0634_nh.bmp
69.84	0.72	88	1	3	6	mem	lib	mod	mod	low	tg	ht	wh/0727.bmp
70.56	0.72	89	2	4	127	mem	lib	mod	mod	mod	tg	ht	wh/0017.bmp
71.28	0.72	90	1	3	90	per	lib	mod	low	mod	nt	cr	nh/0752_nh.bmp
72.00	0.72	91	1	1	125	per	con	low	mod	low	nt	cr	nh/0177_nh.bmp
72.72	0.72	92	1	4	103	mem	lib	low	low	low	nt	ht	nh/0656_nh.bmp
73.44	0.72	93	2	4	84	per	lib	mod	mod	mod	nt	cr	nh/0841_nh.bmp
74.16	0.72	94	1	4	24	mem	con	mod	mod	mod	tg	ms	wh/0679.bmp
74.88	0.72	95	2	3	53	mem	con	mod	mod	low	nt	ht	nh/0265_nh.bmp
75.60	0.72	96	2	4	113	mem	lib	mod	mod	mod	tg	ht	wh/0959.bmp
76.32	0.72	97	1	4	38	per	con	mod	mod	mod	nt	cr	nh/0526_nh.bmp
77.04	0.72	98	2	1	119	per	con	low	mod	low	tg	ms	wh/0421.bmp
77.76	0.72	99	1	2	84	per	lib	mod	mod	mod	tg	ht	wh/0700.bmp
78.48	0.72	100	1	1	26	mem	lib	mod	mod	low	tg	ht	wh/0156.bmp
79.20	0.72	101	1	1	45	per	lib	low	mod	low	tg	ht	wh/0816.bmp
79.92	0.72	102	2	4	24	mem	con	mod	mod	mod	tg	ms	wh/0679.bmp
80.64	0.72	103	1	3	120	per	lib	low	low	low	nt	n/a	nh/0481_nh.bmp
81.36	0.72	104	1	2	87	per	lib	mod	mod	mod	tg	ht	wh/0001.bmp
82.08	0.72	105	1	3	88	per	lib	mod	low	mod	nt	fa	nh/0553_nh.bmp
82.80	0.72	106	1	3	105	mem	con	low	low	low	nt	ht	nh/0786_nh.bmp
83.52	0.72	107	2	4	124	mem	lib	mod	mod	mod	nt	ht	nh/0405_nh.bmp
84.24	0.72	108	2	3	6	mem	lib	mod	mod	low	tg	ht	wh/0727.bmp
84.96	0.72	109	1	3	66	per	con	low	low	low	nt	fa	nh/0008_nh.bmp
85.68	0.72	110	3	4	118	mem	lib	mod	mod	mod	tg	ht	wh/0975.bmp
86.40	0.72	111	1	3	26	mem	lib	low	low	mod	nt	ht	nh/0149_nh.bmp
87.12	0.72	112	2	3	1	mem	lib	mod	mod	low	nt	ht	nh/0755_nh.bmp
87.84	0.72	113	2	4	66	per	lib	low	mod	low	nt	cr	nh/0031_nh.bmp
88.56	0.72	114	2	1	77	per	con	mod	mod	mod	tg	ht	wh/0847.bmp
89.28	0.72	115	2	2	15	mem	con	mod	mod	mod	nt	ms	nh/0429_nh.bmp
90.00	0.72	116	2	1	126	per	con	low	mod	low	tg	ms	wh/0733.bmp
90.72	0.72	117	1	1	79	per	con	mod	mod	mod	nt	fa	nh/0938_nh.bmp
91.44	0.72	118	1	2	38	per	con	low	low	low	tg	ht	wh/0771.bmp
92.16	0.72	119	1	3	50	mem	con	mod	mod	low	nt	ms	nh/0648_nh.bmp
92.88	0.72	120	1	2	2	mem	con	mod	mod	mod	tg	ms	wh/0899.bmp
93.60	0.72	121	1	4	18	mem	con	mod	mod	mod	nt	ht	nh/0473_nh.bmp
94.32	0.72	122	2	4	69	per	lib	low	mod	low	tg	ht	wh/0155.bmp
95.04	0.72	123	2	1	40	per	lib	low	mod	low	tg	ht	wh/0128.bmp
95.76	0.72	124	2	2	95	per	lib	mod	mod	mod	nt	fa	nh/0642_nh.bmp
96.48	0.72	125	1	4	27	mem	con	mod	mod	mod	tg	ht	wh/0637.bmp
97.20	0.72	126	2	1	45	per	lib	low	mod	low	tg	ht	wh/0816.bmp
97.92	0.72	127	1	1	13	mem	con	mod	mod	low	nt	ms	nh/0233_nh.bmp
98.64	0.72	128	2	1	2	mem	con	mod	mod	low	tg	n/a	wh/0769.bmp
99.36	0.72	129	1	4	101	mem	lib	low	low	low	tg	ht	wh/0126.bmp
100.08	0.72	130	1	2	11	mem	con	mod	mod	mod	tg	ht	wh/0289.bmp
100.80	0.72	131	2	2	94	per	lib	mod	mod	mod	nt	cr	nh/0896_nh.bmp
101.52	0.72	132	3	1	77	per	con	mod	mod	mod	tg	ht	wh/0847.bmp
102.24	0.72	133	1	4	120	mem	lib	mod	mod	mod	nt	ht	nh/0775_nh.bmp
102.96	0.72	134	2	4	27	mem	con	mod	mod	mod	tg	ht	wh/0637.bmp
103.68	0.72	135	1	2	53	mem	lib	mod	mod	mod	tg	ht	wh/0391.bmp
104.40	0.72	136	1	4	92	per	lib	mod	mod	mod	tg	ht	wh/0698.bmp
105.12	0.72	137	2	3	10	mem	lib	mod	mod	low	tg	ht	wh/1021.bmp
105.84	0.72	138	1	1	121	per	con	low	mod	low	nt	fa	nh/0217_nh.bmp
106.56	0.72	139	3	2	95	per	lib	mod	mod	mod	nt	fa	nh/0642_nh.bmp
107.28	0.72	140	3	1	126	per	con	low	mod	low	tg	ms	wh/0733.bmp
108.00	0.72	141	2	1	20	mem	lib	mod	mod	low	nt	ht	nh/0325_nh.bmp
108.72	0.72	142	1	4	23	mem	con	mod	mod	mod	nt	ht	nh/0750_nh.bmp
109.44	0.72	143	1	4	90	per	lib	mod	mod	mod	nt	fa	nh/0585_nh.bmp
110.16	0.72	144	2	1	70	per	con	mod	mod	mod	tg	ms	wh/0580.bmp
110.88	0.72	145	3	4	27	mem	con	mod	mod	mod	tg	ht	wh/0637.bmp
111.60	0.72	146	2	4	61	per	con	low	mod	low	tg	ht	wh/0926.bmp
112.32	0.72	147	3	4	84	per	lib	mod	mod	mod	nt	cr	nh/0841_nh.bmp
113.04	0.72	148	3	1	70	per	con	mod	mod	mod	tg	ms	wh/0580.bmp
113.76	0.72	149	2	1	79	per	con	mod	mod	mod	nt	fa	nh/0938_nh.bmp
114.48	0.72	150	3	1	79	per	con	mod	mod	mod	nt	fa	nh/0938_nh.bmp
115.20	0.72	151	3	4	66	per	lib	low	mod	low	nt	cr	nh/0031_nh.bmp
115.92	0.72	152	1	4	53	per	con	low	mod	low	tg	ms	wh/0014.bmp
116.64	0.72	153	2	1	43	per	lib	low	mod	low	nt	fa	nh/0019_nh.bmp
117.36	0.72	154	2	3	49	mem	con	mod	mod	low	tg	ht	wh/0704.bmp
118.08	0.72	155	1	1	69	per	con	mod	mod	mod	nt	cr	nh/0919_nh.bmp
118.80	0.72	156	2	2	84	per	lib	mod	mod	mod	tg	ht	wh/0700.bmp
119.52	0.72	157	1	2	99	mem	lib	low	low	low	tg	ht	wh/0065.bmp
120.24	0.72	158	1	2	31	per	lib	low	low	low	nt	fa	nh/0140_nh.bmp
120.96	0.72	159	2	1	3	mem	con	mod	mod	low	nt	ht	nh/0836_nh.bmp
121.68	0.72	160	1	2	54	mem	lib	mod	mod	mod	nt	ht	nh/0981_nh.bmp
122.40	0.72	161	1	2	109	mem	lib	low	low	low	nt	ht	nh/0800_nh.bmp
123.12	0.72	162	1	4	79	per	lib	low	mod	low	tg	ht	wh/0133.bmp
123.84	0.72	163	1	1	112	per	lib	mod	low	mod	nt	cr	nh/0740_nh.bmp
124.56	0.72	164	1	3	5	mem	lib	mod	mod	low	tg	ht	wh/0200.bmp
125.28	0.72	165	1	3	43	per	con	mod	low	mod	nt	cr	nh/0322_nh.bmp
126.00	0.72	166	2	2	93	per	lib	mod	mod	mod	tg	ms	wh/0425.bmp
126.72	0.72	167	1	4	56	per	con	low	mod	low	nt	cr	nh/0027_nh.bmp
127.44	0.72	168	1	4	67	per	lib	low	mod	low	nt	cr	nh/0392_nh.bmp
128.16	0.72	169	1	4	49	per	con	low	mod	low	tg	ht	wh/0649.bmp
128.88	0.72	170	2	4	79	per	lib	low	mod	low	tg	ht	wh/0133.bmp
129.60	0.72	171	2	4	56	per	con	low	mod	low	nt	cr	nh/0027_nh.bmp
130.32	0.72	172	1	1	89	mem	lib	low	low	mod	nt	ms	nh/0873_nh.bmp
131.04	0.72	173	2	2	63	mem	lib	mod	mod	mod	nt	ht	nh/0466_nh.bmp
131.76	0.72	174	3	1	122	per	con	low	mod	low	tg	ms	wh/0868.bmp
132.48	0.72	175	4	4	118	mem	lib	mod	mod	mod	tg	ht	wh/0975.bmp
133.20	0.72	176	1	1	15	mem	con	mod	mod	low	nt	ht	nh/0624_nh.bmp
133.92	0.72	177	4	4	66	per	lib	low	mod	low	nt	cr	nh/0031_nh.bmp
134.64	0.72	178	1	2	114	per	con	mod	low	mod	tg	ms	wh/0905.bmp
135.36	0.72	179	1	4	37	per	con	mod	mod	mod	tg	ht	wh/0879.bmp
136.08	0.72	180	1	3	45	per	con	mod	low	mod	nt	cr	nh/0476_nh.bmp
136.80	0.72	181	1	2	76	mem	con	low	low	low	nt	ht	nh/0662_nh.bmp
137.52	0.72	182	3	2	15	mem	con	mod	mod	mod	nt	ms	nh/0429_nh.bmp
138.24	0.72	183	1	4	74	per	lib	low	mod	low	nt	fa	nh/0353_nh.bmp
138.96	0.72	184	1	1	27	mem	lib	mod	mod	low	tg	ht	wh/0745.bmp
139.68	0.72	185	2	4	114	mem	lib	mod	mod	mod	nt	ht	nh/0189_nh.bmp
140.40	0.72	186	1	2	7	mem	con	mod	mod	mod	tg	ht	wh/0621.bmp
141.12	0.72	187	3	3	6	mem	lib	mod	mod	low	tg	ht	wh/0727.bmp
141.84	0.72	188	2	1	26	mem	lib	mod	mod	low	tg	ht	wh/0156.bmp
142.56	0.72	189	2	4	117	mem	lib	mod	mod	mod	nt	ms	nh/0274_nh.bmp
143.28	0.72	190	1	2	16	mem	con	mod	mod	mod	tg	ht	wh/0658.bmp
144.00	0.72	191	3	4	56	per	con	low	mod	low	nt	cr	nh/0027_nh.bmp
144.72	0.72	192	2	4	60	per	con	low	mod	low	nt	cr	nh/0741_nh.bmp
145.44	0.72	193	1	2	57	mem	lib	mod	mod	mod	tg	ms	wh/0801.bmp
146.16	0.72	194	1	4	41	per	con	mod	mod	mod	tg	ms	wh/0162.bmp
146.88	0.72	195	2	4	49	per	con	low	mod	low	tg	ht	wh/0649.bmp
147.60	0.72	196	3	1	43	per	lib	low	mod	low	nt	fa	nh/0019_nh.bmp
148.32	0.72	197	1	1	29	mem	lib	mod	mod	low	tg	ht	wh/0387.bmp
149.04	0.72	198	2	4	44	per	con	mod	mod	mod	nt	fa	nh/0002_nh.bmp
149.76	0.72	199	2	4	18	mem	con	mod	mod	mod	nt	ht	nh/0473_nh.bmp
150.48	0.72	200	2	2	2	mem	con	mod	mod	mod	tg	ms	wh/0899.bmp
151.20	0.72	201	1	3	11	mem	lib	mod	mod	low	tg	ht	wh/0116.bmp
151.92	0.72	202	2	1	125	per	con	low	mod	low	nt	cr	nh/0177_nh.bmp
152.64	0.72	203	3	1	40	per	lib	low	mod	low	tg	ht	wh/0128.bmp
153.36	0.72	204	2	1	69	per	con	mod	mod	mod	nt	cr	nh/0919_nh.bmp
154.08	0.72	205	1	2	98	mem	lib	low	low	low	tg	ht	wh/0407.bmp
154.80	0.72	206	2	4	23	mem	con	mod	mod	mod	nt	ht	nh/0750_nh.bmp
155.52	0.72	207	4	2	15	mem	con	mod	mod	mod	nt	ms	nh/0429_nh.bmp
156.24	0.72	208	1	4	25	mem	con	mod	mod	mod	nt	ms	nh/0100_nh.bmp
156.96	0.72	209	1	1	42	per	lib	low	mod	low	nt	cr	nh/0377_nh.bmp
157.68	0.72	210	1	1	98	per	lib	mod	low	mod	nt	cr	nh/0712_nh.bmp
158.40	0.72	211	2	4	120	mem	lib	mod	mod	mod	nt	ht	nh/0775_nh.bmp
159.12	0.72	212	3	1	124	per	con	low	mod	low	nt	fa	nh/0739_nh.bmp
159.84	0.72	213	2	2	87	per	lib	mod	mod	mod	tg	ht	wh/0001.bmp
160.56	0.72	214	2	1	42	per	lib	low	mod	low	nt	cr	nh/0377_nh.bmp
161.28	0.72	215	1	3	55	mem	con	mod	mod	low	nt	ms	nh/0932_nh.bmp
162.00	0.72	216	2	4	35	per	con	mod	mod	mod	tg	ht	wh/0596.bmp
162.72	0.72	217	2	4	75	per	lib	low	mod	low	nt	fa	nh/0163_nh.bmp
163.44	0.72	218	2	2	16	mem	con	mod	mod	mod	tg	ht	wh/0658.bmp
164.16	0.72	219	3	1	45	per	lib	low	mod	low	tg	ht	wh/0816.bmp
164.88	0.72	220	3	1	2	mem	con	mod	mod	low	tg	n/a	wh/0769.bmp
165.60	0.72	221	1	2	9	mem	con	mod	mod	mod	nt	ht	nh/0627_nh.bmp
166.32	0.72	222	1	2	28	per	lib	low	low	low	tg	ht	wh/0456.bmp
167.04	0.72	223	1	4	126	mem	lib	mod	mod	mod	tg	ht	wh/0393.bmp
167.76	0.72	224	3	4	79	per	lib	low	mod	low	tg	ht	wh/0133.bmp
168.48	0.72	225	2	3	55	mem	con	mod	mod	low	nt	ms	nh/0932_nh.bmp
169.20	0.72	226	2	4	67	per	lib	low	mod	low	nt	cr	nh/0392_nh.bmp
169.92	0.72	227	3	1	69	per	con	mod	mod	mod	nt	cr	nh/0919_nh.bmp
170.64	0.72	228	2	1	27	mem	lib	mod	mod	low	tg	ht	wh/0745.bmp
171.36	0.72	229	1	4	57	per	con	low	mod	low	nt	cr	nh/0115_nh.bmp
172.08	0.72	230	3	3	10	mem	lib	mod	mod	low	tg	ht	wh/1021.bmp
172.80	0.72	231	1	4	64	per	con	low	mod	low	nt	cr	nh/0040_nh.bmp
173.52	0.72	232	4	2	95	per	lib	mod	mod	mod	nt	fa	nh/0642_nh.bmp
174.24	0.72	233	1	4	91	per	lib	mod	mod	mod	nt	fa	nh/0561_nh.bmp
174.96	0.72	234	2	1	29	mem	lib	mod	mod	low	tg	ht	wh/0387.bmp
175.68	0.72	235	2	4	57	per	con	low	mod	low	nt	cr	nh/0115_nh.bmp
176.40	0.72	236	3	3	55	mem	con	mod	mod	low	nt	ms	nh/0932_nh.bmp
177.12	0.72	237	1	2	49	mem	lib	mod	mod	mod	nt	ht	nh/0534_nh.bmp
177.84	0.72	238	2	3	12	mem	lib	mod	mod	low	nt	ht	nh/0205_nh.bmp
178.56	0.72	239	3	4	61	per	con	low	mod	low	tg	ht	wh/0926.bmp
179.28	0.72	240	3	1	125	per	con	low	mod	low	nt	cr	nh/0177_nh.bmp
180.00	0.72	241	4	1	70	per	con	mod	mod	mod	tg	ms	wh/0580.bmp
180.72	0.72	242	1	2	102	mem	lib	low	low	low	tg	ms	wh/0307.bmp
181.44	0.72	243	2	4	83	per	lib	mod	mod	mod	tg	ht	wh/0965.bmp
182.16	0.72	244	2	4	41	per	con	mod	mod	mod	tg	ms	wh/0162.bmp
182.88	0.72	245	4	1	2	mem	con	mod	mod	low	tg	n/a	wh/0769.bmp
183.60	0.72	246	1	1	111	per	lib	mod	low	mod	tg	ht	wh/0213.bmp
184.32	0.72	247	1	3	103	mem	con	low	low	low	nt	ms	nh/0790_nh.bmp
185.04	0.72	248	3	4	75	per	lib	low	mod	low	nt	fa	nh/0163_nh.bmp
185.76	0.72	249	2	1	33	per	lib	low	mod	low	nt	fa	nh/0597_nh.bmp
186.48	0.72	250	1	2	10	mem	con	mod	mod	mod	nt	ms	nh/0692_nh.bmp
187.20	0.72	251	2	1	114	per	con	low	mod	low	tg	ms	wh/0341.bmp
187.92	0.72	252	3	4	18	mem	con	mod	mod	mod	nt	ht	nh/0473_nh.bmp
188.64	0.72	253	3	4	57	per	con	low	mod	low	nt	cr	nh/0115_nh.bmp
189.36	0.72	254	1	1	47	per	lib	low	mod	low	tg	ht	wh/0529.bmp
190.08	0.72	255	1	3	117	per	lib	low	low	low	tg	ht	wh/0152.bmp
190.80	0.72	256	1	4	87	per	lib	mod	mod	mod	tg	ht	wh/0785.bmp
191.52	0.72	257	3	4	120	mem	lib	mod	mod	mod	nt	ht	nh/0775_nh.bmp
192.24	0.72	258	3	4	124	mem	lib	mod	mod	mod	nt	ht	nh/0405_nh.bmp
192.96	0.72	259	4	3	6	mem	lib	mod	mod	low	tg	ht	wh/0727.bmp
193.68	0.72	260	2	4	92	per	lib	mod	mod	mod	tg	ht	wh/0698.bmp
194.40	0.72	261	2	2	53	mem	lib	mod	mod	mod	tg	ht	wh/0391.bmp
195.12	0.72	262	2	3	7	mem	lib	mod	mod	low	nt	ht	nh/0168_nh.bmp
195.84	0.72	263	3	2	93	per	lib	mod	mod	mod	tg	ms	wh/0425.bmp
196.56	0.72	264	3	1	22	mem	lib	mod	mod	low	tg	ht	wh/0766.bmp
197.28	0.72	265	2	2	11	mem	con	mod	mod	mod	tg	ht	wh/0289.bmp
198.00	0.72	266	1	2	126	per	con	mod	low	mod	nt	cr	nh/0977_nh.bmp
198.72	0.72	267	3	4	67	per	lib	low	mod	low	nt	cr	nh/0392_nh.bmp
199.44	0.72	268	4	1	122	per	con	low	mod	low	tg	ms	wh/0868.bmp
200.16	0.72	269	4	1	22	mem	lib	mod	mod	low	tg	ht	wh/0766.bmp
200.88	0.72	270	1	1	100	per	lib	mod	low	mod	tg	ht	wh/0850.bmp
201.60	0.72	271	3	1	35	per	lib	low	mod	low	tg	ms	wh/0066.bmp
202.32	0.72	272	4	4	27	mem	con	mod	mod	mod	tg	ht	wh/0637.bmp
203.04	0.72	273	1	1	23	mem	lib	mod	mod	low	nt	ht	nh/0514_nh.bmp
203.76	0.72	274	2	1	128	per	con	low	mod	low	nt	cr	nh/0675_nh.bmp
204.48	0.72	275	3	4	60	per	con	low	mod	low	nt	cr	nh/0741_nh.bmp
205.20	0.72	276	1	3	30	mem	lib	low	low	mod	tg	ht	wh/0856.bmp
205.92	0.72	277	3	4	127	mem	lib	mod	mod	mod	tg	ht	wh/0017.bmp
206.64	0.72	278	3	4	92	per	lib	mod	mod	mod	tg	ht	wh/0698.bmp
207.36	0.72	279	2	1	41	per	lib	low	mod	low	nt	cr	nh/0997_nh.bmp
208.08	0.72	280	2	4	37	per	con	mod	mod	mod	tg	ht	wh/0879.bmp
208.80	0.72	281	2	4	36	per	con	mod	mod	mod	nt	cr	nh/0920_nh.bmp
209.52	0.72	282	2	4	74	per	lib	low	mod	low	nt	fa	nh/0353_nh.bmp
210.24	0.72	283	3	4	23	mem	con	mod	mod	mod	nt	ht	nh/0750_nh.bmp
210.96	0.72	284	1	2	110	mem	lib	low	low	low	nt	ht	nh/0889_nh.bmp
211.68	0.72	285	3	1	20	mem	lib	mod	mod	low	nt	ht	nh/0325_nh.bmp
212.40	0.72	286	1	3	28	mem	lib	low	low	mod	nt	ht	nh/0776_nh.bmp
213.12	0.72	287	3	1	114	per	con	low	mod	low	tg	ms	wh/0341.bmp
213.84	0.72	288	2	2	10	mem	con	mod	mod	mod	nt	ms	nh/0692_nh.bmp
214.56	0.72	289	1	3	56	mem	con	mod	mod	low	tg	ms	wh/0379.bmp
215.28	0.72	290	2	2	92	per	lib	mod	mod	mod	nt	fa	nh/0984_nh.bmp
216.00	0.72	291	1	2	47	per	con	low	low	low	nt	fa	nh/0614_nh.bmp
216.72	0.72	292	2	4	53	per	con	low	mod	low	tg	ms	wh/0014.bmp
217.44	0.72	293	4	4	60	per	con	low	mod	low	nt	cr	nh/0741_nh.bmp
218.16	0.72	294	4	4	120	mem	lib	mod	mod	mod	nt	ht	nh/0775_nh.bmp
218.88	0.72	295	3	4	53	per	con	low	mod	low	tg	ms	wh/0014.bmp
219.60	0.72	296	3	4	78	per	lib	low	mod	low	tg	ht	wh/0515.bmp
220.32	0.72	297	1	3	124	per	lib	low	low	low	tg	ht	wh/0903.bmp
221.04	0.72	298	3	4	69	per	lib	low	mod	low	tg	ht	wh/0155.bmp
221.76	0.72	299	2	1	47	per	lib	low	mod	low	tg	ht	wh/0529.bmp
222.48	0.72	300	3	1	33	per	lib	low	mod	low	nt	fa	nh/0597_nh.bmp
223.20	0.72	301	3	4	35	per	con	mod	mod	mod	tg	ht	wh/0596.bmp
223.92	0.72	302	4	4	18	mem	con	mod	mod	mod	nt	ht	nh/0473_nh.bmp
224.64	0.72	303	1	3	118	per	lib	low	low	low	nt	fa	nh/0486_nh.bmp
225.36	0.72	304	3	1	3	mem	con	mod	mod	low	nt	ht	nh/0836_nh.bmp
226.08	0.72	305	3	4	74	per	lib	low	mod	low	nt	fa	nh/0353_nh.bmp
226.80	0.72	306	2	3	52	mem	con	mod	mod	low	tg	ms	wh/0897.bmp
227.52	0.72	307	4	4	35	per	con	mod	mod	mod	tg	ht	wh/0596.bmp
228.24	0.72	308	3	1	25	mem	lib	mod	mod	low	nt	ht	nh/0231_nh.bmp
228.96	0.72	309	4	4	53	per	con	low	mod	low	tg	ms	wh/0014.bmp
229.68	0.72	310	4	1	45	per	lib	low	mod	low	tg	ht	wh/0816.bmp
230.40	0.72	311	3	3	1	mem	lib	mod	mod	low	nt	ht	nh/0755_nh.bmp
231.12	0.72	312	2	3	51	mem	con	mod	mod	low	tg	ht	wh/0298.bmp
231.84	0.72	313	3	2	63	mem	lib	mod	mod	mod	nt	ht	nh/0466_nh.bmp
232.56	0.72	314	1	2	105	mem	lib	low	low	low	nt	ht	nh/0464_nh.bmp
233.28	0.72	315	2	4	64	per	con	low	mod	low	nt	cr	nh/0040_nh.bmp
234.00	0.72	316	4	1	114	per	con	low	mod	low	tg	ms	wh/0341.bmp
234.72	0.72	317	3	4	114	mem	lib	mod	mod	mod	nt	ht	nh/0189_nh.bmp
235.44	0.72	318	5	4	66	per	lib	low	mod	low	nt	cr	nh/0031_nh.bmp
236.16	0.72	319	2	4	39	per	con	mod	mod	mod	nt	cr	nh/0724_nh.bmp
236.88	0.72	320	2	4	38	per	con	mod	mod	mod	nt	cr	nh/0526_nh.bmp
237.60	0.72	321	3	1	26	mem	lib	mod	mod	low	tg	ht	wh/0156.bmp
238.32	0.72	322	2	2	7	mem	con	mod	mod	mod	tg	ht	wh/0621.bmp
239.04	0.72	323	2	1	121	per	con	low	mod	low	nt	fa	nh/0217_nh.bmp
239.76	0.72	324	4	4	79	per	lib	low	mod	low	tg	ht	wh/0133.bmp
240.48	0.72	325	2	2	9	mem	con	mod	mod	mod	nt	ht	nh/0627_nh.bmp
241.20	0.72	326	3	1	119	per	con	low	mod	low	tg	ms	wh/0421.bmp
241.92	0.72	327	1	3	39	per	con	mod	low	mod	nt	cr	nh/0887_nh.bmp
242.64	0.72	328	3	2	11	mem	con	mod	mod	mod	tg	ht	wh/0289.bmp
243.36	0.72	329	3	3	49	mem	con	mod	mod	low	tg	ht	wh/0704.bmp
244.08	0.72	330	1	4	7	mem	con	low	low	mod	nt	ht	nh/0829_nh.bmp
244.80	0.72	331	4	4	75	per	lib	low	mod	low	nt	fa	nh/0163_nh.bmp
245.52	0.72	332	2	3	5	mem	lib	mod	mod	low	tg	ht	wh/0200.bmp
246.24	0.72	333	2	2	89	per	lib	mod	mod	mod	tg	ht	wh/0955.bmp
246.96	0.72	334	4	4	56	per	con	low	mod	low	nt	cr	nh/0027_nh.bmp
247.68	0.72	335	3	4	31	mem	con	mod	mod	mod	tg	ms	wh/0884.bmp
248.40	0.72	336	5	2	95	per	lib	mod	mod	mod	nt	fa	nh/0642_nh.bmp
249.12	0.72	337	3	4	64	per	con	low	mod	low	nt	cr	nh/0040_nh.bmp
249.84	0.72	338	3	1	76	per	con	mod	mod	mod	tg	ht	wh/0287.bmp
250.56	0.72	339	1	2	27	per	lib	low	low	low	tg	ms	wh/1001.bmp
251.28	0.72	340	3	4	36	per	con	mod	mod	mod	nt	cr	nh/0920_nh.bmp
252.00	0.72	341	3	1	41	per	lib	low	mod	low	nt	cr	nh/0997_nh.bmp
252.72	0.72	342	2	2	50	mem	lib	mod	mod	mod	nt	ht	nh/0681_nh.bmp
253.44	0.72	343	4	4	61	per	con	low	mod	low	tg	ht	wh/0926.bmp
254.16	0.72	344	1	2	22	per	lib	low	low	low	nt	cr	nh/0362_nh.bmp
254.88	0.72	345	1	4	58	per	con	low	mod	low	tg	ms	wh/0178.bmp
255.60	0.72	346	2	1	67	per	con	mod	mod	mod	nt	fa	nh/0070_nh.bmp
256.32	0.72	347	2	3	62	mem	con	mod	mod	low	nt	ht	nh/0105_nh.bmp
257.04	0.72	348	1	1	107	per	lib	mod	low	mod	nt	cr	nh/0303_nh.bmp
257.76	0.72	349	1	3	36	per	con	mod	low	mod	nt	cr	nh/0974_nh.bmp
258.48	0.72	350	3	2	84	per	lib	mod	mod	mod	tg	ht	wh/0700.bmp
259.20	0.72	351	3	2	10	mem	con	mod	mod	mod	nt	ms	nh/0692_nh.bmp
259.92	0.72	352	3	4	37	per	con	mod	mod	mod	tg	ht	wh/0879.bmp
260.64	0.72	353	4	1	124	per	con	low	mod	low	nt	fa	nh/0739_nh.bmp
261.36	0.72	354	5	3	6	mem	lib	mod	mod	low	tg	ht	wh/0727.bmp
262.08	0.72	355	1	1	105	per	lib	mod	low	mod	tg	ht	wh/0601.bmp
262.80	0.72	356	3	2	7	mem	con	mod	mod	mod	tg	ht	wh/0621.bmp
263.52	0.72	357	5	4	18	mem	con	mod	mod	mod	nt	ht	nh/0473_nh.bmp
264.24	0.72	358	3	4	44	per	con	mod	mod	mod	nt	fa	nh/0002_nh.bmp
264.96	0.72	359	1	2	55	mem	lib	mod	mod	mod	tg	ht	wh/0605.bmp
265.68	0.72	360	3	1	47	per	lib	low	mod	low	tg	ht	wh/0529.bmp
266.40	0.72	361	5	4	79	per	lib	low	mod	low	tg	ht	wh/0133.bmp
267.12	0.72	362	2	1	12	mem	con	mod	mod	low	tg	ht	wh/0573.bmp
267.84	0.72	363	3	1	29	mem	lib	mod	mod	low	tg	ht	wh/0387.bmp
268.56	0.72	364	3	2	94	per	lib	mod	mod	mod	nt	cr	nh/0896_nh.bmp
269.28	0.72	365	3	1	121	per	con	low	mod	low	nt	fa	nh/0217_nh.bmp
270.00	0.72	366	3	3	5	mem	lib	mod	mod	low	tg	ht	wh/0200.bmp
270.72	0.72	367	1	1	85	mem	lib	low	low	mod	nt	ht	nh/0083_nh.bmp
271.44	0.72	368	3	4	39	per	con	mod	mod	mod	nt	cr	nh/0724_nh.bmp
272.16	0.72	369	3	3	12	mem	lib	mod	mod	low	nt	ht	nh/0205_nh.bmp
272.88	0.72	370	4	1	119	per	con	low	mod	low	tg	ms	wh/0421.bmp
273.60	0.72	371	2	2	55	mem	lib	mod	mod	mod	tg	ht	wh/0605.bmp
274.32	0.72	372	3	2	87	per	lib	mod	mod	mod	tg	ht	wh/0001.bmp
275.04	0.72	373	4	4	44	per	con	mod	mod	mod	nt	fa	nh/0002_nh.bmp
275.76	0.72	374	1	2	74	mem	con	low	low	low	tg	ht	wh/0191.bmp
276.48	0.72	375	1	2	96	per	lib	mod	mod	mod	nt	fa	nh/0935_nh.bmp
277.20	0.72	376	6	4	66	per	lib	low	mod	low	nt	cr	nh/0031_nh.bmp
277.92	0.72	377	4	1	25	mem	lib	mod	mod	low	nt	ht	nh/0231_nh.bmp
278.64	0.72	378	2	4	87	per	lib	mod	mod	mod	tg	ht	wh/0785.bmp
279.36	0.72	379	4	3	55	mem	con	mod	mod	low	nt	ms	nh/0932_nh.bmp
280.08	0.72	380	2	2	14	mem	con	mod	mod	mod	nt	ht	nh/0098_nh.bmp
280.80	0.72	381	4	1	35	per	lib	low	mod	low	tg	ms	wh/0066.bmp
281.52	0.72	382	4	4	78	per	lib	low	mod	low	tg	ht	wh/0515.bmp
282.24	0.72	383	2	4	58	per	con	low	mod	low	tg	ms	wh/0178.bmp
282.96	0.72	384	4	4	23	mem	con	mod	mod	mod	nt	ht	nh/0750_nh.bmp
283.68	0.72	385	4	3	5	mem	lib	mod	mod	low	tg	ht	wh/0200.bmp
284.40	0.72	386	2	3	50	mem	con	mod	mod	low	nt	ms	nh/0648_nh.bmp
285.12	0.72	387	1	4	2	mem	con	low	low	mod	tg	ms	wh/0910.bmp
285.84	0.72	388	1	1	82	mem	lib	low	low	mod	tg	ht	wh/0288.bmp
286.56	0.72	389	1	4	17	mem	con	mod	mod	mod	nt	ms	nh/0183_nh.bmp
287.28	0.72	390	5	4	27	mem	con	mod	mod	mod	tg	ht	wh/0637.bmp
288.00	0.72	391	4	4	36	per	con	mod	mod	mod	nt	cr	nh/0920_nh.bmp
288.72	0.72	392	3	2	92	per	lib	mod	mod	mod	nt	fa	nh/0984_nh.bmp
289.44	0.72	393	2	4	17	mem	con	mod	mod	mod	nt	ms	nh/0183_nh.bmp
290.16	0.72	394	3	4	83	per	lib	mod	mod	mod	tg	ht	wh/0965.bmp
290.88	0.72	395	5	4	118	mem	lib	mod	mod	mod	tg	ht	wh/0975.bmp
291.60	0.72	396	2	4	90	per	lib	mod	mod	mod	nt	fa	nh/0585_nh.bmp
292.32	0.72	397	5	4	36	per	con	mod	mod	mod	nt	cr	nh/0920_nh.bmp
293.04	0.72	398	1	3	74	per	con	low	low	low	nt	cr	nh/0485_nh.bmp
293.76	0.72	399	4	1	20	mem	lib	mod	mod	low	nt	ht	nh/0325_nh.bmp
294.48	0.72	400	5	1	45	per	lib	low	mod	low	tg	ht	wh/0816.bmp
295.20	0.72	401	2	1	15	mem	con	mod	mod	low	nt	ht	nh/0624_nh.bmp
295.92	0.72	402	1	1	59	mem	con	low	low	mod	tg	ms	wh/0687.bmp
296.64	0.72	403	3	3	51	mem	con	mod	mod	low	tg	ht	wh/0298.bmp
297.36	0.72	404	3	3	7	mem	lib	mod	mod	low	nt	ht	nh/0168_nh.bmp
298.08	0.72	405	6	2	95	per	lib	mod	mod	mod	nt	fa	nh/0642_nh.bmp
298.80	0.72	406	6	4	36	per	con	mod	mod	mod	nt	cr	nh/0920_nh.bmp
299.52	0.72	407	4	4	84	per	lib	mod	mod	mod	nt	cr	nh/0841_nh.bmp
300.24	0.72	408	2	2	49	mem	lib	mod	mod	mod	nt	ht	nh/0534_nh.bmp
300.96	0.72	409	4	4	74	per	lib	low	mod	low	nt	fa	nh/0353_nh.bmp
301.68	0.72	410	5	4	44	per	con	mod	mod	mod	nt	fa	nh/0002_nh.bmp
302.40	0.72	411	3	2	55	mem	lib	mod	mod	mod	tg	ht	wh/0605.bmp
303.12	0.72	412	3	4	24	mem	con	mod	mod	mod	tg	ms	wh/0679.bmp
303.84	0.72	413	3	4	87	per	lib	mod	mod	mod	tg	ht	wh/0785.bmp
304.56	0.72	414	3	2	89	per	lib	mod	mod	mod	tg	ht	wh/0955.bmp
305.28	0.72	415	1	3	126	per	lib	low	low	low	nt	fa	nh/0109_nh.bmp
306.00	0.72	416	1	1	71	per	con	mod	mod	mod	nt	cr	nh/0857_nh.bmp
306.72	0.72	417	2	1	31	mem	lib	mod	mod	low	nt	ht	nh/0145_nh.bmp
307.44	0.72	418	1	4	93	per	lib	mod	mod	mod	tg	ht	wh/0463.bmp
308.16	0.72	419	3	4	90	per	lib	mod	mod	mod	nt	fa	nh/0585_nh.bmp
308.88	0.72	420	1	1	16	mem	con	mod	mod	low	tg	ht	wh/0853.bmp
309.60	0.72	421	1	2	116	per	con	mod	low	mod	tg	ht	wh/0478.bmp
310.32	0.72	422	2	4	91	per	lib	mod	mod	mod	nt	fa	nh/0561_nh.bmp
311.04	0.72	423	3	3	50	mem	con	mod	mod	low	nt	ms	nh/0648_nh.bmp
311.76	0.72	424	1	4	98	mem	lib	low	low	low	nt	ht	nh/0817_nh.bmp
312.48	0.72	425	2	2	57	mem	lib	mod	mod	mod	tg	ms	wh/0801.bmp
313.20	0.72	426	3	2	16	mem	con	mod	mod	mod	tg	ht	wh/0658.bmp
313.92	0.72	427	2	4	81	per	lib	mod	mod	mod	nt	fa	nh/0204_nh.bmp
314.64	0.72	428	4	1	26	mem	lib	mod	mod	low	tg	ht	wh/0156.bmp
315.36	0.72	429	1	1	56	mem	con	low	low	mod	tg	ht	wh/0235.bmp
316.08	0.72	430	5	1	20	mem	lib	mod	mod	low	nt	ht	nh/0325_nh.bmp
316.80	0.72	431	2	3	3	mem	lib	mod	mod	low	nt	ht	nh/0455_nh.bmp
317.52	0.72	432	2	2	96	per	lib	mod	mod	mod	nt	fa	nh/0935_nh.bmp
318.24	0.72	433	4	4	90	per	lib	mod	mod	mod	nt	fa	nh/0585_nh.bmp
318.96	0.72	434	3	3	3	mem	lib	mod	mod	low	nt	ht	nh/0455_nh.bmp
319.68	0.72	435	2	2	54	mem	lib	mod	mod	mod	nt	ht	nh/0981_nh.bmp
320.40	0.72	436	1	1	61	mem	con	low	low	mod	tg	ht	wh/0047.bmp
321.12	0.72	437	5	1	124	per	con	low	mod	low	nt	fa	nh/0739_nh.bmp
321.84	0.72	438	1	2	101	mem	lib	low	low	low	tg	ht	wh/0210.bmp
322.56	0.72	439	4	4	39	per	con	mod	mod	mod	nt	cr	nh/0724_nh.bmp
323.28	0.72	440	3	4	91	per	lib	mod	mod	mod	nt	fa	nh/0561_nh.bmp
324.00	0.72	441	4	2	10	mem	con	mod	mod	mod	nt	ms	nh/0692_nh.bmp
324.72	0.72	442	4	1	125	per	con	low	mod	low	nt	cr	nh/0177_nh.bmp
325.44	0.72	443	3	4	81	per	lib	mod	mod	mod	nt	fa	nh/0204_nh.bmp
326.16	0.72	444	3	1	42	per	lib	low	mod	low	nt	cr	nh/0377_nh.bmp
326.88	0.72	445	1	3	29	mem	lib	low	low	mod	nt	ht	nh/0589_nh.bmp
327.60	0.72	446	2	4	25	mem	con	mod	mod	mod	nt	ms	nh/0100_nh.bmp
328.32	0.72	447	1	2	29	per	lib	low	low	low	tg	ms	wh/0354.bmp
329.04	0.72	448	4	4	124	mem	lib	mod	mod	mod	nt	ht	nh/0405_nh.bmp
329.76	0.72	449	3	1	128	per	con	low	mod	low	nt	cr	nh/0675_nh.bmp
330.48	0.72	450	5	1	25	mem	lib	mod	mod	low	nt	ht	nh/0231_nh.bmp
331.20	0.72	451	4	1	41	per	lib	low	mod	low	nt	cr	nh/0997_nh.bmp
331.92	0.72	452	1	4	97	mem	lib	low	low	low	nt	n/a	nh/1022_nh.bmp
332.64	0.72	453	4	4	37	per	con	mod	mod	mod	tg	ht	wh/0879.bmp
333.36	0.72	454	1	2	67	mem	con	low	low	low	tg	ms	wh/0257.bmp
334.08	0.72	455	4	4	87	per	lib	mod	mod	mod	tg	ht	wh/0785.bmp
334.80	0.72	456	1	3	72	per	con	low	low	low	tg	ms	wh/0996.bmp
335.52	0.72	457	4	1	43	per	lib	low	mod	low	nt	fa	nh/0019_nh.bmp
336.24	0.72	458	5	4	74	per	lib	low	mod	low	nt	fa	nh/0353_nh.bmp
336.96	0.72	459	3	2	96	per	lib	mod	mod	mod	nt	fa	nh/0935_nh.bmp
337.68	0.72	460	4	2	16	mem	con	mod	mod	mod	tg	ht	wh/0658.bmp
338.40	0.72	461	2	3	11	mem	lib	mod	mod	low	tg	ht	wh/0116.bmp
339.12	0.72	462	2	3	56	mem	con	mod	mod	low	tg	ms	wh/0379.bmp
339.84	0.72	463	5	4	39	per	con	mod	mod	mod	nt	cr	nh/0724_nh.bmp
340.56	0.72	464	4	4	31	mem	con	mod	mod	mod	tg	ms	wh/0884.bmp
341.28	0.72	465	2	4	126	mem	lib	mod	mod	mod	tg	ht	wh/0393.bmp
342.00	0.72	466	4	4	69	per	lib	low	mod	low	tg	ht	wh/0155.bmp
342.72	0.72	467	1	3	99	mem	con	low	low	low	tg	ms	wh/0006.bmp
343.44	0.72	468	3	2	2	mem	con	mod	mod	mod	tg	ms	wh/0899.bmp
344.16	0.72	469	5	1	122	per	con	low	mod	low	tg	ms	wh/0868.bmp
344.88	0.72	470	3	1	67	per	con	mod	mod	mod	nt	fa	nh/0070_nh.bmp
345.60	0.72	471	2	1	23	mem	lib	mod	mod	low	nt	ht	nh/0514_nh.bmp
346.32	0.72	472	6	3	6	mem	lib	mod	mod	low	tg	ht	wh/0727.bmp
347.04	0.72	473	3	4	126	mem	lib	mod	mod	mod	tg	ht	wh/0393.bmp
347.76	0.72	474	3	1	27	mem	lib	mod	mod	low	tg	ht	wh/0745.bmp
348.48	0.72	475	1	3	113	per	lib	low	low	low	tg	ht	wh/0499.bmp
349.20	0.72	476	1	3	98	mem	con	low	low	low	nt	ms	nh/0533_nh.bmp
349.92	0.72	477	4	4	24	mem	con	mod	mod	mod	tg	ms	wh/0679.bmp
350.64	0.72	478	4	2	89	per	lib	mod	mod	mod	tg	ht	wh/0955.bmp
351.36	0.72	479	1	2	61	mem	lib	mod	mod	mod	tg	ht	wh/0414.bmp
352.08	0.72	480	2	2	61	mem	lib	mod	mod	mod	tg	ht	wh/0414.bmp
352.80	0.72	481	4	1	27	mem	lib	mod	mod	low	tg	ht	wh/0745.bmp
353.52	0.72	482	3	2	53	mem	lib	mod	mod	mod	tg	ht	wh/0391.bmp
354.24	0.72	483	6	4	39	per	con	mod	mod	mod	nt	cr	nh/0724_nh.bmp
354.96	0.72	484	2	1	4	mem	con	mod	mod	low	tg	ht	wh/0472.bmp
355.68	0.72	485	4	4	126	mem	lib	mod	mod	mod	tg	ht	wh/0393.bmp
356.40	0.72	486	4	2	53	mem	lib	mod	mod	mod	tg	ht	wh/0391.bmp
357.12	0.72	487	4	4	67	per	lib	low	mod	low	nt	cr	nh/0392_nh.bmp
357.84	0.72	488	3	4	25	mem	con	mod	mod	mod	nt	ms	nh/0100_nh.bmp
358.56	0.72	489	3	2	49	mem	lib	mod	mod	mod	nt	ht	nh/0534_nh.bmp
359.28	0.72	490	4	2	92	per	lib	mod	mod	mod	nt	fa	nh/0984_nh.bmp
360.00	0.72	491	3	4	49	per	con	low	mod	low	tg	ht	wh/0649.bmp
360.72	0.72	492	5	4	56	per	con	low	mod	low	nt	cr	nh/0027_nh.bmp
361.44	0.72	493	4	4	81	per	lib	mod	mod	mod	nt	fa	nh/0204_nh.bmp
362.16	0.72	494	3	3	53	mem	con	mod	mod	low	nt	ht	nh/0265_nh.bmp
362.88	0.72	495	2	1	16	mem	con	mod	mod	low	tg	ht	wh/0853.bmp
363.60	0.72	496	3	1	15	mem	con	mod	mod	low	nt	ht	nh/0624_nh.bmp
364.32	0.72	497	2	4	45	per	con	mod	mod	mod	tg	ht	wh/0600.bmp
365.04	0.72	498	4	2	11	mem	con	mod	mod	mod	tg	ht	wh/0289.bmp
365.76	0.72	499	5	2	11	mem	con	mod	mod	mod	tg	ht	wh/0289.bmp
366.48	0.72	500	6	1	20	mem	lib	mod	mod	low	nt	ht	nh/0325_nh.bmp
367.20	0.72	501	3	3	52	mem	con	mod	mod	low	tg	ms	wh/0897.bmp
367.92	0.72	502	4	2	94	per	lib	mod	mod	mod	nt	cr	nh/0896_nh.bmp
368.64	0.72	503	3	4	117	mem	lib	mod	mod	mod	nt	ms	nh/0274_nh.bmp
369.36	0.72	504	3	4	45	per	con	mod	mod	mod	tg	ht	wh/0600.bmp
370.08	0.72	505	1	4	109	mem	lib	low	low	low	tg	ms	wh/0423.bmp
370.80	0.72	506	4	1	79	per	con	mod	mod	mod	nt	fa	nh/0938_nh.bmp
371.52	0.72	507	4	2	87	per	lib	mod	mod	mod	tg	ht	wh/0001.bmp
372.24	0.72	508	5	1	27	mem	lib	mod	mod	low	tg	ht	wh/0745.bmp
372.96	0.72	509	5	2	10	mem	con	mod	mod	mod	nt	ms	nh/0692_nh.bmp
373.68	0.72	510	4	1	77	per	con	mod	mod	mod	tg	ht	wh/0847.bmp
374.40	0.72	511	4	1	42	per	lib	low	mod	low	nt	cr	nh/0377_nh.bmp
375.12	0.72	512	4	1	126	per	con	low	mod	low	tg	ms	wh/0733.bmp
375.84	0.72	513	1	3	38	per	con	mod	low	mod	tg	ht	wh/0696.bmp
376.56	0.72	514	1	4	11	mem	con	low	low	mod	nt	ms	nh/0449_nh.bmp
377.28	0.72	515	5	1	114	per	con	low	mod	low	tg	ms	wh/0341.bmp
378.00	0.72	516	4	1	128	per	con	low	mod	low	nt	cr	nh/0675_nh.bmp
378.72	0.72	517	6	4	44	per	con	mod	mod	mod	nt	fa	nh/0002_nh.bmp
379.44	0.72	518	1	4	5	mem	con	low	low	mod	nt	ms	nh/0228_nh.bmp
380.16	0.72	519	4	2	49	mem	lib	mod	mod	mod	nt	ht	nh/0534_nh.bmp
380.88	0.72	520	4	1	33	per	lib	low	mod	low	nt	fa	nh/0597_nh.bmp
381.60	0.72	521	3	2	57	mem	lib	mod	mod	mod	tg	ms	wh/0801.bmp
382.32	0.72	522	1	4	3	mem	con	low	low	mod	tg	ms	wh/0406.bmp
383.04	0.72	523	5	1	26	mem	lib	mod	mod	low	tg	ht	wh/0156.bmp
383.76	0.72	524	1	3	85	per	lib	mod	low	mod	nt	fa	nh/0286_nh.bmp
384.48	0.72	525	5	4	126	mem	lib	mod	mod	mod	tg	ht	wh/0393.bmp
385.20	0.72	526	1	4	14	mem	con	low	low	mod	tg	ms	wh/0009.bmp
385.92	0.72	527	1	1	68	per	con	mod	mod	mod	tg	ht	wh/0878.bmp
386.64	0.72	528	3	1	12	mem	con	mod	mod	low	tg	ht	wh/0573.bmp
387.36	0.72	529	5	1	126	per	con	low	mod	low	tg	ms	wh/0733.bmp
388.08	0.72	530	4	4	127	mem	lib	mod	mod	mod	tg	ht	wh/0017.bmp
388.80	0.72	531	1	4	1	mem	con	low	low	mod	nt	ms	nh/0885_nh.bmp
389.52	0.72	532	6	1	26	mem	lib	mod	mod	low	tg	ht	wh/0156.bmp
390.24	0.72	533	3	4	113	mem	lib	mod	mod	mod	tg	ht	wh/0959.bmp
390.96	0.72	534	1	3	115	per	lib	low	low	low	nt	fa	nh/0411_nh.bmp
391.68	0.72	535	2	1	5	mem	con	mod	mod	low	nt	ht	nh/0251_nh.bmp
392.40	0.72	536	4	1	69	per	con	mod	mod	mod	nt	cr	nh/0919_nh.bmp
393.12	0.72	537	5	1	42	per	lib	low	mod	low	nt	cr	nh/0377_nh.bmp
393.84	0.72	538	4	1	12	mem	con	mod	mod	low	tg	ht	wh/0573.bmp
394.56	0.72	539	1	3	70	per	con	low	low	low	tg	ht	wh/0747.bmp
395.28	0.72	540	5	2	89	per	lib	mod	mod	mod	tg	ht	wh/0955.bmp
396.00	0.72	541	5	4	69	per	lib	low	mod	low	tg	ht	wh/0155.bmp
396.72	0.72	542	2	1	13	mem	con	mod	mod	low	nt	ms	nh/0233_nh.bmp
397.44	0.72	543	1	3	20	mem	lib	low	low	mod	tg	ht	wh/0218.bmp
398.16	0.72	544	4	4	64	per	con	low	mod	low	nt	cr	nh/0040_nh.bmp
398.88	0.72	545	5	1	41	per	lib	low	mod	low	nt	cr	nh/0997_nh.bmp
399.60	0.72	546	5	4	75	per	lib	low	mod	low	nt	fa	nh/0163_nh.bmp
400.32	0.72	547	5	4	60	per	con	low	mod	low	nt	cr	nh/0741_nh.bmp
401.04	0.72	548	4	4	114	mem	lib	mod	mod	mod	nt	ht	nh/0189_nh.bmp
401.76	0.72	549	4	1	29	mem	lib	mod	mod	low	tg	ht	wh/0387.bmp
402.48	0.72	550	3	4	58	per	con	low	mod	low	tg	ms	wh/0178.bmp
403.20	0.72	551	5	2	15	mem	con	mod	mod	mod	nt	ms	nh/0429_nh.bmp
403.92	0.72	552	4	3	53	mem	con	mod	mod	low	nt	ht	nh/0265_nh.bmp
404.64	0.72	553	5	1	12	mem	con	mod	mod	low	tg	ht	wh/0573.bmp
405.36	0.72	554	6	4	60	per	con	low	mod	low	nt	cr	nh/0741_nh.bmp
406.08	0.72	555	6	4	74	per	lib	low	mod	low	nt	fa	nh/0353_nh.bmp
406.80	0.72	556	5	1	128	per	con	low	mod	low	nt	cr	nh/0675_nh.bmp
407.52	0.72	557	2	1	68	per	con	mod	mod	mod	tg	ht	wh/0878.bmp
408.24	0.72	558	5	3	5	mem	lib	mod	mod	low	tg	ht	wh/0200.bmp
408.96	0.72	559	4	4	117	mem	lib	mod	mod	mod	nt	ms	nh/0274_nh.bmp
409.68	0.72	560	5	4	31	mem	con	mod	mod	mod	tg	ms	wh/0884.bmp
410.40	0.72	561	1	1	88	mem	lib	low	low	mod	tg	n/a	wh/0103.bmp
411.12	0.72	562	1	2	77	mem	con	low	low	low	tg	ht	wh/0722.bmp
411.84	0.72	563	3	2	9	mem	con	mod	mod	mod	nt	ht	nh/0627_nh.bmp
412.56	0.72	564	4	1	40	per	lib	low	mod	low	tg	ht	wh/0128.bmp
413.28	0.72	565	3	4	17	mem	con	mod	mod	mod	nt	ms	nh/0183_nh.bmp
414.00	0.72	566	1	1	62	mem	con	low	low	mod	tg	ms	wh/0332.bmp
414.72	0.72	567	4	3	52	mem	con	mod	mod	low	tg	ms	wh/0897.bmp
415.44	0.72	568	3	1	31	mem	lib	mod	mod	low	nt	ht	nh/0145_nh.bmp
416.16	0.72	569	6	1	124	per	con	low	mod	low	nt	fa	nh/0739_nh.bmp
416.88	0.72	570	1	1	54	mem	con	low	low	mod	nt	ms	nh/0960_nh.bmp
417.60	0.72	571	3	3	11	mem	lib	mod	mod	low	tg	ht	wh/0116.bmp
418.32	0.72	572	4	2	63	mem	lib	mod	mod	mod	nt	ht	nh/0466_nh.bmp
419.04	0.72	573	4	3	50	mem	con	mod	mod	low	nt	ms	nh/0648_nh.bmp
419.76	0.72	574	1	3	112	mem	con	low	low	low	nt	ms	nh/0076_nh.bmp
420.48	0.72	575	5	2	49	mem	lib	mod	mod	mod	nt	ht	nh/0534_nh.bmp
421.20	0.72	576	1	1	86	mem	lib	low	low	mod	nt	ht	nh/0972_nh.bmp
421.92	0.72	577	5	4	78	per	lib	low	mod	low	tg	ht	wh/0515.bmp
422.64	0.72	578	3	2	61	mem	lib	mod	mod	mod	tg	ht	wh/0414.bmp
423.36	0.72	579	3	1	5	mem	con	mod	mod	low	nt	ht	nh/0251_nh.bmp
424.08	0.72	580	4	4	58	per	con	low	mod	low	tg	ms	wh/0178.bmp
424.80	0.72	581	6	3	5	mem	lib	mod	mod	low	tg	ht	wh/0200.bmp
425.52	0.72	582	3	1	16	mem	con	mod	mod	low	tg	ht	wh/0853.bmp
426.24	0.72	583	1	2	23	per	lib	low	low	low	nt	cr	nh/0054_nh.bmp
426.96	0.72	584	3	3	56	mem	con	mod	mod	low	tg	ms	wh/0379.bmp
427.68	0.72	585	5	4	37	per	con	mod	mod	mod	tg	ht	wh/0879.bmp
428.40	0.72	586	5	4	127	mem	lib	mod	mod	mod	tg	ht	wh/0017.bmp
429.12	0.72	587	1	3	33	per	con	mod	low	mod	tg	ht	wh/0321.bmp
429.84	0.72	588	3	4	38	per	con	mod	mod	mod	nt	cr	nh/0526_nh.bmp
430.56	0.72	589	1	3	22	mem	lib	low	low	mod	tg	ht	wh/0918.bmp
431.28	0.72	590	1	3	100	mem	con	low	low	low	tg	ht	wh/0015.bmp
432.00	0.72	591	4	2	84	per	lib	mod	mod	mod	tg	ht	wh/0700.bmp
432.72	0.72	592	4	3	3	mem	lib	mod	mod	low	nt	ht	nh/0455_nh.bmp
433.44	0.72	593	4	4	25	mem	con	mod	mod	mod	nt	ms	nh/0100_nh.bmp
434.16	0.72	594	4	2	57	mem	lib	mod	mod	mod	tg	ms	wh/0801.bmp
434.88	0.72	595	5	4	114	mem	lib	mod	mod	mod	nt	ht	nh/0189_nh.bmp
435.60	0.72	596	4	2	61	mem	lib	mod	mod	mod	tg	ht	wh/0414.bmp
436.32	0.72	597	5	2	53	mem	lib	mod	mod	mod	tg	ht	wh/0391.bmp
437.04	0.72	598	4	1	5	mem	con	mod	mod	low	nt	ht	nh/0251_nh.bmp
437.76	0.72	599	4	3	51	mem	con	mod	mod	low	tg	ht	wh/0298.bmp
438.48	0.72	600	4	3	1	mem	lib	mod	mod	low	nt	ht	nh/0755_nh.bmp
439.20	0.72	601	4	3	7	mem	lib	mod	mod	low	nt	ht	nh/0168_nh.bmp
439.92	0.72	602	2	4	93	per	lib	mod	mod	mod	tg	ht	wh/0463.bmp
440.64	0.72	603	5	3	1	mem	lib	mod	mod	low	nt	ht	nh/0755_nh.bmp
441.36	0.72	604	1	3	128	per	lib	low	low	low	tg	ms	wh/0651.bmp
442.08	0.72	605	1	2	26	per	lib	low	low	low	tg	ht	wh/0522.bmp
442.80	0.72	606	5	4	23	mem	con	mod	mod	mod	nt	ht	nh/0750_nh.bmp
443.52	0.72	607	4	4	17	mem	con	mod	mod	mod	nt	ms	nh/0183_nh.bmp
444.24	0.72	608	6	4	79	per	lib	low	mod	low	tg	ht	wh/0133.bmp
444.96	0.72	609	6	2	15	mem	con	mod	mod	mod	nt	ms	nh/0429_nh.bmp
445.68	0.72	610	1	3	81	per	lib	mod	low	mod	tg	ht	wh/0551.bmp
446.40	0.72	611	3	4	41	per	con	mod	mod	mod	tg	ms	wh/0162.bmp
447.12	0.72	612	5	2	84	per	lib	mod	mod	mod	tg	ht	wh/0700.bmp
447.84	0.72	613	2	1	71	per	con	mod	mod	mod	nt	cr	nh/0857_nh.bmp
448.56	0.72	614	5	2	16	mem	con	mod	mod	mod	tg	ht	wh/0658.bmp
449.28	0.72	615	5	4	81	per	lib	mod	mod	mod	nt	fa	nh/0204_nh.bmp
450.00	0.72	616	4	2	93	per	lib	mod	mod	mod	tg	ms	wh/0425.bmp
450.72	0.72	617	5	4	17	mem	con	mod	mod	mod	nt	ms	nh/0183_nh.bmp
451.44	0.72	618	4	2	96	per	lib	mod	mod	mod	nt	fa	nh/0935_nh.bmp
452.16	0.72	619	3	4	93	per	lib	mod	mod	mod	tg	ht	wh/0463.bmp
452.88	0.72	620	5	3	50	mem	con	mod	mod	low	nt	ms	nh/0648_nh.bmp
453.60	0.72	621	6	4	78	per	lib	low	mod	low	tg	ht	wh/0515.bmp
454.32	0.72	622	4	2	9	mem	con	mod	mod	mod	nt	ht	nh/0627_nh.bmp
455.04	0.72	623	4	3	11	mem	lib	mod	mod	low	tg	ht	wh/0116.bmp
455.76	0.72	624	4	4	93	per	lib	mod	mod	mod	tg	ht	wh/0463.bmp
456.48	0.72	625	4	1	3	mem	con	mod	mod	low	nt	ht	nh/0836_nh.bmp
457.20	0.72	626	1	4	108	mem	lib	low	low	low	tg	ht	wh/1012.bmp
457.92	0.72	627	5	4	84	per	lib	mod	mod	mod	nt	cr	nh/0841_nh.bmp
458.64	0.72	628	3	1	4	mem	con	mod	mod	low	tg	ht	wh/0472.bmp
459.36	0.72	629	3	4	30	mem	con	mod	mod	mod	tg	ms	wh/0942.bmp
460.08	0.72	630	5	2	92	per	lib	mod	mod	mod	nt	fa	nh/0984_nh.bmp
460.80	0.72	631	4	4	113	mem	lib	mod	mod	mod	tg	ht	wh/0959.bmp
461.52	0.72	632	4	4	49	per	con	low	mod	low	tg	ht	wh/0649.bmp
462.24	0.72	633	4	1	121	per	con	low	mod	low	nt	fa	nh/0217_nh.bmp
462.96	0.72	634	5	2	96	per	lib	mod	mod	mod	nt	fa	nh/0935_nh.bmp
463.68	0.72	635	5	4	49	per	con	low	mod	low	tg	ht	wh/0649.bmp
464.40	0.72	636	5	1	121	per	con	low	mod	low	nt	fa	nh/0217_nh.bmp
465.12	0.72	637	6	4	114	mem	lib	mod	mod	mod	nt	ht	nh/0189_nh.bmp
465.84	0.72	638	6	4	81	per	lib	mod	mod	mod	nt	fa	nh/0204_nh.bmp
466.56	0.72	639	4	4	30	mem	con	mod	mod	mod	tg	ms	wh/0942.bmp
467.28	0.72	640	4	3	49	mem	con	mod	mod	low	tg	ht	wh/0704.bmp
468.00	0.72	641	4	1	31	mem	lib	mod	mod	low	nt	ht	nh/0145_nh.bmp
468.72	0.72	642	3	2	54	mem	lib	mod	mod	mod	nt	ht	nh/0981_nh.bmp
469.44	0.72	643	5	4	87	per	lib	mod	mod	mod	tg	ht	wh/0785.bmp
470.16	0.72	644	3	1	23	mem	lib	mod	mod	low	nt	ht	nh/0514_nh.bmp
470.88	0.72	645	4	3	10	mem	lib	mod	mod	low	tg	ht	wh/1021.bmp
471.60	0.72	646	2	4	77	per	lib	low	mod	low	tg	ms	wh/0435.bmp
472.32	0.72	647	5	2	57	mem	lib	mod	mod	mod	tg	ms	wh/0801.bmp
473.04	0.72	648	4	2	7	mem	con	mod	mod	mod	tg	ht	wh/0621.bmp
473.76	0.72	649	1	3	71	per	con	low	low	low	nt	cr	nh/0159_nh.bmp
474.48	0.72	650	5	3	10	mem	lib	mod	mod	low	tg	ht	wh/1021.bmp
475.20	0.72	651	4	1	67	per	con	mod	mod	mod	nt	fa	nh/0070_nh.bmp
475.92	0.72	652	5	1	31	mem	lib	mod	mod	low	nt	ht	nh/0145_nh.bmp
476.64	0.72	653	3	1	68	per	con	mod	mod	mod	tg	ht	wh/0878.bmp
477.36	0.72	654	3	2	50	mem	lib	mod	mod	mod	nt	ht	nh/0681_nh.bmp
478.08	0.72	655	5	1	43	per	lib	low	mod	low	nt	fa	nh/0019_nh.bmp
478.80	0.72	656	4	2	2	mem	con	mod	mod	mod	tg	ms	wh/0899.bmp
479.52	0.72	657	1	3	75	per	con	low	low	low	tg	ms	wh/0330.bmp
480.24	0.72	658	5	1	35	per	lib	low	mod	low	tg	ms	wh/0066.bmp
480.96	0.72	659	4	4	45	per	con	mod	mod	mod	tg	ht	wh/0600.bmp
481.68	0.72	660	5	1	29	mem	lib	mod	mod	low	tg	ht	wh/0387.bmp
482.40	0.72	661	5	4	61	per	con	low	mod	low	tg	ht	wh/0926.bmp
483.12	0.72	662	6	1	128	per	con	low	mod	low	nt	cr	nh/0675_nh.bmp
483.84	0.72	663	5	3	11	mem	lib	mod	mod	low	tg	ht	wh/0116.bmp
484.56	0.72	664	6	2	11	mem	con	mod	mod	mod	tg	ht	wh/0289.bmp
485.28	0.72	665	5	1	119	per	con	low	mod	low	tg	ms	wh/0421.bmp
486.00	0.72	666	4	3	12	mem	lib	mod	mod	low	nt	ht	nh/0205_nh.bmp
486.72	0.72	667	5	3	53	mem	con	mod	mod	low	nt	ht	nh/0265_nh.bmp
487.44	0.72	668	3	1	13	mem	con	mod	mod	low	nt	ms	nh/0233_nh.bmp
488.16	0.72	669	6	4	126	mem	lib	mod	mod	mod	tg	ht	wh/0393.bmp
488.88	0.72	670	3	4	77	per	lib	low	mod	low	tg	ms	wh/0435.bmp
489.60	0.72	671	6	1	121	per	con	low	mod	low	nt	fa	nh/0217_nh.bmp
490.32	0.72	672	4	4	77	per	lib	low	mod	low	tg	ms	wh/0435.bmp
491.04	0.72	673	6	4	23	mem	con	mod	mod	mod	nt	ht	nh/0750_nh.bmp
491.76	0.72	674	4	2	55	mem	lib	mod	mod	mod	tg	ht	wh/0605.bmp
492.48	0.72	675	4	1	68	per	con	mod	mod	mod	tg	ht	wh/0878.bmp
493.20	0.72	676	6	3	1	mem	lib	mod	mod	low	nt	ht	nh/0755_nh.bmp
493.92	0.72	677	1	2	66	mem	con	low	low	low	nt	ht	nh/0777_nh.bmp
494.64	0.72	678	5	4	67	per	lib	low	mod	low	nt	cr	nh/0392_nh.bmp
495.36	0.72	679	5	4	120	mem	lib	mod	mod	mod	nt	ht	nh/0775_nh.bmp
496.08	0.72	680	3	3	62	mem	con	mod	mod	low	nt	ht	nh/0105_nh.bmp
496.80	0.72	681	1	3	18	mem	lib	low	low	mod	nt	ht	nh/0922_nh.bmp
497.52	0.72	682	6	3	50	mem	con	mod	mod	low	nt	ms	nh/0648_nh.bmp
498.24	0.72	683	5	4	30	mem	con	mod	mod	mod	tg	ms	wh/0942.bmp
498.96	0.72	684	5	2	7	mem	con	mod	mod	mod	tg	ht	wh/0621.bmp
499.68	0.72	685	1	1	99	per	lib	mod	low	mod	nt	fa	nh/0866_nh.bmp
500.40	0.72	686	4	1	16	mem	con	mod	mod	low	tg	ht	wh/0853.bmp
501.12	0.72	687	4	2	54	mem	lib	mod	mod	mod	nt	ht	nh/0981_nh.bmp
501.84	0.72	688	1	2	75	mem	con	low	low	low	nt	ms	nh/0122_nh.bmp
502.56	0.72	689	1	2	39	per	con	low	low	low	tg	ms	wh/0028.bmp
503.28	0.72	690	6	2	53	mem	lib	mod	mod	mod	tg	ht	wh/0391.bmp
504.00	0.72	691	4	3	62	mem	con	mod	mod	low	nt	ht	nh/0105_nh.bmp
504.72	0.72	692	6	1	27	mem	lib	mod	mod	low	tg	ht	wh/0745.bmp
505.44	0.72	693	5	4	90	per	lib	mod	mod	mod	nt	fa	nh/0585_nh.bmp
506.16	0.72	694	5	1	40	per	lib	low	mod	low	tg	ht	wh/0128.bmp
506.88	0.72	695	5	1	22	mem	lib	mod	mod	low	tg	ht	wh/0766.bmp
507.60	0.72	696	1	2	118	per	con	mod	low	mod	nt	cr	nh/0541_nh.bmp
508.32	0.72	697	4	1	13	mem	con	mod	mod	low	nt	ms	nh/0233_nh.bmp
509.04	0.72	698	5	4	25	mem	con	mod	mod	mod	nt	ms	nh/0100_nh.bmp
509.76	0.72	699	6	4	90	per	lib	mod	mod	mod	nt	fa	nh/0585_nh.bmp
510.48	0.72	700	5	4	93	per	lib	mod	mod	mod	tg	ht	wh/0463.bmp
511.20	0.72	701	1	2	32	per	lib	low	low	low	nt	fa	nh/0685_nh.bmp
511.92	0.72	702	5	3	55	mem	con	mod	mod	low	nt	ms	nh/0932_nh.bmp
512.64	0.72	703	6	1	40	per	lib	low	mod	low	tg	ht	wh/0128.bmp
513.36	0.72	704	6	2	7	mem	con	mod	mod	mod	tg	ht	wh/0621.bmp
514.08	0.72	705	6	1	119	per	con	low	mod	low	tg	ms	wh/0421.bmp
514.80	0.72	706	6	3	10	mem	lib	mod	mod	low	tg	ht	wh/1021.bmp
515.52	0.72	707	3	2	14	mem	con	mod	mod	mod	nt	ht	nh/0098_nh.bmp
516.24	0.72	708	6	1	126	per	con	low	mod	low	tg	ms	wh/0733.bmp
516.96	0.72	709	6	1	35	per	lib	low	mod	low	tg	ms	wh/0066.bmp
517.68	0.72	710	4	4	38	per	con	mod	mod	mod	nt	cr	nh/0526_nh.bmp
518.40	0.72	711	5	2	93	per	lib	mod	mod	mod	tg	ms	wh/0425.bmp
519.12	0.72	712	5	2	55	mem	lib	mod	mod	mod	tg	ht	wh/0605.bmp
519.84	0.72	713	5	2	87	per	lib	mod	mod	mod	tg	ht	wh/0001.bmp
520.56	0.72	714	6	1	122	per	con	low	mod	low	tg	ms	wh/0868.bmp
521.28	0.72	715	4	4	57	per	con	low	mod	low	nt	cr	nh/0115_nh.bmp
522.00	0.72	716	6	4	37	per	con	mod	mod	mod	tg	ht	wh/0879.bmp
522.72	0.72	717	4	1	47	per	lib	low	mod	low	tg	ht	wh/0529.bmp
523.44	0.72	718	6	4	25	mem	con	mod	mod	mod	nt	ms	nh/0100_nh.bmp
524.16	0.72	719	6	2	57	mem	lib	mod	mod	mod	tg	ms	wh/0801.bmp
524.88	0.72	720	1	2	46	per	con	low	low	low	nt	cr	nh/0682_nh.bmp
525.60	0.72	721	4	2	14	mem	con	mod	mod	mod	nt	ht	nh/0098_nh.bmp
526.32	0.72	722	5	1	67	per	con	mod	mod	mod	nt	fa	nh/0070_nh.bmp
527.04	0.72	723	1	2	73	mem	con	low	low	low	tg	ht	wh/0654.bmp
527.76	0.72	724	5	4	117	mem	lib	mod	mod	mod	nt	ms	nh/0274_nh.bmp
528.48	0.72	725	5	1	69	per	con	mod	mod	mod	nt	cr	nh/0919_nh.bmp
529.20	0.72	726	4	1	4	mem	con	mod	mod	low	tg	ht	wh/0472.bmp
529.92	0.72	727	4	3	56	mem	con	mod	mod	low	tg	ms	wh/0379.bmp
530.64	0.72	728	5	3	12	mem	lib	mod	mod	low	nt	ht	nh/0205_nh.bmp
531.36	0.72	729	5	2	94	per	lib	mod	mod	mod	nt	cr	nh/0896_nh.bmp
532.08	0.72	730	5	1	47	per	lib	low	mod	low	tg	ht	wh/0529.bmp
532.80	0.72	731	3	1	71	per	con	mod	mod	mod	nt	cr	nh/0857_nh.bmp
533.52	0.72	732	5	1	16	mem	con	mod	mod	low	tg	ht	wh/0853.bmp
534.24	0.72	733	5	4	38	per	con	mod	mod	mod	nt	cr	nh/0526_nh.bmp
534.96	0.72	734	4	2	50	mem	lib	mod	mod	mod	nt	ht	nh/0681_nh.bmp
535.68	0.72	735	6	2	16	mem	con	mod	mod	mod	tg	ht	wh/0658.bmp
536.40	0.72	736	6	2	92	per	lib	mod	mod	mod	nt	fa	nh/0984_nh.bmp
537.12	0.72	737	4	4	83	per	lib	mod	mod	mod	tg	ht	wh/0965.bmp
537.84	0.72	738	4	1	71	per	con	mod	mod	mod	nt	cr	nh/0857_nh.bmp
538.56	0.72	739	5	2	14	mem	con	mod	mod	mod	nt	ht	nh/0098_nh.bmp
539.28	0.72	740	5	1	70	per	con	mod	mod	mod	tg	ms	wh/0580.bmp
540.00	0.72	741	5	3	3	mem	lib	mod	mod	low	nt	ht	nh/0455_nh.bmp
540.72	0.72	742	6	1	67	per	con	mod	mod	mod	nt	fa	nh/0070_nh.bmp
541.44	0.72	743	5	2	50	mem	lib	mod	mod	mod	nt	ht	nh/0681_nh.bmp
542.16	0.72	744	6	3	12	mem	lib	mod	mod	low	nt	ht	nh/0205_nh.bmp
542.88	0.72	745	6	1	114	per	con	low	mod	low	tg	ms	wh/0341.bmp
543.60	0.72	746	4	4	92	per	lib	mod	mod	mod	tg	ht	wh/0698.bmp
544.32	0.72	747	6	2	89	per	lib	mod	mod	mod	tg	ht	wh/0955.bmp
545.04	0.72	748	5	4	45	per	con	mod	mod	mod	tg	ht	wh/0600.bmp
545.76	0.72	749	5	1	68	per	con	mod	mod	mod	tg	ht	wh/0878.bmp
546.48	0.72	750	5	4	35	per	con	mod	mod	mod	tg	ht	wh/0596.bmp
547.20	0.72	751	5	1	13	mem	con	mod	mod	low	nt	ms	nh/0233_nh.bmp
547.92	0.72	752	1	3	92	per	lib	mod	low	mod	tg	ms	wh/0659.bmp
548.64	0.72	753	6	4	127	mem	lib	mod	mod	mod	tg	ht	wh/0017.bmp
549.36	0.72	754	1	4	100	mem	lib	low	low	low	tg	ms	wh/0794.bmp
550.08	0.72	755	6	4	87	per	lib	mod	mod	mod	tg	ht	wh/0785.bmp
550.80	0.72	756	4	4	41	per	con	mod	mod	mod	tg	ms	wh/0162.bmp
551.52	0.72	757	5	1	5	mem	con	mod	mod	low	nt	ht	nh/0251_nh.bmp
552.24	0.72	758	6	1	22	mem	lib	mod	mod	low	tg	ht	wh/0766.bmp
552.96	0.72	759	1	1	84	mem	lib	low	low	mod	tg	ht	wh/0311.bmp
553.68	0.72	760	6	2	10	mem	con	mod	mod	mod	nt	ms	nh/0692_nh.bmp
554.40	0.72	761	6	3	11	mem	lib	mod	mod	low	tg	ht	wh/0116.bmp
555.12	0.72	762	6	4	30	mem	con	mod	mod	mod	tg	ms	wh/0942.bmp
555.84	0.72	763	6	4	45	per	con	mod	mod	mod	tg	ht	wh/0600.bmp
556.56	0.72	764	5	3	56	mem	con	mod	mod	low	tg	ms	wh/0379.bmp
557.28	0.72	765	5	4	53	per	con	low	mod	low	tg	ms	wh/0014.bmp
558.00	0.72	766	5	3	62	mem	con	mod	mod	low	nt	ht	nh/0105_nh.bmp
558.72	0.72	767	6	3	53	mem	con	mod	mod	low	nt	ht	nh/0265_nh.bmp
559.44	0.72	768	4	1	15	mem	con	mod	mod	low	nt	ht	nh/0624_nh.bmp
560.16	0.72	769	6	1	41	per	lib	low	mod	low	nt	cr	nh/0997_nh.bmp
560.88	0.72	770	4	1	76	per	con	mod	mod	mod	tg	ht	wh/0287.bmp
561.60	0.72	771	6	4	31	mem	con	mod	mod	mod	tg	ms	wh/0884.bmp
562.32	0.72	772	6	1	69	per	con	mod	mod	mod	nt	cr	nh/0919_nh.bmp
563.04	0.72	773	6	1	42	per	lib	low	mod	low	nt	cr	nh/0377_nh.bmp
563.76	0.72	774	6	3	3	mem	lib	mod	mod	low	nt	ht	nh/0455_nh.bmp
564.48	0.72	775	6	1	70	per	con	mod	mod	mod	tg	ms	wh/0580.bmp
565.20	0.72	776	5	1	33	per	lib	low	mod	low	nt	fa	nh/0597_nh.bmp
565.92	0.72	777	5	1	4	mem	con	mod	mod	low	tg	ht	wh/0472.bmp
566.64	0.72	778	4	1	23	mem	lib	mod	mod	low	nt	ht	nh/0514_nh.bmp
567.36	0.72	779	1	1	95	mem	lib	low	low	mod	nt	ht	nh/0906_nh.bmp
568.08	0.72	780	5	1	125	per	con	low	mod	low	nt	cr	nh/0177_nh.bmp
568.80	0.72	781	1	2	128	per	con	mod	low	mod	tg	ht	wh/0501.bmp
569.52	0.72	782	5	3	52	mem	con	mod	mod	low	tg	ms	wh/0897.bmp
570.24	0.72	783	6	2	93	per	lib	mod	mod	mod	tg	ms	wh/0425.bmp
570.96	0.72	784	5	3	51	mem	con	mod	mod	low	tg	ht	wh/0298.bmp
571.68	0.72	785	5	4	24	mem	con	mod	mod	mod	tg	ms	wh/0679.bmp
572.40	0.72	786	1	4	6	mem	con	low	low	mod	tg	ms	wh/0550.bmp
573.12	0.72	787	5	1	76	per	con	mod	mod	mod	tg	ht	wh/0287.bmp
573.84	0.72	788	5	4	77	per	lib	low	mod	low	tg	ms	wh/0435.bmp
574.56	0.72	789	5	3	49	mem	con	mod	mod	low	tg	ht	wh/0704.bmp
575.28	0.72	790	5	4	124	mem	lib	mod	mod	mod	nt	ht	nh/0405_nh.bmp
576.00	0.72	791	6	4	17	mem	con	mod	mod	mod	nt	ms	nh/0183_nh.bmp
576.72	0.72	792	1	2	33	per	con	low	low	low	nt	fa	nh/0057_nh.bmp
577.44	0.72	793	4	4	91	per	lib	mod	mod	mod	nt	fa	nh/0561_nh.bmp
578.16	0.72	794	1	1	50	mem	con	low	low	mod	nt	ht	nh/0898_nh.bmp
578.88	0.72	795	5	4	91	per	lib	mod	mod	mod	nt	fa	nh/0561_nh.bmp
579.60	0.72	796	6	4	27	mem	con	mod	mod	mod	tg	ht	wh/0637.bmp
580.32	0.72	797	6	1	45	per	lib	low	mod	low	tg	ht	wh/0816.bmp
581.04	0.72	798	6	3	51	mem	con	mod	mod	low	tg	ht	wh/0298.bmp
581.76	0.72	799	5	4	113	mem	lib	mod	mod	mod	tg	ht	wh/0959.bmp
582.48	0.72	800	6	1	33	per	lib	low	mod	low	nt	fa	nh/0597_nh.bmp
583.20	0.72	801	5	1	77	per	con	mod	mod	mod	tg	ht	wh/0847.bmp
583.92	0.72	802	6	4	113	mem	lib	mod	mod	mod	tg	ht	wh/0959.bmp
584.64	0.72	803	6	1	16	mem	con	mod	mod	low	tg	ht	wh/0853.bmp
585.36	0.72	804	6	2	87	per	lib	mod	mod	mod	tg	ht	wh/0001.bmp
586.08	0.72	805	6	4	117	mem	lib	mod	mod	mod	nt	ms	nh/0274_nh.bmp
586.80	0.72	806	6	1	68	per	con	mod	mod	mod	tg	ht	wh/0878.bmp
587.52	0.72	807	6	2	55	mem	lib	mod	mod	mod	tg	ht	wh/0605.bmp
588.24	0.72	808	1	2	115	per	con	mod	low	mod	nt	cr	nh/1017_nh.bmp
588.96	0.72	809	5	2	63	mem	lib	mod	mod	mod	nt	ht	nh/0466_nh.bmp
589.68	0.72	810	5	4	58	per	con	low	mod	low	tg	ms	wh/0178.bmp
590.40	0.72	811	5	4	83	per	lib	mod	mod	mod	tg	ht	wh/0965.bmp
591.12	0.72	812	5	1	15	mem	con	mod	mod	low	nt	ht	nh/0624_nh.bmp
591.84	0.72	813	6	4	35	per	con	mod	mod	mod	tg	ht	wh/0596.bmp
592.56	0.72	814	6	4	24	mem	con	mod	mod	mod	tg	ms	wh/0679.bmp
593.28	0.72	815	1	1	64	mem	con	low	low	mod	nt	ht	nh/0725_nh.bmp
594.00	0.72	816	6	1	77	per	con	mod	mod	mod	tg	ht	wh/0847.bmp
594.72	0.72	817	5	3	7	mem	lib	mod	mod	low	nt	ht	nh/0168_nh.bmp
595.44	0.72	818	5	1	2	mem	con	mod	mod	low	tg	n/a	wh/0769.bmp
596.16	0.72	819	5	2	2	mem	con	mod	mod	mod	tg	ms	wh/0899.bmp
596.88	0.72	820	1	3	31	mem	lib	low	low	mod	tg	ms	wh/0270.bmp
597.60	0.72	821	6	4	67	per	lib	low	mod	low	nt	cr	nh/0392_nh.bmp
598.32	0.72	822	6	2	50	mem	lib	mod	mod	mod	nt	ht	nh/0681_nh.bmp
599.04	0.72	823	5	2	54	mem	lib	mod	mod	mod	nt	ht	nh/0981_nh.bmp
599.76	0.72	824	6	1	13	mem	con	mod	mod	low	nt	ms	nh/0233_nh.bmp
600.48	0.72	825	6	1	29	mem	lib	mod	mod	low	tg	ht	wh/0387.bmp
601.20	0.72	826	6	3	52	mem	con	mod	mod	low	tg	ms	wh/0897.bmp
601.92	0.72	827	1	3	89	per	lib	mod	low	mod	nt	fa	nh/0296_nh.bmp
602.64	0.72	828	6	4	18	mem	con	mod	mod	mod	nt	ht	nh/0473_nh.bmp
603.36	0.72	829	1	4	99	mem	lib	low	low	low	nt	ht	nh/0121_nh.bmp
604.08	0.72	830	6	1	125	per	con	low	mod	low	nt	cr	nh/0177_nh.bmp
604.80	0.72	831	5	1	3	mem	con	mod	mod	low	nt	ht	nh/0836_nh.bmp
605.52	0.72	832	6	2	63	mem	lib	mod	mod	mod	nt	ht	nh/0466_nh.bmp
606.24	0.72	833	5	4	57	per	con	low	mod	low	nt	cr	nh/0115_nh.bmp
606.96	0.72	834	5	2	9	mem	con	mod	mod	mod	nt	ht	nh/0627_nh.bmp
607.68	0.72	835	6	2	96	per	lib	mod	mod	mod	nt	fa	nh/0935_nh.bmp
608.40	0.72	836	6	4	93	per	lib	mod	mod	mod	tg	ht	wh/0463.bmp
609.12	0.72	837	1	1	93	mem	lib	low	low	mod	tg	ht	wh/0367.bmp
609.84	0.72	838	5	2	61	mem	lib	mod	mod	mod	tg	ht	wh/0414.bmp
610.56	0.72	839	6	4	91	per	lib	mod	mod	mod	nt	fa	nh/0561_nh.bmp
611.28	0.72	840	6	1	47	per	lib	low	mod	low	tg	ht	wh/0529.bmp
612.00	0.72	841	6	3	49	mem	con	mod	mod	low	tg	ht	wh/0704.bmp
612.72	0.72	842	5	4	41	per	con	mod	mod	mod	tg	ms	wh/0162.bmp
613.44	0.72	843	1	2	117	per	con	mod	low	mod	tg	ht	wh/0326.bmp
614.16	0.72	844	6	4	118	mem	lib	mod	mod	mod	tg	ht	wh/0975.bmp
614.88	0.72	845	1	3	109	mem	con	low	low	low	tg	ms	wh/0432.bmp
615.60	0.72	846	1	3	96	per	lib	mod	low	mod	tg	ht	wh/0324.bmp
616.32	0.72	847	5	4	92	per	lib	mod	mod	mod	tg	ht	wh/0698.bmp
617.04	0.72	848	6	2	94	per	lib	mod	mod	mod	nt	cr	nh/0896_nh.bmp
617.76	0.72	849	6	4	53	per	con	low	mod	low	tg	ms	wh/0014.bmp
618.48	0.72	850	5	1	23	mem	lib	mod	mod	low	nt	ht	nh/0514_nh.bmp
619.20	0.72	851	5	1	71	per	con	mod	mod	mod	nt	cr	nh/0857_nh.bmp
619.92	0.72	852	6	3	55	mem	con	mod	mod	low	nt	ms	nh/0932_nh.bmp
620.64	0.72	853	6	2	9	mem	con	mod	mod	mod	nt	ht	nh/0627_nh.bmp
621.36	0.72	854	6	2	54	mem	lib	mod	mod	mod	nt	ht	nh/0981_nh.bmp
622.08	0.72	855	6	1	4	mem	con	mod	mod	low	tg	ht	wh/0472.bmp
622.80	0.72	856	6	1	15	mem	con	mod	mod	low	nt	ht	nh/0624_nh.bmp
623.52	0.72	857	6	4	38	per	con	mod	mod	mod	nt	cr	nh/0526_nh.bmp
624.24	0.72	858	6	4	120	mem	lib	mod	mod	mod	nt	ht	nh/0775_nh.bmp
624.96	0.72	859	6	2	2	mem	con	mod	mod	mod	tg	ms	wh/0899.bmp
625.68	0.72	860	6	1	76	per	con	mod	mod	mod	tg	ht	wh/0287.bmp
626.40	0.72	861	1	1	97	per	lib	mod	low	mod	tg	ht	wh/0702.bmp
627.12	0.72	862	5	1	79	per	con	mod	mod	mod	nt	fa	nh/0938_nh.bmp
627.84	0.72	863	6	3	62	mem	con	mod	mod	low	nt	ht	nh/0105_nh.bmp
628.56	0.72	864	6	3	7	mem	lib	mod	mod	low	nt	ht	nh/0168_nh.bmp
629.28	0.72	865	6	1	31	mem	lib	mod	mod	low	nt	ht	nh/0145_nh.bmp
630.00	0.72	866	6	1	5	mem	con	mod	mod	low	nt	ht	nh/0251_nh.bmp
630.72	0.72	867	6	1	3	mem	con	mod	mod	low	nt	ht	nh/0836_nh.bmp
631.44	0.72	868	6	1	25	mem	lib	mod	mod	low	nt	ht	nh/0231_nh.bmp
632.16	0.72	869	6	4	49	per	con	low	mod	low	tg	ht	wh/0649.bmp
632.88	0.72	870	6	4	57	per	con	low	mod	low	nt	cr	nh/0115_nh.bmp
633.60	0.72	871	6	1	2	mem	con	mod	mod	low	tg	n/a	wh/0769.bmp
634.32	0.72	872	5	4	64	per	con	low	mod	low	nt	cr	nh/0040_nh.bmp
635.04	0.72	873	6	1	12	mem	con	mod	mod	low	tg	ht	wh/0573.bmp
635.76	0.72	874	6	2	49	mem	lib	mod	mod	mod	nt	ht	nh/0534_nh.bmp
636.48	0.72	875	6	4	69	per	lib	low	mod	low	tg	ht	wh/0155.bmp
637.20	0.72	876	6	2	14	mem	con	mod	mod	mod	nt	ht	nh/0098_nh.bmp
637.92	0.72	877	6	4	56	per	con	low	mod	low	nt	cr	nh/0027_nh.bmp
638.64	0.72	878	6	4	41	per	con	mod	mod	mod	tg	ms	wh/0162.bmp
639.36	0.72	879	6	2	84	per	lib	mod	mod	mod	tg	ht	wh/0700.bmp
640.08	0.72	880	6	3	56	mem	con	mod	mod	low	tg	ms	wh/0379.bmp
640.80	0.72	881	6	4	61	per	con	low	mod	low	tg	ht	wh/0926.bmp
641.52	0.72	882	1	2	42	per	con	low	low	low	tg	ms	wh/0862.bmp
642.24	0.72	883	6	2	61	mem	lib	mod	mod	mod	tg	ht	wh/0414.bmp
642.96	0.72	884	6	1	43	per	lib	low	mod	low	nt	fa	nh/0019_nh.bmp
643.68	0.72	885	6	4	77	per	lib	low	mod	low	tg	ms	wh/0435.bmp
644.40	0.72	886	6	4	64	per	con	low	mod	low	nt	cr	nh/0040_nh.bmp
645.12	0.72	887	6	4	84	per	lib	mod	mod	mod	nt	cr	nh/0841_nh.bmp
645.84	0.72	888	6	4	58	per	con	low	mod	low	tg	ms	wh/0178.bmp
646.56	0.72	889	6	1	71	per	con	mod	mod	mod	nt	cr	nh/0857_nh.bmp
647.28	0.72	890	6	1	79	per	con	mod	mod	mod	nt	fa	nh/0938_nh.bmp
648.00	0.72	891	6	4	75	per	lib	low	mod	low	nt	fa	nh/0163_nh.bmp
648.72	0.72	892	6	4	92	per	lib	mod	mod	mod	tg	ht	wh/0698.bmp
649.44	0.72	893	6	1	23	mem	lib	mod	mod	low	nt	ht	nh/0514_nh.bmp
650.16	0.72	894	1	3	101	mem	con	low	low	low	tg	ms	wh/0141.bmp
650.88	0.72	895	6	4	124	mem	lib	mod	mod	mod	nt	ht	nh/0405_nh.bmp
651.60	0.72	896	6	4	83	per	lib	mod	mod	mod	tg	ht	wh/0965.bmp
