onset	duration	trial	pres	ts_blk	ts_trl	task	crit	disc	mem_disc	per_disc	per_type	accuracy	stim_file
7.20	0.72	1	1	4	121	per	con	low	mod	low	tg	ht	wh/0661.bmp
7.92	0.72	2	1	2	59	mem	con	mod	mod	mod	nt	ms	nh/0427_nh.bmp
8.64	0.72	3	1	3	66	mem	con	mod	mod	low	tg	ht	wh/0882.bmp
9.36	0.72	4	1	1	70	mem	con	mod	mod	low	nt	ms	nh/0400_nh.bmp
10.08	0.72	5	2	4	121	per	con	low	mod	low	tg	ht	wh/0661.bmp
10.80	0.72	6	1	1	7	per	con	mod	mod	mod	nt	cr	nh/0358_nh.bmp
11.52	0.72	7	1	2	3	per	lib	mod	low	mod	nt	cr	nh/0409_nh.bmp
12.24	0.72	8	1	3	38	mem	lib	mod	mod	low	nt	ms	nh/0554_nh.bmp
12.96	0.72	9	1	3	71	mem	con	mod	mod	low	nt	ht	nh/0259_nh.bmp
13.68	0.72	10	1	2	109	per	lib	low	low	low	nt	fa	nh/0171_nh.bmp
14.40	0.72	11	1	4	9	per	lib	low	mod	low	tg	ht	wh/0444.bmp
15.12	0.72	12	1	2	82	mem	lib	mod	mod	mod	nt	ms	nh/0479_nh.bmp
15.84	0.72	13	1	1	12	per	con	mod	mod	mod	tg	ms	wh/0809.bmp
16.56	0.72	14	1	3	55	mem	lib	low	low	low	tg	ht	wh/0169.bmp
17.28	0.72	15	1	4	97	mem	con	mod	mod	mod	nt	ht	nh/0097_nh.bmp
18.00	0.72	16	1	2	120	per	con	mod	low	mod	tg	ht	wh/0004.bmp
18.72	0.72	17	1	1	2	per	con	mod	mod	mod	tg	ht	wh/0861.bmp
19.44	0.72	18	1	4	45	mem	con	low	low	low	tg	ht	wh/0471.bmp
20.16	0.72	19	1	4	106	mem	con	mod	mod	mod	tg	ht	wh/0333.bmp
20.88	0.72	20	1	4	6	per	lib	low	mod	low	tg	ms	wh/0415.bmp
21.60	0.72	21	1	1	57	per	lib	mod	mod	mod	tg	ms	wh/0538.bmp
22.32	0.72	22	1	3	23	per	lib	mod	low	mod	tg	ms	wh/0991.bmp
23.04	0.72	23	1	4	65	mem	lib	mod	mod	mod	nt	ht	nh/0279_nh.bmp
23.76	0.72	24	1	3	68	mem	con	mod	mod	low	tg	ht	wh/0302.bmp
24.48	0.72	25	1	2	64	mem	con	mod	mod	mod	tg	ms	wh/0365.bmp
25.20	0.72	26	1	1	125	mem	lib	mod	mod	low	tg	ms	wh/0246.bmp
25.92	0.72	27	1	3	40	mem	lib	mod	mod	low	tg	ms	wh/0412.bmp
26.64	0.72	28	1	1	73	mem	con	mod	mod	low	tg	ht	wh/0132.bmp
27.36	0.72	29	1	2	42	mem	lib	low	low	low	tg	ms	wh/1003.bmp
28.08	0.72	30	1	2	51	mem	con	mod	mod	mod	tg	ht	wh/0049.bmp
28.80	0.72	31	2	4	106	mem	con	mod	mod	mod	tg	ht	wh/0333.bmp
29.52	0.72	32	2	1	2	per	con	mod	mod	mod	tg	ht	wh/0861.bmp
30.24	0.72	33	1	1	111	per	lib	low	mod	low	tg	ht	wh/0291.bmp
30.96	0.72	34	1	2	50	mem	con	mod	mod	mod	tg	ht	wh/0931.bmp
31.68	0.72	35	1	4	113	per	con	low	mod	low	tg	ms	wh/0511.bmp
32.40	0.72	36	1	3	35	mem	lib	mod	mod	low	tg	ht	wh/0263.bmp
33.12	0.72	37	1	3	16	per	con	mod	mod	mod	tg	ms	wh/0983.bmp
33.84	0.72	38	1	1	34	per	con	low	mod	low	tg	ms	wh/0683.bmp
34.56	0.72	39	1	2	35	mem	lib	low	low	low	tg	ms	wh/0824.bmp
35.28	0.72	40	1	3	15	per	con	mod	mod	mod	nt	cr	nh/0348_nh.bmp
36.00	0.72	41	1	4	84	per	con	mod	low	mod	nt	cr	nh/0813_nh.bmp
36.72	0.72	42	1	4	99	mem	con	mod	mod	mod	tg	ms	wh/0799.bmp
37.44	0.72	43	2	3	40	mem	lib	mod	mod	low	tg	ms	wh/0412.bmp
38.16	0.72	44	1	1	11	per	con	mod	mod	mod	tg	ht	wh/0039.bmp
38.88	0.72	45	1	1	14	per	con	mod	mod	mod	nt	cr	nh/0344_nh.bmp
39.60	0.72	46	2	3	15	per	con	mod	mod	mod	nt	cr	nh/0348_nh.bmp
40.32	0.72	47	1	3	70	mem	con	mod	mod	low	tg	ht	wh/0496.bmp
41.04	0.72	48	1	2	122	per	con	mod	low	mod	tg	ht	wh/0230.bmp
41.76	0.72	49	1	4	98	mem	con	mod	mod	mod	nt	ht	nh/0331_nh.bmp
42.48	0.72	50	1	1	69	mem	con	mod	mod	low	tg	ht	wh/0454.bmp
43.20	0.72	51	1	2	81	mem	lib	mod	mod	mod	tg	ms	wh/0229.bmp
43.92	0.72	52	1	4	128	per	con	low	mod	low	nt	cr	nh/0386_nh.bmp
44.64	0.72	53	1	3	83	per	lib	low	low	low	nt	fa	nh/0107_nh.bmp
45.36	0.72	54	1	1	5	per	con	mod	mod	mod	nt	cr	nh/0834_nh.bmp
46.08	0.72	55	1	4	13	per	lib	low	mod	low	nt	cr	nh/0007_nh.bmp
46.80	0.72	56	1	2	16	per	lib	mod	low	mod	tg	ms	wh/0969.bmp
47.52	0.72	57	1	2	55	mem	con	mod	mod	mod	nt	ms	nh/0061_nh.bmp
48.24	0.72	58	2	3	68	mem	con	mod	mod	low	tg	ht	wh/0302.bmp
48.96	0.72	59	1	4	102	mem	con	mod	mod	mod	tg	ms	wh/0628.bmp
49.68	0.72	60	1	3	37	mem	lib	mod	mod	low	tg	ht	wh/0459.bmp
50.40	0.72	61	1	4	78	mem	lib	mod	mod	mod	tg	ht	wh/0961.bmp
51.12	0.72	62	1	1	35	per	con	low	mod	low	nt	cr	nh/0643_nh.bmp
51.84	0.72	63	2	3	70	mem	con	mod	mod	low	tg	ht	wh/0496.bmp
52.56	0.72	64	1	2	23	mem	con	low	low	low	tg	ms	wh/0808.bmp
53.28	0.72	65	1	3	69	mem	con	mod	mod	low	tg	ms	wh/0212.bmp
54.00	0.72	66	1	1	45	per	con	low	mod	low	nt	cr	nh/0757_nh.bmp
54.72	0.72	67	1	4	30	mem	lib	low	low	mod	nt	ht	nh/0754_nh.bmp
55.44	0.72	68	1	2	39	mem	lib	low	low	low	nt	ms	nh/0243_nh.bmp
56.16	0.72	69	1	1	78	mem	con	mod	mod	low	nt	ht	nh/1000_nh.bmp
56.88	0.72	70	1	4	52	per	lib	mod	mod	mod	nt	fa	nh/1006_nh.bmp
57.60	0.72	71	1	3	14	per	con	mod	mod	mod	nt	cr	nh/0674_nh.bmp
58.32	0.72	72	1	4	117	per	con	low	mod	low	tg	ms	wh/0988.bmp
59.04	0.72	73	2	2	82	mem	lib	mod	mod	mod	nt	ms	nh/0479_nh.bmp
59.76	0.72	74	2	4	6	per	lib	low	mod	low	tg	ms	wh/0415.bmp
60.48	0.72	75	2	4	13	per	lib	low	mod	low	nt	cr	nh/0007_nh.bmp
61.20	0.72	76	2	4	102	mem	con	mod	mod	mod	tg	ms	wh/0628.bmp
61.92	0.72	77	1	4	50	per	lib	mod	mod	mod	tg	ms	wh/0901.bmp
62.64	0.72	78	2	1	57	per	lib	mod	mod	mod	tg	ms	wh/0538.bmp
63.36	0.72	79	1	4	119	per	con	low	mod	low	tg	ht	wh/0124.bmp
64.08	0.72	80	3	1	57	per	lib	mod	mod	mod	tg	ms	wh/0538.bmp
64.80	0.72	81	3	3	68	mem	con	mod	mod	low	tg	ht	wh/0302.bmp
65.52	0.72	82	1	1	56	per	lib	mod	mod	mod	tg	ht	wh/0705.bmp
66.24	0.72	83	4	1	57	per	lib	mod	mod	mod	tg	ms	wh/0538.bmp
66.96	0.72	84	2	1	11	per	con	mod	mod	mod	tg	ht	wh/0039.bmp
67.68	0.72	85	2	3	71	mem	con	mod	mod	low	nt	ht	nh/0259_nh.bmp
68.40	0.72	86	1	1	41	per	con	low	mod	low	nt	cr	nh/0067_nh.bmp
69.12	0.72	87	1	2	7	per	lib	mod	low	mod	nt	cr	nh/0474_nh.bmp
69.84	0.72	88	1	3	110	per	con	low	low	low	tg	ms	wh/0110.bmp
70.56	0.72	89	2	4	119	per	con	low	mod	low	tg	ht	wh/0124.bmp
71.28	0.72	90	2	1	70	mem	con	mod	mod	low	nt	ms	nh/0400_nh.bmp
72.00	0.72	91	1	4	90	per	con	mod	low	mod	nt	cr	nh/0502_nh.bmp
72.72	0.72	92	1	1	66	mem	con	mod	mod	low	tg	ht	wh/0641.bmp
73.44	0.72	93	2	1	12	per	con	mod	mod	mod	tg	ms	wh/0809.bmp
74.16	0.72	94	1	2	91	mem	lib	mod	mod	mod	nt	ht	nh/0806_nh.bmp
74.88	0.72	95	1	4	61	per	lib	mod	mod	mod	nt	cr	nh/1010_nh.bmp
75.60	0.72	96	2	1	66	mem	con	mod	mod	low	tg	ht	wh/0641.bmp
76.32	0.72	97	1	3	2	per	con	mod	mod	mod	nt	cr	nh/0583_nh.bmp
77.04	0.72	98	1	4	107	mem	con	mod	mod	mod	nt	ht	nh/0313_nh.bmp
77.76	0.72	99	2	1	69	mem	con	mod	mod	low	tg	ht	wh/0454.bmp
78.48	0.72	100	1	3	93	per	lib	low	low	low	nt	cr	nh/0828_nh.bmp
79.20	0.72	101	2	2	64	mem	con	mod	mod	mod	tg	ms	wh/0365.bmp
79.92	0.72	102	1	2	92	mem	lib	mod	mod	mod	nt	ms	nh/0592_nh.bmp
80.64	0.72	103	1	2	83	mem	lib	mod	mod	mod	tg	ht	wh/0448.bmp
81.36	0.72	104	1	4	27	mem	lib	low	low	mod	nt	ms	nh/0567_nh.bmp
82.08	0.72	105	3	1	70	mem	con	mod	mod	low	nt	ms	nh/0400_nh.bmp
82.80	0.72	106	1	1	46	per	con	low	mod	low	tg	ms	wh/0976.bmp
83.52	0.72	107	1	2	93	mem	lib	mod	mod	mod	tg	ht	wh/0664.bmp
84.24	0.72	108	1	4	35	mem	con	low	low	low	nt	ms	nh/0375_nh.bmp
84.96	0.72	109	2	4	52	per	lib	mod	mod	mod	nt	fa	nh/1006_nh.bmp
85.68	0.72	110	1	2	79	per	con	low	low	low	nt	cr	nh/0252_nh.bmp
86.40	0.72	111	1	1	38	per	con	low	mod	low	nt	cr	nh/0174_nh.bmp
87.12	0.72	112	2	4	78	mem	lib	mod	mod	mod	tg	ht	wh/0961.bmp
87.84	0.72	113	1	1	120	mem	lib	mod	mod	low	tg	ht	wh/0166.bmp
88.56	0.72	114	1	3	9	per	con	mod	mod	mod	tg	ms	wh/0104.bmp
89.28	0.72	115	3	4	13	per	lib	low	mod	low	nt	cr	nh/0007_nh.bmp
90.00	0.72	116	1	4	15	per	lib	low	mod	low	nt	cr	nh/0791_nh.bmp
90.72	0.72	117	1	1	63	per	lib	mod	mod	mod	nt	cr	nh/0445_nh.bmp
91.44	0.72	118	1	2	19	mem	con	low	low	low	tg	ms	wh/0127.bmp
92.16	0.72	119	1	3	30	per	lib	mod	low	mod	nt	cr	nh/0886_nh.bmp
92.88	0.72	120	1	4	74	mem	lib	mod	mod	mod	nt	ht	nh/0665_nh.bmp
93.60	0.72	121	1	4	60	per	lib	mod	mod	mod	tg	ht	wh/0320.bmp
94.32	0.72	122	1	1	55	per	lib	mod	mod	mod	tg	ht	wh/0151.bmp
95.04	0.72	123	1	2	105	per	lib	low	low	low	tg	ms	wh/0026.bmp
95.76	0.72	124	1	1	21	mem	lib	low	low	mod	tg	ht	wh/0317.bmp
96.48	0.72	125	1	4	111	mem	con	mod	mod	mod	tg	ht	wh/0562.bmp
97.20	0.72	126	1	3	13	per	con	mod	mod	mod	tg	ht	wh/0761.bmp
97.92	0.72	127	4	1	70	mem	con	mod	mod	low	nt	ms	nh/0400_nh.bmp
98.64	0.72	128	1	3	80	mem	con	mod	mod	low	nt	ht	nh/0672_nh.bmp
99.36	0.72	129	1	1	67	mem	con	mod	mod	low	nt	ht	nh/0283_nh.bmp
100.08	0.72	130	2	3	37	mem	lib	mod	mod	low	tg	ht	wh/0459.bmp
100.80	0.72	131	1	3	32	per	lib	mod	low	mod	tg	ms	wh/0944.bmp
101.52	0.72	132	1	1	10	per	con	mod	mod	mod	nt	cr	nh/0759_nh.bmp
102.24	0.72	133	1	2	124	per	con	mod	low	mod	nt	cr	nh/0872_nh.bmp
102.96	0.72	134	1	3	47	mem	lib	mod	mod	low	nt	ht	nh/0438_nh.bmp
103.68	0.72	135	1	3	27	per	lib	mod	low	mod	nt	cr	nh/0858_nh.bmp
104.40	0.72	136	2	1	46	per	con	low	mod	low	tg	ms	wh/0976.bmp
105.12	0.72	137	1	1	116	mem	lib	mod	mod	low	nt	ms	nh/0509_nh.bmp
105.84	0.72	138	1	1	37	per	con	low	mod	low	tg	ms	wh/0792.bmp
106.56	0.72	139	2	2	93	mem	lib	mod	mod	mod	tg	ht	wh/0664.bmp
107.28	0.72	140	2	4	50	per	lib	mod	mod	mod	tg	ms	wh/0901.bmp
108.00	0.72	141	2	1	10	per	con	mod	mod	mod	nt	cr	nh/0759_nh.bmp
108.72	0.72	142	1	3	34	mem	lib	mod	mod	low	tg	ms	wh/0293.bmp
109.44	0.72	143	1	4	101	mem	con	mod	mod	mod	nt	ht	nh/0359_nh.bmp
110.16	0.72	144	2	1	63	per	lib	mod	mod	mod	nt	cr	nh/0445_nh.bmp
110.88	0.72	145	1	1	90	mem	con	low	low	mod	tg	ms	wh/0993.bmp
111.60	0.72	146	2	4	107	mem	con	mod	mod	mod	nt	ht	nh/0313_nh.bmp
112.32	0.72	147	3	4	78	mem	lib	mod	mod	mod	tg	ht	wh/0961.bmp
113.04	0.72	148	2	3	80	mem	con	mod	mod	low	nt	ht	nh/0672_nh.bmp
113.76	0.72	149	1	2	62	mem	con	mod	mod	mod	nt	ms	nh/0072_nh.bmp
114.48	0.72	150	1	1	77	mem	con	mod	mod	low	nt	ht	nh/0195_nh.bmp
115.20	0.72	151	1	4	79	mem	lib	mod	mod	mod	nt	ht	nh/0925_nh.bmp
115.92	0.72	152	1	4	120	per	con	low	mod	low	nt	cr	nh/0323_nh.bmp
116.64	0.72	153	3	1	66	mem	con	mod	mod	low	tg	ht	wh/0641.bmp
117.36	0.72	154	1	4	63	per	lib	mod	mod	mod	tg	ms	wh/0071.bmp
118.08	0.72	155	2	3	47	mem	lib	mod	mod	low	nt	ht	nh/0438_nh.bmp
118.80	0.72	156	3	4	119	per	con	low	mod	low	tg	ht	wh/0124.bmp
119.52	0.72	157	2	4	111	mem	con	mod	mod	mod	tg	ht	wh/0562.bmp
120.24	0.72	158	1	1	60	per	lib	mod	mod	mod	nt	cr	nh/0282_nh.bmp
120.96	0.72	159	1	4	116	per	con	low	mod	low	nt	cr	nh/0203_nh.bmp
121.68	0.72	160	1	4	82	per	con	mod	low	mod	nt	cr	nh/0555_nh.bmp
122.40	0.72	161	4	3	68	mem	con	mod	mod	low	tg	ht	wh/0302.bmp
123.12	0.72	162	2	2	50	mem	con	mod	mod	mod	tg	ht	wh/0931.bmp
123.84	0.72	163	2	1	77	mem	con	mod	mod	low	nt	ht	nh/0195_nh.bmp
124.56	0.72	164	1	3	48	mem	lib	mod	mod	low	nt	ht	nh/0914_nh.bmp
125.28	0.72	165	2	4	9	per	lib	low	mod	low	tg	ht	wh/0444.bmp
126.00	0.72	166	1	4	53	per	lib	mod	mod	mod	nt	cr	nh/0487_nh.bmp
126.72	0.72	167	3	3	47	mem	lib	mod	mod	low	nt	ht	nh/0438_nh.bmp
127.44	0.72	168	5	1	70	mem	con	mod	mod	low	nt	ms	nh/0400_nh.bmp
128.16	0.72	169	1	1	123	mem	lib	mod	mod	low	tg	ms	wh/0410.bmp
128.88	0.72	170	1	1	53	per	lib	mod	mod	mod	tg	ht	wh/0343.bmp
129.60	0.72	171	3	1	12	per	con	mod	mod	mod	tg	ms	wh/0809.bmp
130.32	0.72	172	1	4	122	per	con	low	mod	low	nt	cr	nh/0368_nh.bmp
131.04	0.72	173	3	3	15	per	con	mod	mod	mod	nt	cr	nh/0348_nh.bmp
131.76	0.72	174	1	1	110	per	lib	low	mod	low	nt	cr	nh/0236_nh.bmp
132.48	0.72	175	2	4	63	per	lib	mod	mod	mod	tg	ms	wh/0071.bmp
133.20	0.72	176	1	3	99	per	con	low	low	low	nt	cr	nh/0167_nh.bmp
133.92	0.72	177	1	4	22	mem	lib	low	low	mod	nt	ms	nh/0891_nh.bmp
134.64	0.72	178	2	3	69	mem	con	mod	mod	low	tg	ms	wh/0212.bmp
135.36	0.72	179	1	3	75	mem	con	mod	mod	low	nt	ht	nh/0422_nh.bmp
136.08	0.72	180	2	2	62	mem	con	mod	mod	mod	nt	ms	nh/0072_nh.bmp
136.80	0.72	181	2	4	99	mem	con	mod	mod	mod	tg	ms	wh/0799.bmp
137.52	0.72	182	1	1	107	per	lib	low	mod	low	nt	cr	nh/0798_nh.bmp
138.24	0.72	183	2	4	53	per	lib	mod	mod	mod	nt	cr	nh/0487_nh.bmp
138.96	0.72	184	3	1	69	mem	con	mod	mod	low	tg	ht	wh/0454.bmp
139.68	0.72	185	2	1	120	mem	lib	mod	mod	low	tg	ht	wh/0166.bmp
140.40	0.72	186	1	2	72	per	con	low	low	low	nt	fa	nh/0271_nh.bmp
141.12	0.72	187	1	1	58	per	lib	mod	mod	mod	nt	cr	nh/0490_nh.bmp
141.84	0.72	188	2	3	34	mem	lib	mod	mod	low	tg	ms	wh/0293.bmp
142.56	0.72	189	1	2	58	mem	con	mod	mod	mod	nt	ms	nh/0943_nh.bmp
143.28	0.72	190	1	2	36	mem	lib	low	low	low	nt	ht	nh/0276_nh.bmp
144.00	0.72	191	3	4	9	per	lib	low	mod	low	tg	ht	wh/0444.bmp
144.72	0.72	192	1	1	109	per	lib	low	mod	low	nt	cr	nh/0615_nh.bmp
145.44	0.72	193	2	4	128	per	con	low	mod	low	nt	cr	nh/0386_nh.bmp
146.16	0.72	194	2	4	61	per	lib	mod	mod	mod	nt	cr	nh/1010_nh.bmp
146.88	0.72	195	1	4	72	mem	lib	mod	mod	mod	tg	ht	wh/0738.bmp
147.60	0.72	196	4	1	66	mem	con	mod	mod	low	tg	ht	wh/0641.bmp
148.32	0.72	197	1	3	124	mem	con	low	low	mod	nt	ms	nh/0811_nh.bmp
149.04	0.72	198	2	3	75	mem	con	mod	mod	low	nt	ht	nh/0422_nh.bmp
149.76	0.72	199	1	4	3	per	lib	low	mod	low	nt	cr	nh/1013_nh.bmp
150.48	0.72	200	1	4	71	mem	lib	mod	mod	mod	tg	ht	wh/0137.bmp
151.20	0.72	201	2	1	78	mem	con	mod	mod	low	nt	ht	nh/1000_nh.bmp
151.92	0.72	202	3	4	107	mem	con	mod	mod	mod	nt	ht	nh/0313_nh.bmp
152.64	0.72	203	2	1	110	per	lib	low	mod	low	nt	cr	nh/0236_nh.bmp
153.36	0.72	204	2	4	79	mem	lib	mod	mod	mod	nt	ht	nh/0925_nh.bmp
154.08	0.72	205	2	1	111	per	lib	low	mod	low	tg	ht	wh/0291.bmp
154.80	0.72	206	4	1	69	mem	con	mod	mod	low	tg	ht	wh/0454.bmp
155.52	0.72	207	1	1	8	per	con	mod	mod	mod	tg	ht	wh/0477.bmp
156.24	0.72	208	1	2	95	mem	lib	mod	mod	mod	tg	ht	wh/0895.bmp
156.96	0.72	209	3	4	111	mem	con	mod	mod	mod	tg	ht	wh/0562.bmp
157.68	0.72	210	3	2	64	mem	con	mod	mod	mod	tg	ms	wh/0365.bmp
158.40	0.72	211	2	3	38	mem	lib	mod	mod	low	nt	ms	nh/0554_nh.bmp
159.12	0.72	212	3	4	102	mem	con	mod	mod	mod	tg	ms	wh/0628.bmp
159.84	0.72	213	1	3	33	mem	lib	mod	mod	low	nt	ht	nh/0765_nh.bmp
160.56	0.72	214	4	4	78	mem	lib	mod	mod	mod	tg	ht	wh/0961.bmp
161.28	0.72	215	2	1	73	mem	con	mod	mod	low	tg	ht	wh/0132.bmp
162.00	0.72	216	1	4	57	per	lib	mod	mod	mod	nt	cr	nh/0576_nh.bmp
162.72	0.72	217	1	4	38	mem	con	low	low	low	tg	ms	wh/0987.bmp
163.44	0.72	218	1	1	119	mem	lib	mod	mod	low	nt	ht	nh/0575_nh.bmp
164.16	0.72	219	3	1	77	mem	con	mod	mod	low	nt	ht	nh/0195_nh.bmp
164.88	0.72	220	4	4	111	mem	con	mod	mod	mod	tg	ht	wh/0562.bmp
165.60	0.72	221	2	3	48	mem	lib	mod	mod	low	nt	ht	nh/0914_nh.bmp
166.32	0.72	222	2	4	117	per	con	low	mod	low	tg	ms	wh/0988.bmp
167.04	0.72	223	1	4	76	mem	lib	mod	mod	mod	nt	ht	nh/0645_nh.bmp
167.76	0.72	224	2	4	65	mem	lib	mod	mod	mod	nt	ht	nh/0279_nh.bmp
168.48	0.72	225	2	3	9	per	con	mod	mod	mod	tg	ms	wh/0104.bmp
169.20	0.72	226	2	1	107	per	lib	low	mod	low	nt	cr	nh/0798_nh.bmp
169.92	0.72	227	3	1	46	per	con	low	mod	low	tg	ms	wh/0976.bmp
170.64	0.72	228	1	1	52	per	lib	mod	mod	mod	nt	cr	nh/0753_nh.bmp
171.36	0.72	229	2	1	119	mem	lib	mod	mod	low	nt	ht	nh/0575_nh.bmp
172.08	0.72	230	1	2	14	per	lib	mod	low	mod	tg	ms	wh/0620.bmp
172.80	0.72	231	2	1	123	mem	lib	mod	mod	low	tg	ms	wh/0410.bmp
173.52	0.72	232	4	4	107	mem	con	mod	mod	mod	nt	ht	nh/0313_nh.bmp
174.24	0.72	233	2	2	83	mem	lib	mod	mod	mod	tg	ht	wh/0448.bmp
174.96	0.72	234	2	3	2	per	con	mod	mod	mod	nt	cr	nh/0583_nh.bmp
175.68	0.72	235	2	4	98	mem	con	mod	mod	mod	nt	ht	nh/0331_nh.bmp
176.40	0.72	236	2	4	60	per	lib	mod	mod	mod	tg	ht	wh/0320.bmp
177.12	0.72	237	3	3	9	per	con	mod	mod	mod	tg	ms	wh/0104.bmp
177.84	0.72	238	1	1	115	mem	lib	mod	mod	low	nt	ms	nh/0081_nh.bmp
178.56	0.72	239	3	4	52	per	lib	mod	mod	mod	nt	fa	nh/1006_nh.bmp
179.28	0.72	240	3	4	53	per	lib	mod	mod	mod	nt	cr	nh/0487_nh.bmp
180.00	0.72	241	4	4	52	per	lib	mod	mod	mod	nt	fa	nh/1006_nh.bmp
180.72	0.72	242	1	3	116	mem	con	low	low	mod	nt	ms	nh/0917_nh.bmp
181.44	0.72	243	1	4	68	mem	lib	mod	mod	mod	tg	ms	wh/0796.bmp
182.16	0.72	244	2	3	66	mem	con	mod	mod	low	tg	ht	wh/0882.bmp
182.88	0.72	245	1	4	5	per	lib	low	mod	low	nt	cr	nh/0494_nh.bmp
183.60	0.72	246	3	3	66	mem	con	mod	mod	low	tg	ht	wh/0882.bmp
184.32	0.72	247	2	3	33	mem	lib	mod	mod	low	nt	ht	nh/0765_nh.bmp
185.04	0.72	248	1	1	100	per	lib	low	mod	low	tg	ms	wh/0390.bmp
185.76	0.72	249	5	4	111	mem	con	mod	mod	mod	tg	ht	wh/0562.bmp
186.48	0.72	250	2	2	91	mem	lib	mod	mod	mod	nt	ht	nh/0806_nh.bmp
187.20	0.72	251	1	1	112	per	lib	low	mod	low	tg	ms	wh/0523.bmp
187.92	0.72	252	2	1	5	per	con	mod	mod	mod	nt	cr	nh/0834_nh.bmp
188.64	0.72	253	2	4	120	per	con	low	mod	low	nt	cr	nh/0323_nh.bmp
189.36	0.72	254	4	4	53	per	lib	mod	mod	mod	nt	cr	nh/0487_nh.bmp
190.08	0.72	255	2	1	109	per	lib	low	mod	low	nt	cr	nh/0615_nh.bmp
190.80	0.72	256	3	2	50	mem	con	mod	mod	mod	tg	ht	wh/0931.bmp
191.52	0.72	257	2	1	8	per	con	mod	mod	mod	tg	ht	wh/0477.bmp
192.24	0.72	258	3	3	37	mem	lib	mod	mod	low	tg	ht	wh/0459.bmp
192.96	0.72	259	1	3	6	per	con	mod	mod	mod	tg	ht	wh/0413.bmp
193.68	0.72	260	2	3	13	per	con	mod	mod	mod	tg	ht	wh/0761.bmp
194.40	0.72	261	2	1	55	per	lib	mod	mod	mod	tg	ht	wh/0151.bmp
195.12	0.72	262	1	2	65	per	con	low	low	low	tg	ms	wh/0565.bmp
195.84	0.72	263	1	4	83	per	con	mod	low	mod	tg	ht	wh/0470.bmp
196.56	0.72	264	3	1	78	mem	con	mod	mod	low	nt	ht	nh/1000_nh.bmp
197.28	0.72	265	1	1	75	mem	con	mod	mod	low	tg	ht	wh/0703.bmp
198.00	0.72	266	3	1	123	mem	lib	mod	mod	low	tg	ms	wh/0410.bmp
198.72	0.72	267	2	1	75	mem	con	mod	mod	low	tg	ht	wh/0703.bmp
199.44	0.72	268	2	1	56	per	lib	mod	mod	mod	tg	ht	wh/0705.bmp
200.16	0.72	269	4	1	77	mem	con	mod	mod	low	nt	ht	nh/0195_nh.bmp
200.88	0.72	270	2	1	112	per	lib	low	mod	low	tg	ms	wh/0523.bmp
201.60	0.72	271	3	3	40	mem	lib	mod	mod	low	tg	ms	wh/0412.bmp
202.32	0.72	272	4	3	40	mem	lib	mod	mod	low	tg	ms	wh/0412.bmp
203.04	0.72	273	2	2	81	mem	lib	mod	mod	mod	tg	ms	wh/0229.bmp
203.76	0.72	274	3	1	120	mem	lib	mod	mod	low	tg	ht	wh/0166.bmp
204.48	0.72	275	1	1	87	mem	con	low	low	mod	nt	ht	nh/0670_nh.bmp
205.20	0.72	276	4	2	64	mem	con	mod	mod	mod	tg	ms	wh/0365.bmp
205.92	0.72	277	3	1	112	per	lib	low	mod	low	tg	ms	wh/0523.bmp
206.64	0.72	278	1	4	16	per	lib	low	mod	low	tg	ms	wh/0312.bmp
207.36	0.72	279	3	3	75	mem	con	mod	mod	low	nt	ht	nh/0422_nh.bmp
208.08	0.72	280	2	2	51	mem	con	mod	mod	mod	tg	ht	wh/0049.bmp
208.80	0.72	281	2	2	55	mem	con	mod	mod	mod	nt	ms	nh/0061_nh.bmp
209.52	0.72	282	2	4	15	per	lib	low	mod	low	nt	cr	nh/0791_nh.bmp
210.24	0.72	283	1	4	88	per	con	mod	low	mod	tg	ms	wh/0208.bmp
210.96	0.72	284	3	4	128	per	con	low	mod	low	nt	cr	nh/0386_nh.bmp
211.68	0.72	285	3	4	15	per	lib	low	mod	low	nt	cr	nh/0791_nh.bmp
212.40	0.72	286	2	1	52	per	lib	mod	mod	mod	nt	cr	nh/0753_nh.bmp
213.12	0.72	287	2	1	38	per	con	low	mod	low	nt	cr	nh/0174_nh.bmp
213.84	0.72	288	1	1	23	mem	lib	low	low	mod	nt	ms	nh/0498_nh.bmp
214.56	0.72	289	3	1	73	mem	con	mod	mod	low	tg	ht	wh/0132.bmp
215.28	0.72	290	2	1	7	per	con	mod	mod	mod	nt	cr	nh/0358_nh.bmp
216.00	0.72	291	3	4	121	per	con	low	mod	low	tg	ht	wh/0661.bmp
216.72	0.72	292	3	4	120	per	con	low	mod	low	nt	cr	nh/0323_nh.bmp
217.44	0.72	293	4	1	12	per	con	mod	mod	mod	tg	ms	wh/0809.bmp
218.16	0.72	294	1	1	29	mem	lib	low	low	mod	nt	ms	nh/0826_nh.bmp
218.88	0.72	295	3	1	5	per	con	mod	mod	mod	nt	cr	nh/0834_nh.bmp
219.60	0.72	296	3	2	82	mem	lib	mod	mod	mod	nt	ms	nh/0479_nh.bmp
220.32	0.72	297	2	4	57	per	lib	mod	mod	mod	nt	cr	nh/0576_nh.bmp
221.04	0.72	298	2	1	100	per	lib	low	mod	low	tg	ms	wh/0390.bmp
221.76	0.72	299	3	1	7	per	con	mod	mod	mod	nt	cr	nh/0358_nh.bmp
222.48	0.72	300	2	1	41	per	con	low	mod	low	nt	cr	nh/0067_nh.bmp
223.20	0.72	301	3	2	51	mem	con	mod	mod	mod	tg	ht	wh/0049.bmp
223.92	0.72	302	1	4	31	mem	lib	low	low	mod	tg	ht	wh/0003.bmp
224.64	0.72	303	4	4	120	per	con	low	mod	low	nt	cr	nh/0323_nh.bmp
225.36	0.72	304	4	4	128	per	con	low	mod	low	nt	cr	nh/0386_nh.bmp
226.08	0.72	305	2	4	101	mem	con	mod	mod	mod	nt	ht	nh/0359_nh.bmp
226.80	0.72	306	2	1	35	per	con	low	mod	low	nt	cr	nh/0643_nh.bmp
227.52	0.72	307	3	1	55	per	lib	mod	mod	mod	tg	ht	wh/0151.bmp
228.24	0.72	308	1	2	30	mem	con	low	low	low	tg	ms	wh/0492.bmp
228.96	0.72	309	3	1	10	per	con	mod	mod	mod	nt	cr	nh/0759_nh.bmp
229.68	0.72	310	3	2	91	mem	lib	mod	mod	mod	nt	ht	nh/0806_nh.bmp
230.40	0.72	311	1	2	86	mem	lib	mod	mod	mod	nt	ht	nh/0689_nh.bmp
231.12	0.72	312	1	3	5	per	con	mod	mod	mod	nt	cr	nh/0970_nh.bmp
231.84	0.72	313	3	1	11	per	con	mod	mod	mod	tg	ht	wh/0039.bmp
232.56	0.72	314	2	1	14	per	con	mod	mod	mod	nt	cr	nh/0344_nh.bmp
233.28	0.72	315	1	3	49	mem	lib	low	low	low	tg	ht	wh/0989.bmp
234.00	0.72	316	2	1	115	mem	lib	mod	mod	low	nt	ms	nh/0081_nh.bmp
234.72	0.72	317	3	2	62	mem	con	mod	mod	mod	nt	ms	nh/0072_nh.bmp
235.44	0.72	318	1	4	96	per	con	mod	low	mod	tg	ms	wh/0467.bmp
236.16	0.72	319	1	3	77	mem	con	mod	mod	low	nt	ht	nh/0671_nh.bmp
236.88	0.72	320	3	4	61	per	lib	mod	mod	mod	nt	cr	nh/1010_nh.bmp
237.60	0.72	321	3	4	106	mem	con	mod	mod	mod	tg	ht	wh/0333.bmp
238.32	0.72	322	1	1	99	per	lib	low	mod	low	nt	cr	nh/0424_nh.bmp
239.04	0.72	323	2	2	86	mem	lib	mod	mod	mod	nt	ht	nh/0689_nh.bmp
239.76	0.72	324	2	2	92	mem	lib	mod	mod	mod	nt	ms	nh/0592_nh.bmp
240.48	0.72	325	3	2	93	mem	lib	mod	mod	mod	tg	ht	wh/0664.bmp
241.20	0.72	326	5	3	40	mem	lib	mod	mod	low	tg	ms	wh/0412.bmp
241.92	0.72	327	2	4	113	per	con	low	mod	low	tg	ms	wh/0511.bmp
242.64	0.72	328	3	3	48	mem	lib	mod	mod	low	nt	ht	nh/0914_nh.bmp
243.36	0.72	329	4	1	123	mem	lib	mod	mod	low	tg	ms	wh/0410.bmp
244.08	0.72	330	3	4	57	per	lib	mod	mod	mod	nt	cr	nh/0576_nh.bmp
244.80	0.72	331	4	1	120	mem	lib	mod	mod	low	tg	ht	wh/0166.bmp
245.52	0.72	332	2	1	125	mem	lib	mod	mod	low	tg	ms	wh/0246.bmp
246.24	0.72	333	5	3	68	mem	con	mod	mod	low	tg	ht	wh/0302.bmp
246.96	0.72	334	3	1	111	per	lib	low	mod	low	tg	ht	wh/0291.bmp
247.68	0.72	335	4	4	9	per	lib	low	mod	low	tg	ht	wh/0444.bmp
248.40	0.72	336	3	4	117	per	con	low	mod	low	tg	ms	wh/0988.bmp
249.12	0.72	337	1	2	6	per	lib	mod	low	mod	tg	ht	wh/0457.bmp
249.84	0.72	338	2	4	68	mem	lib	mod	mod	mod	tg	ms	wh/0796.bmp
250.56	0.72	339	5	4	120	per	con	low	mod	low	nt	cr	nh/0323_nh.bmp
251.28	0.72	340	5	1	77	mem	con	mod	mod	low	nt	ht	nh/0195_nh.bmp
252.00	0.72	341	4	3	37	mem	lib	mod	mod	low	tg	ht	wh/0459.bmp
252.72	0.72	342	2	3	5	per	con	mod	mod	mod	nt	cr	nh/0970_nh.bmp
253.44	0.72	343	1	2	70	per	con	low	low	low	tg	ms	wh/0484.bmp
254.16	0.72	344	3	3	38	mem	lib	mod	mod	low	nt	ms	nh/0554_nh.bmp
254.88	0.72	345	3	1	8	per	con	mod	mod	mod	tg	ht	wh/0477.bmp
255.60	0.72	346	3	4	6	per	lib	low	mod	low	tg	ms	wh/0415.bmp
256.32	0.72	347	1	1	84	mem	con	low	low	mod	tg	ht	wh/0346.bmp
257.04	0.72	348	1	2	71	per	con	low	low	low	nt	cr	nh/0021_nh.bmp
257.76	0.72	349	3	1	2	per	con	mod	mod	mod	tg	ht	wh/0861.bmp
258.48	0.72	350	2	1	53	per	lib	mod	mod	mod	tg	ht	wh/0343.bmp
259.20	0.72	351	3	1	63	per	lib	mod	mod	mod	nt	cr	nh/0445_nh.bmp
259.92	0.72	352	1	1	121	mem	lib	mod	mod	low	nt	ht	nh/0315_nh.bmp
260.64	0.72	353	1	3	109	per	con	low	low	low	tg	ms	wh/0327.bmp
261.36	0.72	354	1	2	45	mem	lib	low	low	low	tg	ms	wh/0314.bmp
262.08	0.72	355	5	1	12	per	con	mod	mod	mod	tg	ms	wh/0809.bmp
262.80	0.72	356	3	3	13	per	con	mod	mod	mod	tg	ht	wh/0761.bmp
263.52	0.72	357	4	2	51	mem	con	mod	mod	mod	tg	ht	wh/0049.bmp
264.24	0.72	358	4	4	102	mem	con	mod	mod	mod	tg	ms	wh/0628.bmp
264.96	0.72	359	1	2	5	per	lib	mod	low	mod	nt	cr	nh/0085_nh.bmp
265.68	0.72	360	1	2	80	per	con	low	low	low	tg	ms	wh/0264.bmp
266.40	0.72	361	2	4	72	mem	lib	mod	mod	mod	tg	ht	wh/0738.bmp
267.12	0.72	362	5	3	37	mem	lib	mod	mod	low	tg	ht	wh/0459.bmp
267.84	0.72	363	2	1	121	mem	lib	mod	mod	low	nt	ht	nh/0315_nh.bmp
268.56	0.72	364	3	4	65	mem	lib	mod	mod	mod	nt	ht	nh/0279_nh.bmp
269.28	0.72	365	3	1	52	per	lib	mod	mod	mod	nt	cr	nh/0753_nh.bmp
270.00	0.72	366	1	2	13	per	lib	mod	low	mod	tg	ms	wh/0726.bmp
270.72	0.72	367	2	4	74	mem	lib	mod	mod	mod	nt	ht	nh/0665_nh.bmp
271.44	0.72	368	1	4	58	per	lib	mod	mod	mod	tg	ms	wh/0742.bmp
272.16	0.72	369	3	4	72	mem	lib	mod	mod	mod	tg	ht	wh/0738.bmp
272.88	0.72	370	1	2	110	per	lib	low	low	low	nt	cr	nh/0713_nh.bmp
273.60	0.72	371	2	1	67	mem	con	mod	mod	low	nt	ht	nh/0283_nh.bmp
274.32	0.72	372	3	1	110	per	lib	low	mod	low	nt	cr	nh/0236_nh.bmp
275.04	0.72	373	1	4	4	per	lib	low	mod	low	tg	ms	wh/0295.bmp
275.76	0.72	374	4	4	106	mem	con	mod	mod	mod	tg	ht	wh/0333.bmp
276.48	0.72	375	3	1	100	per	lib	low	mod	low	tg	ms	wh/0390.bmp
277.20	0.72	376	1	2	127	per	con	mod	low	mod	nt	cr	nh/0214_nh.bmp
277.92	0.72	377	2	1	37	per	con	low	mod	low	tg	ms	wh/0792.bmp
278.64	0.72	378	3	4	99	mem	con	mod	mod	mod	tg	ms	wh/0799.bmp
279.36	0.72	379	4	4	15	per	lib	low	mod	low	nt	cr	nh/0791_nh.bmp
280.08	0.72	380	3	4	63	per	lib	mod	mod	mod	tg	ms	wh/0071.bmp
280.80	0.72	381	2	4	4	per	lib	low	mod	low	tg	ms	wh/0295.bmp
281.52	0.72	382	1	3	26	per	lib	mod	low	mod	nt	cr	nh/0719_nh.bmp
282.24	0.72	383	4	1	5	per	con	mod	mod	mod	nt	cr	nh/0834_nh.bmp
282.96	0.72	384	1	2	98	per	lib	low	low	low	nt	cr	nh/0653_nh.bmp
283.68	0.72	385	3	4	74	mem	lib	mod	mod	mod	nt	ht	nh/0665_nh.bmp
284.40	0.72	386	3	1	41	per	con	low	mod	low	nt	cr	nh/0067_nh.bmp
285.12	0.72	387	3	1	107	per	lib	low	mod	low	nt	cr	nh/0798_nh.bmp
285.84	0.72	388	3	1	35	per	con	low	mod	low	nt	cr	nh/0643_nh.bmp
286.56	0.72	389	3	1	14	per	con	mod	mod	mod	nt	cr	nh/0344_nh.bmp
287.28	0.72	390	1	1	118	mem	lib	mod	mod	low	tg	ht	wh/0030.bmp
288.00	0.72	391	1	3	82	per	lib	low	low	low	tg	ms	wh/0211.bmp
288.72	0.72	392	3	3	69	mem	con	mod	mod	low	tg	ms	wh/0212.bmp
289.44	0.72	393	4	3	13	per	con	mod	mod	mod	tg	ht	wh/0761.bmp
290.16	0.72	394	5	4	128	per	con	low	mod	low	nt	cr	nh/0386_nh.bmp
290.88	0.72	395	3	3	5	per	con	mod	mod	mod	nt	cr	nh/0970_nh.bmp
291.60	0.72	396	2	4	71	mem	lib	mod	mod	mod	tg	ht	wh/0137.bmp
292.32	0.72	397	5	4	9	per	lib	low	mod	low	tg	ht	wh/0444.bmp
293.04	0.72	398	1	3	104	per	con	low	low	low	nt	cr	nh/0161_nh.bmp
293.76	0.72	399	1	4	39	mem	con	low	low	low	tg	ms	wh/0184.bmp
294.48	0.72	400	2	4	5	per	lib	low	mod	low	nt	cr	nh/0494_nh.bmp
295.20	0.72	401	1	2	10	per	lib	mod	low	mod	nt	cr	nh/0201_nh.bmp
295.92	0.72	402	1	1	104	per	lib	low	mod	low	tg	ms	wh/0131.bmp
296.64	0.72	403	2	4	16	per	lib	low	mod	low	tg	ms	wh/0312.bmp
297.36	0.72	404	4	4	72	mem	lib	mod	mod	mod	tg	ht	wh/0738.bmp
298.08	0.72	405	3	4	101	mem	con	mod	mod	mod	nt	ht	nh/0359_nh.bmp
298.80	0.72	406	1	3	102	per	con	low	low	low	tg	ms	wh/0335.bmp
299.52	0.72	407	4	1	46	per	con	low	mod	low	tg	ms	wh/0976.bmp
300.24	0.72	408	2	1	60	per	lib	mod	mod	mod	nt	cr	nh/0282_nh.bmp
300.96	0.72	409	5	2	51	mem	con	mod	mod	mod	tg	ht	wh/0049.bmp
301.68	0.72	410	2	1	118	mem	lib	mod	mod	low	tg	ht	wh/0030.bmp
302.40	0.72	411	5	4	53	per	lib	mod	mod	mod	nt	cr	nh/0487_nh.bmp
303.12	0.72	412	1	2	18	mem	con	low	low	low	nt	ms	nh/0120_nh.bmp
303.84	0.72	413	5	4	72	mem	lib	mod	mod	mod	tg	ht	wh/0738.bmp
304.56	0.72	414	1	2	25	mem	con	low	low	low	nt	ms	nh/0430_nh.bmp
305.28	0.72	415	4	1	10	per	con	mod	mod	mod	nt	cr	nh/0759_nh.bmp
306.00	0.72	416	4	1	14	per	con	mod	mod	mod	nt	cr	nh/0344_nh.bmp
306.72	0.72	417	3	1	118	mem	lib	mod	mod	low	tg	ht	wh/0030.bmp
307.44	0.72	418	4	4	57	per	lib	mod	mod	mod	nt	cr	nh/0576_nh.bmp
308.16	0.72	419	5	3	13	per	con	mod	mod	mod	tg	ht	wh/0761.bmp
308.88	0.72	420	2	2	58	mem	con	mod	mod	mod	nt	ms	nh/0943_nh.bmp
309.60	0.72	421	5	4	57	per	lib	mod	mod	mod	nt	cr	nh/0576_nh.bmp
310.32	0.72	422	2	1	99	per	lib	low	mod	low	nt	cr	nh/0424_nh.bmp
311.04	0.72	423	6	3	40	mem	lib	mod	mod	low	tg	ms	wh/0412.bmp
311.76	0.72	424	5	4	78	mem	lib	mod	mod	mod	tg	ht	wh/0961.bmp
312.48	0.72	425	2	4	97	mem	con	mod	mod	mod	nt	ht	nh/0097_nh.bmp
313.20	0.72	426	3	1	37	per	con	low	mod	low	tg	ms	wh/0792.bmp
313.92	0.72	427	3	4	79	mem	lib	mod	mod	mod	nt	ht	nh/0925_nh.bmp
314.64	0.72	428	4	1	63	per	lib	mod	mod	mod	nt	cr	nh/0445_nh.bmp
315.36	0.72	429	3	4	97	mem	con	mod	mod	mod	nt	ht	nh/0097_nh.bmp
316.08	0.72	430	1	2	63	mem	con	mod	mod	mod	tg	ms	wh/0604.bmp
316.80	0.72	431	4	2	91	mem	lib	mod	mod	mod	nt	ht	nh/0806_nh.bmp
317.52	0.72	432	4	3	15	per	con	mod	mod	mod	nt	cr	nh/0348_nh.bmp
318.24	0.72	433	3	1	75	mem	con	mod	mod	low	tg	ht	wh/0703.bmp
318.96	0.72	434	4	1	112	per	lib	low	mod	low	tg	ms	wh/0523.bmp
319.68	0.72	435	3	2	92	mem	lib	mod	mod	mod	nt	ms	nh/0592_nh.bmp
320.40	0.72	436	3	4	5	per	lib	low	mod	low	nt	cr	nh/0494_nh.bmp
321.12	0.72	437	2	2	63	mem	con	mod	mod	mod	tg	ms	wh/0604.bmp
321.84	0.72	438	4	1	73	mem	con	mod	mod	low	tg	ht	wh/0132.bmp
322.56	0.72	439	4	3	5	per	con	mod	mod	mod	nt	cr	nh/0970_nh.bmp
323.28	0.72	440	3	4	4	per	lib	low	mod	low	tg	ms	wh/0295.bmp
324.00	0.72	441	3	1	115	mem	lib	mod	mod	low	nt	ms	nh/0081_nh.bmp
324.72	0.72	442	2	1	58	per	lib	mod	mod	mod	nt	cr	nh/0490_nh.bmp
325.44	0.72	443	6	4	72	mem	lib	mod	mod	mod	tg	ht	wh/0738.bmp
326.16	0.72	444	1	3	24	per	lib	mod	low	mod	tg	ht	wh/0547.bmp
326.88	0.72	445	3	2	55	mem	con	mod	mod	mod	nt	ms	nh/0061_nh.bmp
327.60	0.72	446	4	1	11	per	con	mod	mod	mod	tg	ht	wh/0039.bmp
328.32	0.72	447	2	1	34	per	con	low	mod	low	tg	ms	wh/0683.bmp
329.04	0.72	448	2	3	6	per	con	mod	mod	mod	tg	ht	wh/0413.bmp
329.76	0.72	449	4	4	79	mem	lib	mod	mod	mod	nt	ht	nh/0925_nh.bmp
330.48	0.72	450	3	1	53	per	lib	mod	mod	mod	tg	ht	wh/0343.bmp
331.20	0.72	451	2	1	116	mem	lib	mod	mod	low	nt	ms	nh/0509_nh.bmp
331.92	0.72	452	4	4	61	per	lib	mod	mod	mod	nt	cr	nh/1010_nh.bmp
332.64	0.72	453	5	4	79	mem	lib	mod	mod	mod	nt	ht	nh/0925_nh.bmp
333.36	0.72	454	3	1	67	mem	con	mod	mod	low	nt	ht	nh/0283_nh.bmp
334.08	0.72	455	1	3	81	per	lib	low	low	low	nt	cr	nh/0908_nh.bmp
334.80	0.72	456	3	2	86	mem	lib	mod	mod	mod	nt	ht	nh/0689_nh.bmp
335.52	0.72	457	1	3	59	mem	lib	low	low	low	nt	ms	nh/0250_nh.bmp
336.24	0.72	458	2	4	76	mem	lib	mod	mod	mod	nt	ht	nh/0645_nh.bmp
336.96	0.72	459	4	1	107	per	lib	low	mod	low	nt	cr	nh/0798_nh.bmp
337.68	0.72	460	3	3	33	mem	lib	mod	mod	low	nt	ht	nh/0765_nh.bmp
338.40	0.72	461	5	1	73	mem	con	mod	mod	low	tg	ht	wh/0132.bmp
339.12	0.72	462	5	3	5	per	con	mod	mod	mod	nt	cr	nh/0970_nh.bmp
339.84	0.72	463	1	3	22	per	lib	mod	low	mod	nt	cr	nh/0440_nh.bmp
340.56	0.72	464	2	2	59	mem	con	mod	mod	mod	nt	ms	nh/0427_nh.bmp
341.28	0.72	465	4	1	35	per	con	low	mod	low	nt	cr	nh/0643_nh.bmp
342.00	0.72	466	3	4	76	mem	lib	mod	mod	mod	nt	ht	nh/0645_nh.bmp
342.72	0.72	467	1	3	105	per	con	low	low	low	nt	cr	nh/0369_nh.bmp
343.44	0.72	468	4	2	62	mem	con	mod	mod	mod	nt	ms	nh/0072_nh.bmp
344.16	0.72	469	4	1	55	per	lib	mod	mod	mod	tg	ht	wh/0151.bmp
344.88	0.72	470	2	2	95	mem	lib	mod	mod	mod	tg	ht	wh/0895.bmp
345.60	0.72	471	1	3	96	per	lib	low	low	low	tg	ms	wh/0363.bmp
346.32	0.72	472	2	4	58	per	lib	mod	mod	mod	tg	ms	wh/0742.bmp
347.04	0.72	473	3	2	58	mem	con	mod	mod	mod	nt	ms	nh/0943_nh.bmp
347.76	0.72	474	3	1	60	per	lib	mod	mod	mod	nt	cr	nh/0282_nh.bmp
348.48	0.72	475	4	4	76	mem	lib	mod	mod	mod	nt	ht	nh/0645_nh.bmp
349.20	0.72	476	4	1	7	per	con	mod	mod	mod	nt	cr	nh/0358_nh.bmp
349.92	0.72	477	1	2	116	per	con	mod	low	mod	tg	ms	wh/0707.bmp
350.64	0.72	478	5	2	64	mem	con	mod	mod	mod	tg	ms	wh/0365.bmp
351.36	0.72	479	6	4	128	per	con	low	mod	low	nt	cr	nh/0386_nh.bmp
352.08	0.72	480	4	4	5	per	lib	low	mod	low	nt	cr	nh/0494_nh.bmp
352.80	0.72	481	3	1	125	mem	lib	mod	mod	low	tg	ms	wh/0246.bmp
353.52	0.72	482	2	1	104	per	lib	low	mod	low	tg	ms	wh/0131.bmp
354.24	0.72	483	5	1	14	per	con	mod	mod	mod	nt	cr	nh/0344_nh.bmp
354.96	0.72	484	4	1	53	per	lib	mod	mod	mod	tg	ht	wh/0343.bmp
355.68	0.72	485	4	1	52	per	lib	mod	mod	mod	nt	cr	nh/0753_nh.bmp
356.40	0.72	486	1	2	101	per	lib	low	low	low	tg	ms	wh/0117.bmp
357.12	0.72	487	3	1	121	mem	lib	mod	mod	low	nt	ht	nh/0315_nh.bmp
357.84	0.72	488	2	4	3	per	lib	low	mod	low	nt	cr	nh/1013_nh.bmp
358.56	0.72	489	3	4	50	per	lib	mod	mod	mod	tg	ms	wh/0901.bmp
359.28	0.72	490	4	4	6	per	lib	low	mod	low	tg	ms	wh/0415.bmp
360.00	0.72	491	5	4	6	per	lib	low	mod	low	tg	ms	wh/0415.bmp
360.72	0.72	492	4	4	117	per	con	low	mod	low	tg	ms	wh/0988.bmp
361.44	0.72	493	4	3	66	mem	con	mod	mod	low	tg	ht	wh/0882.bmp
362.16	0.72	494	3	3	71	mem	con	mod	mod	low	nt	ht	nh/0259_nh.bmp
362.88	0.72	495	3	4	16	per	lib	low	mod	low	tg	ms	wh/0312.bmp
363.60	0.72	496	1	1	44	per	con	low	mod	low	tg	ms	wh/0512.bmp
364.32	0.72	497	2	3	77	mem	con	mod	mod	low	nt	ht	nh/0671_nh.bmp
365.04	0.72	498	4	2	55	mem	con	mod	mod	mod	nt	ms	nh/0061_nh.bmp
365.76	0.72	499	3	4	68	mem	lib	mod	mod	mod	tg	ms	wh/0796.bmp
366.48	0.72	500	4	3	9	per	con	mod	mod	mod	tg	ms	wh/0104.bmp
367.20	0.72	501	4	1	75	mem	con	mod	mod	low	tg	ht	wh/0703.bmp
367.92	0.72	502	5	1	69	mem	con	mod	mod	low	tg	ht	wh/0454.bmp
368.64	0.72	503	4	3	33	mem	lib	mod	mod	low	nt	ht	nh/0765_nh.bmp
369.36	0.72	504	5	4	15	per	lib	low	mod	low	nt	cr	nh/0791_nh.bmp
370.08	0.72	505	3	4	98	mem	con	mod	mod	mod	nt	ht	nh/0331_nh.bmp
370.80	0.72	506	3	3	34	mem	lib	mod	mod	low	tg	ms	wh/0293.bmp
371.52	0.72	507	2	1	44	per	con	low	mod	low	tg	ms	wh/0512.bmp
372.24	0.72	508	5	3	33	mem	lib	mod	mod	low	nt	ht	nh/0765_nh.bmp
372.96	0.72	509	3	1	58	per	lib	mod	mod	mod	nt	cr	nh/0490_nh.bmp
373.68	0.72	510	1	4	26	mem	lib	low	low	mod	tg	ms	wh/0033.bmp
374.40	0.72	511	4	3	34	mem	lib	mod	mod	low	tg	ms	wh/0293.bmp
375.12	0.72	512	6	1	77	mem	con	mod	mod	low	nt	ht	nh/0195_nh.bmp
375.84	0.72	513	1	3	106	per	con	low	low	low	tg	ms	wh/0783.bmp
376.56	0.72	514	4	4	98	mem	con	mod	mod	mod	nt	ht	nh/0331_nh.bmp
377.28	0.72	515	4	4	119	per	con	low	mod	low	tg	ht	wh/0124.bmp
378.00	0.72	516	1	2	104	per	lib	low	low	low	nt	cr	nh/0500_nh.bmp
378.72	0.72	517	1	3	126	mem	con	low	low	mod	tg	ms	wh/0854.bmp
379.44	0.72	518	5	4	52	per	lib	mod	mod	mod	nt	fa	nh/1006_nh.bmp
380.16	0.72	519	4	3	38	mem	lib	mod	mod	low	nt	ms	nh/0554_nh.bmp
380.88	0.72	520	3	4	58	per	lib	mod	mod	mod	tg	ms	wh/0742.bmp
381.60	0.72	521	6	3	68	mem	con	mod	mod	low	tg	ht	wh/0302.bmp
382.32	0.72	522	5	4	76	mem	lib	mod	mod	mod	nt	ht	nh/0645_nh.bmp
383.04	0.72	523	4	1	121	mem	lib	mod	mod	low	nt	ht	nh/0315_nh.bmp
383.76	0.72	524	4	4	74	mem	lib	mod	mod	mod	nt	ht	nh/0665_nh.bmp
384.48	0.72	525	1	2	118	per	con	mod	low	mod	nt	cr	nh/0894_nh.bmp
385.20	0.72	526	5	1	35	per	con	low	mod	low	nt	cr	nh/0643_nh.bmp
385.92	0.72	527	5	2	62	mem	con	mod	mod	mod	nt	ms	nh/0072_nh.bmp
386.64	0.72	528	5	2	91	mem	lib	mod	mod	mod	nt	ht	nh/0806_nh.bmp
387.36	0.72	529	5	4	98	mem	con	mod	mod	mod	nt	ht	nh/0331_nh.bmp
388.08	0.72	530	1	1	20	mem	lib	low	low	mod	tg	ms	wh/0052.bmp
388.80	0.72	531	5	1	66	mem	con	mod	mod	low	tg	ht	wh/0641.bmp
389.52	0.72	532	4	4	63	per	lib	mod	mod	mod	tg	ms	wh/0071.bmp
390.24	0.72	533	4	4	68	mem	lib	mod	mod	mod	tg	ms	wh/0796.bmp
390.96	0.72	534	3	3	6	per	con	mod	mod	mod	tg	ht	wh/0413.bmp
391.68	0.72	535	3	2	63	mem	con	mod	mod	mod	tg	ms	wh/0604.bmp
392.40	0.72	536	5	1	55	per	lib	mod	mod	mod	tg	ht	wh/0151.bmp
393.12	0.72	537	3	4	71	mem	lib	mod	mod	mod	tg	ht	wh/0137.bmp
393.84	0.72	538	5	1	63	per	lib	mod	mod	mod	nt	cr	nh/0445_nh.bmp
394.56	0.72	539	4	1	111	per	lib	low	mod	low	tg	ht	wh/0291.bmp
395.28	0.72	540	3	2	83	mem	lib	mod	mod	mod	tg	ht	wh/0448.bmp
396.00	0.72	541	1	1	22	mem	lib	low	low	mod	tg	ht	wh/0985.bmp
396.72	0.72	542	6	3	37	mem	lib	mod	mod	low	tg	ht	wh/0459.bmp
397.44	0.72	543	1	1	93	mem	con	low	low	mod	nt	ms	nh/1020_nh.bmp
398.16	0.72	544	1	3	50	mem	lib	low	low	low	tg	ms	wh/0916.bmp
398.88	0.72	545	4	2	82	mem	lib	mod	mod	mod	nt	ms	nh/0479_nh.bmp
399.60	0.72	546	6	3	33	mem	lib	mod	mod	low	nt	ht	nh/0765_nh.bmp
400.32	0.72	547	1	2	17	mem	con	low	low	low	nt	ht	nh/0130_nh.bmp
401.04	0.72	548	3	3	80	mem	con	mod	mod	low	nt	ht	nh/0672_nh.bmp
401.76	0.72	549	3	4	3	per	lib	low	mod	low	nt	cr	nh/1013_nh.bmp
402.48	0.72	550	4	2	63	mem	con	mod	mod	mod	tg	ms	wh/0604.bmp
403.20	0.72	551	1	1	24	mem	lib	low	low	mod	tg	ms	wh/0937.bmp
403.92	0.72	552	3	4	60	per	lib	mod	mod	mod	tg	ht	wh/0320.bmp
404.64	0.72	553	4	1	37	per	con	low	mod	low	tg	ms	wh/0792.bmp
405.36	0.72	554	1	4	94	per	con	mod	low	mod	tg	ms	wh/0913.bmp
406.08	0.72	555	4	1	100	per	lib	low	mod	low	tg	ms	wh/0390.bmp
406.80	0.72	556	4	2	93	mem	lib	mod	mod	mod	tg	ht	wh/0664.bmp
407.52	0.72	557	4	2	83	mem	lib	mod	mod	mod	tg	ht	wh/0448.bmp
408.24	0.72	558	4	3	48	mem	lib	mod	mod	low	nt	ht	nh/0914_nh.bmp
408.96	0.72	559	1	2	112	per	lib	low	low	low	tg	ms	wh/0242.bmp
409.68	0.72	560	5	4	68	mem	lib	mod	mod	mod	tg	ms	wh/0796.bmp
410.40	0.72	561	4	4	97	mem	con	mod	mod	mod	nt	ht	nh/0097_nh.bmp
411.12	0.72	562	3	3	70	mem	con	mod	mod	low	tg	ht	wh/0496.bmp
411.84	0.72	563	4	2	86	mem	lib	mod	mod	mod	nt	ht	nh/0689_nh.bmp
412.56	0.72	564	4	4	16	per	lib	low	mod	low	tg	ms	wh/0312.bmp
413.28	0.72	565	6	4	76	mem	lib	mod	mod	mod	nt	ht	nh/0645_nh.bmp
414.00	0.72	566	1	3	63	mem	lib	low	low	low	tg	ms	wh/0357.bmp
414.72	0.72	567	1	2	27	mem	con	low	low	low	nt	ht	nh/0720_nh.bmp
415.44	0.72	568	1	2	107	per	lib	low	low	low	tg	ms	wh/0877.bmp
416.16	0.72	569	1	3	111	per	con	low	low	low	nt	cr	nh/0010_nh.bmp
416.88	0.72	570	2	3	16	per	con	mod	mod	mod	tg	ms	wh/0983.bmp
417.60	0.72	571	3	1	119	mem	lib	mod	mod	low	nt	ht	nh/0575_nh.bmp
418.32	0.72	572	5	1	112	per	lib	low	mod	low	tg	ms	wh/0523.bmp
419.04	0.72	573	5	1	7	per	con	mod	mod	mod	nt	cr	nh/0358_nh.bmp
419.76	0.72	574	5	3	15	per	con	mod	mod	mod	nt	cr	nh/0348_nh.bmp
420.48	0.72	575	5	2	63	mem	con	mod	mod	mod	tg	ms	wh/0604.bmp
421.20	0.72	576	5	4	106	mem	con	mod	mod	mod	tg	ht	wh/0333.bmp
421.92	0.72	577	6	4	15	per	lib	low	mod	low	nt	cr	nh/0791_nh.bmp
422.64	0.72	578	3	1	109	per	lib	low	mod	low	nt	cr	nh/0615_nh.bmp
423.36	0.72	579	2	3	35	mem	lib	mod	mod	low	tg	ht	wh/0263.bmp
424.08	0.72	580	4	4	4	per	lib	low	mod	low	tg	ms	wh/0295.bmp
424.80	0.72	581	4	4	71	mem	lib	mod	mod	mod	tg	ht	wh/0137.bmp
425.52	0.72	582	5	3	34	mem	lib	mod	mod	low	tg	ms	wh/0293.bmp
426.24	0.72	583	3	3	35	mem	lib	mod	mod	low	tg	ht	wh/0263.bmp
426.96	0.72	584	4	4	3	per	lib	low	mod	low	nt	cr	nh/1013_nh.bmp
427.68	0.72	585	4	3	80	mem	con	mod	mod	low	nt	ht	nh/0672_nh.bmp
428.40	0.72	586	2	4	122	per	con	low	mod	low	nt	cr	nh/0368_nh.bmp
429.12	0.72	587	3	2	59	mem	con	mod	mod	mod	nt	ms	nh/0427_nh.bmp
429.84	0.72	588	6	4	98	mem	con	mod	mod	mod	nt	ht	nh/0331_nh.bmp
430.56	0.72	589	3	1	38	per	con	low	mod	low	nt	cr	nh/0174_nh.bmp
431.28	0.72	590	5	1	10	per	con	mod	mod	mod	nt	cr	nh/0759_nh.bmp
432.00	0.72	591	2	3	14	per	con	mod	mod	mod	nt	cr	nh/0674_nh.bmp
432.72	0.72	592	4	1	109	per	lib	low	mod	low	nt	cr	nh/0615_nh.bmp
433.44	0.72	593	5	1	57	per	lib	mod	mod	mod	tg	ms	wh/0538.bmp
434.16	0.72	594	4	4	13	per	lib	low	mod	low	nt	cr	nh/0007_nh.bmp
434.88	0.72	595	3	3	77	mem	con	mod	mod	low	nt	ht	nh/0671_nh.bmp
435.60	0.72	596	3	1	56	per	lib	mod	mod	mod	tg	ht	wh/0705.bmp
436.32	0.72	597	1	2	121	per	con	mod	low	mod	nt	fa	nh/0304_nh.bmp
437.04	0.72	598	5	4	3	per	lib	low	mod	low	nt	cr	nh/1013_nh.bmp
437.76	0.72	599	1	3	121	mem	con	low	low	mod	nt	ms	nh/0773_nh.bmp
438.48	0.72	600	5	4	107	mem	con	mod	mod	mod	nt	ht	nh/0313_nh.bmp
439.20	0.72	601	5	4	102	mem	con	mod	mod	mod	tg	ms	wh/0628.bmp
439.92	0.72	602	4	3	47	mem	lib	mod	mod	low	nt	ht	nh/0438_nh.bmp
440.64	0.72	603	4	2	59	mem	con	mod	mod	mod	nt	ms	nh/0427_nh.bmp
441.36	0.72	604	6	1	10	per	con	mod	mod	mod	nt	cr	nh/0759_nh.bmp
442.08	0.72	605	1	4	21	mem	lib	low	low	mod	tg	ms	wh/0062.bmp
442.80	0.72	606	1	3	58	mem	lib	low	low	low	nt	ht	nh/0535_nh.bmp
443.52	0.72	607	4	2	92	mem	lib	mod	mod	mod	nt	ms	nh/0592_nh.bmp
444.24	0.72	608	4	1	110	per	lib	low	mod	low	nt	cr	nh/0236_nh.bmp
444.96	0.72	609	3	3	16	per	con	mod	mod	mod	tg	ms	wh/0983.bmp
445.68	0.72	610	6	2	51	mem	con	mod	mod	mod	tg	ht	wh/0049.bmp
446.40	0.72	611	1	4	23	mem	lib	low	low	mod	nt	ms	nh/0616_nh.bmp
447.12	0.72	612	6	2	63	mem	con	mod	mod	mod	tg	ms	wh/0604.bmp
447.84	0.72	613	1	3	89	per	lib	low	low	low	tg	ms	wh/0245.bmp
448.56	0.72	614	6	3	5	per	con	mod	mod	mod	nt	cr	nh/0970_nh.bmp
449.28	0.72	615	4	1	2	per	con	mod	mod	mod	tg	ht	wh/0861.bmp
450.00	0.72	616	5	1	5	per	con	mod	mod	mod	nt	cr	nh/0834_nh.bmp
450.72	0.72	617	4	4	121	per	con	low	mod	low	tg	ht	wh/0661.bmp
451.44	0.72	618	5	4	13	per	lib	low	mod	low	nt	cr	nh/0007_nh.bmp
452.16	0.72	619	6	1	66	mem	con	mod	mod	low	tg	ht	wh/0641.bmp
452.88	0.72	620	3	1	34	per	con	low	mod	low	tg	ms	wh/0683.bmp
453.60	0.72	621	6	4	53	per	lib	mod	mod	mod	nt	cr	nh/0487_nh.bmp
454.32	0.72	622	3	2	81	mem	lib	mod	mod	mod	tg	ms	wh/0229.bmp
455.04	0.72	623	1	2	44	mem	lib	low	low	low	nt	ms	nh/0819_nh.bmp
455.76	0.72	624	4	4	65	mem	lib	mod	mod	mod	nt	ht	nh/0279_nh.bmp
456.48	0.72	625	6	3	34	mem	lib	mod	mod	low	tg	ms	wh/0293.bmp
457.20	0.72	626	3	1	104	per	lib	low	mod	low	tg	ms	wh/0131.bmp
457.92	0.72	627	4	1	118	mem	lib	mod	mod	low	tg	ht	wh/0030.bmp
458.64	0.72	628	4	2	81	mem	lib	mod	mod	mod	tg	ms	wh/0229.bmp
459.36	0.72	629	5	3	66	mem	con	mod	mod	low	tg	ht	wh/0882.bmp
460.08	0.72	630	3	3	2	per	con	mod	mod	mod	nt	cr	nh/0583_nh.bmp
460.80	0.72	631	5	4	71	mem	lib	mod	mod	mod	tg	ht	wh/0137.bmp
461.52	0.72	632	5	4	117	per	con	low	mod	low	tg	ms	wh/0988.bmp
462.24	0.72	633	5	3	80	mem	con	mod	mod	low	nt	ht	nh/0672_nh.bmp
462.96	0.72	634	4	3	71	mem	con	mod	mod	low	nt	ht	nh/0259_nh.bmp
463.68	0.72	635	4	1	8	per	con	mod	mod	mod	tg	ht	wh/0477.bmp
464.40	0.72	636	4	1	41	per	con	low	mod	low	nt	cr	nh/0067_nh.bmp
465.12	0.72	637	5	3	38	mem	lib	mod	mod	low	nt	ms	nh/0554_nh.bmp
465.84	0.72	638	5	4	97	mem	con	mod	mod	mod	nt	ht	nh/0097_nh.bmp
466.56	0.72	639	5	4	74	mem	lib	mod	mod	mod	nt	ht	nh/0665_nh.bmp
467.28	0.72	640	5	1	37	per	con	low	mod	low	tg	ms	wh/0792.bmp
468.00	0.72	641	4	1	125	mem	lib	mod	mod	low	tg	ms	wh/0246.bmp
468.72	0.72	642	2	1	45	per	con	low	mod	low	nt	cr	nh/0757_nh.bmp
469.44	0.72	643	5	1	100	per	lib	low	mod	low	tg	ms	wh/0390.bmp
470.16	0.72	644	4	1	104	per	lib	low	mod	low	tg	ms	wh/0131.bmp
470.88	0.72	645	6	4	78	mem	lib	mod	mod	mod	tg	ht	wh/0961.bmp
471.60	0.72	646	4	3	69	mem	con	mod	mod	low	tg	ms	wh/0212.bmp
472.32	0.72	647	1	4	33	mem	con	low	low	low	nt	ms	nh/0309_nh.bmp
473.04	0.72	648	6	4	97	mem	con	mod	mod	mod	nt	ht	nh/0097_nh.bmp
473.76	0.72	649	4	3	77	mem	con	mod	mod	low	nt	ht	nh/0671_nh.bmp
474.48	0.72	650	5	1	46	per	con	low	mod	low	tg	ms	wh/0976.bmp
475.20	0.72	651	5	3	69	mem	con	mod	mod	low	tg	ms	wh/0212.bmp
475.92	0.72	652	5	3	77	mem	con	mod	mod	low	nt	ht	nh/0671_nh.bmp
476.64	0.72	653	5	3	9	per	con	mod	mod	mod	tg	ms	wh/0104.bmp
477.36	0.72	654	6	1	37	per	con	low	mod	low	tg	ms	wh/0792.bmp
478.08	0.72	655	1	2	26	mem	con	low	low	low	tg	ms	wh/0607.bmp
478.80	0.72	656	4	2	58	mem	con	mod	mod	mod	nt	ms	nh/0943_nh.bmp
479.52	0.72	657	6	1	46	per	con	low	mod	low	tg	ms	wh/0976.bmp
480.24	0.72	658	4	2	50	mem	con	mod	mod	mod	tg	ht	wh/0931.bmp
480.96	0.72	659	4	4	58	per	lib	mod	mod	mod	tg	ms	wh/0742.bmp
481.68	0.72	660	4	1	115	mem	lib	mod	mod	low	nt	ms	nh/0081_nh.bmp
482.40	0.72	661	5	4	58	per	lib	mod	mod	mod	tg	ms	wh/0742.bmp
483.12	0.72	662	3	2	95	mem	lib	mod	mod	mod	tg	ht	wh/0895.bmp
483.84	0.72	663	2	4	116	per	con	low	mod	low	nt	cr	nh/0203_nh.bmp
484.56	0.72	664	5	1	2	per	con	mod	mod	mod	tg	ht	wh/0861.bmp
485.28	0.72	665	4	1	34	per	con	low	mod	low	tg	ms	wh/0683.bmp
486.00	0.72	666	6	3	13	per	con	mod	mod	mod	tg	ht	wh/0761.bmp
486.72	0.72	667	6	4	74	mem	lib	mod	mod	mod	nt	ht	nh/0665_nh.bmp
487.44	0.72	668	6	3	77	mem	con	mod	mod	low	nt	ht	nh/0671_nh.bmp
488.16	0.72	669	3	4	116	per	con	low	mod	low	nt	cr	nh/0203_nh.bmp
488.88	0.72	670	4	4	101	mem	con	mod	mod	mod	nt	ht	nh/0359_nh.bmp
489.60	0.72	671	6	3	66	mem	con	mod	mod	low	tg	ht	wh/0882.bmp
490.32	0.72	672	5	2	82	mem	lib	mod	mod	mod	nt	ms	nh/0479_nh.bmp
491.04	0.72	673	5	4	4	per	lib	low	mod	low	tg	ms	wh/0295.bmp
491.76	0.72	674	3	4	113	per	con	low	mod	low	tg	ms	wh/0511.bmp
492.48	0.72	675	6	4	68	mem	lib	mod	mod	mod	tg	ms	wh/0796.bmp
493.20	0.72	676	5	1	41	per	con	low	mod	low	nt	cr	nh/0067_nh.bmp
493.92	0.72	677	4	3	2	per	con	mod	mod	mod	nt	cr	nh/0583_nh.bmp
494.64	0.72	678	5	4	121	per	con	low	mod	low	tg	ht	wh/0661.bmp
495.36	0.72	679	4	1	67	mem	con	mod	mod	low	nt	ht	nh/0283_nh.bmp
496.08	0.72	680	1	3	62	mem	lib	low	low	low	nt	ht	nh/0160_nh.bmp
496.80	0.72	681	5	1	111	per	lib	low	mod	low	tg	ht	wh/0291.bmp
497.52	0.72	682	5	2	86	mem	lib	mod	mod	mod	nt	ht	nh/0689_nh.bmp
498.24	0.72	683	4	3	70	mem	con	mod	mod	low	tg	ht	wh/0496.bmp
498.96	0.72	684	5	1	53	per	lib	mod	mod	mod	tg	ht	wh/0343.bmp
499.68	0.72	685	5	2	93	mem	lib	mod	mod	mod	tg	ht	wh/0664.bmp
500.40	0.72	686	5	3	47	mem	lib	mod	mod	low	nt	ht	nh/0438_nh.bmp
501.12	0.72	687	4	1	38	per	con	low	mod	low	nt	cr	nh/0174_nh.bmp
501.84	0.72	688	3	1	116	mem	lib	mod	mod	low	nt	ms	nh/0509_nh.bmp
502.56	0.72	689	6	4	79	mem	lib	mod	mod	mod	nt	ht	nh/0925_nh.bmp
503.28	0.72	690	6	1	69	mem	con	mod	mod	low	tg	ht	wh/0454.bmp
504.00	0.72	691	4	3	75	mem	con	mod	mod	low	nt	ht	nh/0422_nh.bmp
504.72	0.72	692	5	2	55	mem	con	mod	mod	mod	nt	ms	nh/0061_nh.bmp
505.44	0.72	693	5	1	121	mem	lib	mod	mod	low	nt	ht	nh/0315_nh.bmp
506.16	0.72	694	5	3	2	per	con	mod	mod	mod	nt	cr	nh/0583_nh.bmp
506.88	0.72	695	6	4	121	per	con	low	mod	low	tg	ht	wh/0661.bmp
507.60	0.72	696	4	2	95	mem	lib	mod	mod	mod	tg	ht	wh/0895.bmp
508.32	0.72	697	5	1	125	mem	lib	mod	mod	low	tg	ms	wh/0246.bmp
509.04	0.72	698	4	1	60	per	lib	mod	mod	mod	nt	cr	nh/0282_nh.bmp
509.76	0.72	699	5	4	101	mem	con	mod	mod	mod	nt	ht	nh/0359_nh.bmp
510.48	0.72	700	3	4	122	per	con	low	mod	low	nt	cr	nh/0368_nh.bmp
511.20	0.72	701	5	1	52	per	lib	mod	mod	mod	nt	cr	nh/0753_nh.bmp
511.92	0.72	702	4	1	116	mem	lib	mod	mod	low	nt	ms	nh/0509_nh.bmp
512.64	0.72	703	5	1	104	per	lib	low	mod	low	tg	ms	wh/0131.bmp
513.36	0.72	704	5	1	110	per	lib	low	mod	low	nt	cr	nh/0236_nh.bmp
514.08	0.72	705	6	4	6	per	lib	low	mod	low	tg	ms	wh/0415.bmp
514.80	0.72	706	5	1	116	mem	lib	mod	mod	low	nt	ms	nh/0509_nh.bmp
515.52	0.72	707	6	1	57	per	lib	mod	mod	mod	tg	ms	wh/0538.bmp
516.24	0.72	708	5	1	11	per	con	mod	mod	mod	tg	ht	wh/0039.bmp
516.96	0.72	709	6	4	52	per	lib	mod	mod	mod	nt	fa	nh/1006_nh.bmp
517.68	0.72	710	5	4	16	per	lib	low	mod	low	tg	ms	wh/0312.bmp
518.40	0.72	711	5	4	63	per	lib	mod	mod	mod	tg	ms	wh/0071.bmp
519.12	0.72	712	5	1	60	per	lib	mod	mod	mod	nt	cr	nh/0282_nh.bmp
519.84	0.72	713	6	1	100	per	lib	low	mod	low	tg	ms	wh/0390.bmp
520.56	0.72	714	1	1	32	mem	lib	low	low	mod	nt	ht	nh/0595_nh.bmp
521.28	0.72	715	5	2	58	mem	con	mod	mod	mod	nt	ms	nh/0943_nh.bmp
522.00	0.72	716	5	1	8	per	con	mod	mod	mod	tg	ht	wh/0477.bmp
522.72	0.72	717	4	4	50	per	lib	mod	mod	mod	tg	ms	wh/0901.bmp
523.44	0.72	718	5	4	5	per	lib	low	mod	low	nt	cr	nh/0494_nh.bmp
524.16	0.72	719	6	1	104	per	lib	low	mod	low	tg	ms	wh/0131.bmp
524.88	0.72	720	5	1	115	mem	lib	mod	mod	low	nt	ms	nh/0081_nh.bmp
525.60	0.72	721	5	2	92	mem	lib	mod	mod	mod	nt	ms	nh/0592_nh.bmp
526.32	0.72	722	5	2	59	mem	con	mod	mod	mod	nt	ms	nh/0427_nh.bmp
527.04	0.72	723	4	4	116	per	con	low	mod	low	nt	cr	nh/0203_nh.bmp
527.76	0.72	724	1	4	36	mem	con	low	low	low	nt	ms	nh/0911_nh.bmp
528.48	0.72	725	5	1	38	per	con	low	mod	low	nt	cr	nh/0174_nh.bmp
529.20	0.72	726	4	1	58	per	lib	mod	mod	mod	nt	cr	nh/0490_nh.bmp
529.92	0.72	727	4	1	78	mem	con	mod	mod	low	nt	ht	nh/1000_nh.bmp
530.64	0.72	728	6	1	60	per	lib	mod	mod	mod	nt	cr	nh/0282_nh.bmp
531.36	0.72	729	4	3	6	per	con	mod	mod	mod	tg	ht	wh/0413.bmp
532.08	0.72	730	6	4	120	per	con	low	mod	low	nt	cr	nh/0323_nh.bmp
532.80	0.72	731	1	4	19	mem	lib	low	low	mod	tg	ms	wh/0630.bmp
533.52	0.72	732	5	1	123	mem	lib	mod	mod	low	tg	ms	wh/0410.bmp
534.24	0.72	733	5	1	118	mem	lib	mod	mod	low	tg	ht	wh/0030.bmp
534.96	0.72	734	3	1	44	per	con	low	mod	low	tg	ms	wh/0512.bmp
535.68	0.72	735	5	2	95	mem	lib	mod	mod	mod	tg	ht	wh/0895.bmp
536.40	0.72	736	1	3	113	mem	con	low	low	mod	nt	ms	nh/0517_nh.bmp
537.12	0.72	737	5	2	50	mem	con	mod	mod	mod	tg	ht	wh/0931.bmp
537.84	0.72	738	5	4	61	per	lib	mod	mod	mod	nt	cr	nh/1010_nh.bmp
538.56	0.72	739	4	4	122	per	con	low	mod	low	nt	cr	nh/0368_nh.bmp
539.28	0.72	740	6	3	9	per	con	mod	mod	mod	tg	ms	wh/0104.bmp
540.00	0.72	741	4	4	113	per	con	low	mod	low	tg	ms	wh/0511.bmp
540.72	0.72	742	6	1	123	mem	lib	mod	mod	low	tg	ms	wh/0410.bmp
541.44	0.72	743	4	1	44	per	con	low	mod	low	tg	ms	wh/0512.bmp
542.16	0.72	744	6	1	41	per	con	low	mod	low	nt	cr	nh/0067_nh.bmp
542.88	0.72	745	6	1	12	per	con	mod	mod	mod	tg	ms	wh/0809.bmp
543.60	0.72	746	6	1	5	per	con	mod	mod	mod	nt	cr	nh/0834_nh.bmp
544.32	0.72	747	6	1	8	per	con	mod	mod	mod	tg	ht	wh/0477.bmp
545.04	0.72	748	4	1	119	mem	lib	mod	mod	low	nt	ht	nh/0575_nh.bmp
545.76	0.72	749	5	1	58	per	lib	mod	mod	mod	nt	cr	nh/0490_nh.bmp
546.48	0.72	750	6	1	112	per	lib	low	mod	low	tg	ms	wh/0523.bmp
547.20	0.72	751	1	2	75	per	con	low	low	low	tg	ms	wh/0632.bmp
547.92	0.72	752	6	4	63	per	lib	mod	mod	mod	tg	ms	wh/0071.bmp
548.64	0.72	753	4	3	16	per	con	mod	mod	mod	tg	ms	wh/0983.bmp
549.36	0.72	754	3	3	14	per	con	mod	mod	mod	nt	cr	nh/0674_nh.bmp
550.08	0.72	755	5	1	67	mem	con	mod	mod	low	nt	ht	nh/0283_nh.bmp
550.80	0.72	756	5	1	78	mem	con	mod	mod	low	nt	ht	nh/1000_nh.bmp
551.52	0.72	757	5	2	81	mem	lib	mod	mod	mod	tg	ms	wh/0229.bmp
552.24	0.72	758	5	4	113	per	con	low	mod	low	tg	ms	wh/0511.bmp
552.96	0.72	759	4	3	35	mem	lib	mod	mod	low	tg	ht	wh/0263.bmp
553.68	0.72	760	5	4	119	per	con	low	mod	low	tg	ht	wh/0124.bmp
554.40	0.72	761	6	2	55	mem	con	mod	mod	mod	nt	ms	nh/0061_nh.bmp
555.12	0.72	762	1	3	53	mem	lib	low	low	low	nt	ms	nh/0078_nh.bmp
555.84	0.72	763	6	4	16	per	lib	low	mod	low	tg	ms	wh/0312.bmp
556.56	0.72	764	6	1	70	mem	con	mod	mod	low	nt	ms	nh/0400_nh.bmp
557.28	0.72	765	5	4	116	per	con	low	mod	low	nt	cr	nh/0203_nh.bmp
558.00	0.72	766	6	1	53	per	lib	mod	mod	mod	tg	ht	wh/0343.bmp
558.72	0.72	767	5	1	75	mem	con	mod	mod	low	tg	ht	wh/0703.bmp
559.44	0.72	768	6	4	116	per	con	low	mod	low	nt	cr	nh/0203_nh.bmp
560.16	0.72	769	1	2	38	mem	lib	low	low	low	tg	ht	wh/0356.bmp
560.88	0.72	770	4	4	60	per	lib	mod	mod	mod	tg	ht	wh/0320.bmp
561.60	0.72	771	3	1	99	per	lib	low	mod	low	nt	cr	nh/0424_nh.bmp
562.32	0.72	772	1	1	92	mem	con	low	low	mod	tg	ht	wh/0606.bmp
563.04	0.72	773	6	3	69	mem	con	mod	mod	low	tg	ms	wh/0212.bmp
563.76	0.72	774	6	4	3	per	lib	low	mod	low	nt	cr	nh/1013_nh.bmp
564.48	0.72	775	5	1	109	per	lib	low	mod	low	nt	cr	nh/0615_nh.bmp
565.20	0.72	776	4	1	99	per	lib	low	mod	low	nt	cr	nh/0424_nh.bmp
565.92	0.72	777	5	1	120	mem	lib	mod	mod	low	tg	ht	wh/0166.bmp
566.64	0.72	778	6	1	121	mem	lib	mod	mod	low	nt	ht	nh/0315_nh.bmp
567.36	0.72	779	5	3	70	mem	con	mod	mod	low	tg	ht	wh/0496.bmp
568.08	0.72	780	5	1	107	per	lib	low	mod	low	nt	cr	nh/0798_nh.bmp
568.80	0.72	781	6	4	119	per	con	low	mod	low	tg	ht	wh/0124.bmp
569.52	0.72	782	6	3	47	mem	lib	mod	mod	low	nt	ht	nh/0438_nh.bmp
570.24	0.72	783	5	3	75	mem	con	mod	mod	low	nt	ht	nh/0422_nh.bmp
570.96	0.72	784	5	3	71	mem	con	mod	mod	low	nt	ht	nh/0259_nh.bmp
571.68	0.72	785	6	3	15	per	con	mod	mod	mod	nt	cr	nh/0348_nh.bmp
572.40	0.72	786	5	1	34	per	con	low	mod	low	tg	ms	wh/0683.bmp
573.12	0.72	787	6	1	73	mem	con	mod	mod	low	tg	ht	wh/0132.bmp
573.84	0.72	788	5	2	83	mem	lib	mod	mod	mod	tg	ht	wh/0448.bmp
574.56	0.72	789	5	4	122	per	con	low	mod	low	nt	cr	nh/0368_nh.bmp
575.28	0.72	790	5	1	44	per	con	low	mod	low	tg	ms	wh/0512.bmp
576.00	0.72	791	6	1	58	per	lib	mod	mod	mod	nt	cr	nh/0490_nh.bmp
576.72	0.72	792	6	4	58	per	lib	mod	mod	mod	tg	ms	wh/0742.bmp
577.44	0.72	793	6	1	44	per	con	low	mod	low	tg	ms	wh/0512.bmp
578.16	0.72	794	5	4	60	per	lib	mod	mod	mod	tg	ht	wh/0320.bmp
578.88	0.72	795	4	3	14	per	con	mod	mod	mod	nt	cr	nh/0674_nh.bmp
579.60	0.72	796	4	4	99	mem	con	mod	mod	mod	tg	ms	wh/0799.bmp
580.32	0.72	797	4	1	56	per	lib	mod	mod	mod	tg	ht	wh/0705.bmp
581.04	0.72	798	6	4	4	per	lib	low	mod	low	tg	ms	wh/0295.bmp
581.76	0.72	799	5	4	50	per	lib	mod	mod	mod	tg	ms	wh/0901.bmp
582.48	0.72	800	5	3	16	per	con	mod	mod	mod	tg	ms	wh/0983.bmp
583.20	0.72	801	6	1	118	mem	lib	mod	mod	low	tg	ht	wh/0030.bmp
583.92	0.72	802	6	2	62	mem	con	mod	mod	mod	nt	ms	nh/0072_nh.bmp
584.64	0.72	803	1	4	81	per	con	mod	low	mod	nt	cr	nh/0050_nh.bmp
585.36	0.72	804	6	1	11	per	con	mod	mod	mod	tg	ht	wh/0039.bmp
586.08	0.72	805	6	1	2	per	con	mod	mod	mod	tg	ht	wh/0861.bmp
586.80	0.72	806	5	4	65	mem	lib	mod	mod	mod	nt	ht	nh/0279_nh.bmp
587.52	0.72	807	6	1	110	per	lib	low	mod	low	nt	cr	nh/0236_nh.bmp
588.24	0.72	808	6	2	58	mem	con	mod	mod	mod	nt	ms	nh/0943_nh.bmp
588.96	0.72	809	6	2	92	mem	lib	mod	mod	mod	nt	ms	nh/0592_nh.bmp
589.68	0.72	810	6	1	35	per	con	low	mod	low	nt	cr	nh/0643_nh.bmp
590.40	0.72	811	1	1	25	mem	lib	low	low	mod	nt	ht	nh/0644_nh.bmp
591.12	0.72	812	6	1	34	per	con	low	mod	low	tg	ms	wh/0683.bmp
591.84	0.72	813	6	4	61	per	lib	mod	mod	mod	nt	cr	nh/1010_nh.bmp
592.56	0.72	814	6	1	52	per	lib	mod	mod	mod	nt	cr	nh/0753_nh.bmp
593.28	0.72	815	5	1	99	per	lib	low	mod	low	nt	cr	nh/0424_nh.bmp
594.00	0.72	816	5	3	48	mem	lib	mod	mod	low	nt	ht	nh/0914_nh.bmp
594.72	0.72	817	6	4	102	mem	con	mod	mod	mod	tg	ms	wh/0628.bmp
595.44	0.72	818	6	4	60	per	lib	mod	mod	mod	tg	ht	wh/0320.bmp
596.16	0.72	819	6	4	65	mem	lib	mod	mod	mod	nt	ht	nh/0279_nh.bmp
596.88	0.72	820	6	1	55	per	lib	mod	mod	mod	tg	ht	wh/0151.bmp
597.60	0.72	821	6	1	7	per	con	mod	mod	mod	nt	cr	nh/0358_nh.bmp
598.32	0.72	822	6	3	80	mem	con	mod	mod	low	nt	ht	nh/0672_nh.bmp
599.04	0.72	823	6	1	109	per	lib	low	mod	low	nt	cr	nh/0615_nh.bmp
599.76	0.72	824	1	2	74	per	con	low	low	low	nt	cr	nh/0310_nh.bmp
600.48	0.72	825	5	1	56	per	lib	mod	mod	mod	tg	ht	wh/0705.bmp
601.20	0.72	826	5	4	99	mem	con	mod	mod	mod	tg	ms	wh/0799.bmp
601.92	0.72	827	6	3	38	mem	lib	mod	mod	low	nt	ms	nh/0554_nh.bmp
602.64	0.72	828	6	2	86	mem	lib	mod	mod	mod	nt	ht	nh/0689_nh.bmp
603.36	0.72	829	6	4	5	per	lib	low	mod	low	nt	cr	nh/0494_nh.bmp
604.08	0.72	830	6	1	56	per	lib	mod	mod	mod	tg	ht	wh/0705.bmp
604.80	0.72	831	5	3	14	per	con	mod	mod	mod	nt	cr	nh/0674_nh.bmp
605.52	0.72	832	6	3	14	per	con	mod	mod	mod	nt	cr	nh/0674_nh.bmp
606.24	0.72	833	1	2	114	per	con	mod	low	mod	tg	ms	wh/0192.bmp
606.96	0.72	834	5	1	119	mem	lib	mod	mod	low	nt	ht	nh/0575_nh.bmp
607.68	0.72	835	1	4	47	mem	con	low	low	low	nt	ms	nh/0505_nh.bmp
608.40	0.72	836	6	1	67	mem	con	mod	mod	low	nt	ht	nh/0283_nh.bmp
609.12	0.72	837	6	1	125	mem	lib	mod	mod	low	tg	ms	wh/0246.bmp
609.84	0.72	838	1	3	25	per	lib	mod	low	mod	tg	ms	wh/0950.bmp
610.56	0.72	839	1	3	125	mem	con	low	low	mod	tg	ms	wh/0069.bmp
611.28	0.72	840	6	1	111	per	lib	low	mod	low	tg	ht	wh/0291.bmp
612.00	0.72	841	6	1	115	mem	lib	mod	mod	low	nt	ms	nh/0081_nh.bmp
612.72	0.72	842	6	3	71	mem	con	mod	mod	low	nt	ht	nh/0259_nh.bmp
613.44	0.72	843	6	1	78	mem	con	mod	mod	low	nt	ht	nh/1000_nh.bmp
614.16	0.72	844	3	1	45	per	con	low	mod	low	nt	cr	nh/0757_nh.bmp
614.88	0.72	845	5	3	35	mem	lib	mod	mod	low	tg	ht	wh/0263.bmp
615.60	0.72	846	6	3	48	mem	lib	mod	mod	low	nt	ht	nh/0914_nh.bmp
616.32	0.72	847	6	3	2	per	con	mod	mod	mod	nt	cr	nh/0583_nh.bmp
617.04	0.72	848	6	4	117	per	con	low	mod	low	tg	ms	wh/0988.bmp
617.76	0.72	849	6	2	50	mem	con	mod	mod	mod	tg	ht	wh/0931.bmp
618.48	0.72	850	6	3	70	mem	con	mod	mod	low	tg	ht	wh/0496.bmp
619.20	0.72	851	1	1	83	mem	con	low	low	mod	nt	ms	nh/0539_nh.bmp
619.92	0.72	852	6	1	99	per	lib	low	mod	low	nt	cr	nh/0424_nh.bmp
620.64	0.72	853	6	1	120	mem	lib	mod	mod	low	tg	ht	wh/0166.bmp
621.36	0.72	854	6	4	13	per	lib	low	mod	low	nt	cr	nh/0007_nh.bmp
622.08	0.72	855	6	4	57	per	lib	mod	mod	mod	nt	cr	nh/0576_nh.bmp
622.80	0.72	856	6	2	81	mem	lib	mod	mod	mod	tg	ms	wh/0229.bmp
623.52	0.72	857	6	4	107	mem	con	mod	mod	mod	nt	ht	nh/0313_nh.bmp
624.24	0.72	858	1	4	48	mem	con	low	low	low	tg	ms	wh/0011.bmp
624.96	0.72	859	6	1	107	per	lib	low	mod	low	nt	cr	nh/0798_nh.bmp
625.68	0.72	860	6	1	14	per	con	mod	mod	mod	nt	cr	nh/0344_nh.bmp
626.40	0.72	861	6	1	119	mem	lib	mod	mod	low	nt	ht	nh/0575_nh.bmp
627.12	0.72	862	5	3	6	per	con	mod	mod	mod	tg	ht	wh/0413.bmp
627.84	0.72	863	4	1	45	per	con	low	mod	low	nt	cr	nh/0757_nh.bmp
628.56	0.72	864	6	2	95	mem	lib	mod	mod	mod	tg	ht	wh/0895.bmp
629.28	0.72	865	6	3	6	per	con	mod	mod	mod	tg	ht	wh/0413.bmp
630.00	0.72	866	6	4	71	mem	lib	mod	mod	mod	tg	ht	wh/0137.bmp
630.72	0.72	867	6	4	113	per	con	low	mod	low	tg	ms	wh/0511.bmp
631.44	0.72	868	6	4	122	per	con	low	mod	low	nt	cr	nh/0368_nh.bmp
632.16	0.72	869	1	2	48	mem	lib	low	low	low	nt	ht	nh/0743_nh.bmp
632.88	0.72	870	5	1	45	per	con	low	mod	low	nt	cr	nh/0757_nh.bmp
633.60	0.72	871	6	2	93	mem	lib	mod	mod	mod	tg	ht	wh/0664.bmp
634.32	0.72	872	6	4	50	per	lib	mod	mod	mod	tg	ms	wh/0901.bmp
635.04	0.72	873	1	1	94	mem	con	low	low	mod	nt	ms	nh/0667_nh.bmp
635.76	0.72	874	6	4	99	mem	con	mod	mod	mod	tg	ms	wh/0799.bmp
636.48	0.72	875	1	3	92	per	lib	low	low	low	nt	cr	nh/0504_nh.bmp
637.20	0.72	876	6	1	45	per	con	low	mod	low	nt	cr	nh/0757_nh.bmp
637.92	0.72	877	1	3	122	mem	con	low	low	mod	tg	ht	wh/0723.bmp
638.64	0.72	878	6	1	75	mem	con	mod	mod	low	tg	ht	wh/0703.bmp
639.36	0.72	879	6	2	64	mem	con	mod	mod	mod	tg	ms	wh/0365.bmp
640.08	0.72	880	6	1	63	per	lib	mod	mod	mod	nt	cr	nh/0445_nh.bmp
640.80	0.72	881	6	3	35	mem	lib	mod	mod	low	tg	ht	wh/0263.bmp
641.52	0.72	882	6	2	82	mem	lib	mod	mod	mod	nt	ms	nh/0479_nh.bmp
642.24	0.72	883	6	2	59	mem	con	mod	mod	mod	nt	ms	nh/0427_nh.bmp
642.96	0.72	884	1	1	85	mem	con	low	low	mod	tg	ms	wh/0557.bmp
643.68	0.72	885	6	2	91	mem	lib	mod	mod	mod	nt	ht	nh/0806_nh.bmp
644.40	0.72	886	6	2	83	mem	lib	mod	mod	mod	tg	ht	wh/0448.bmp
645.12	0.72	887	6	4	111	mem	con	mod	mod	mod	tg	ht	wh/0562.bmp
645.84	0.72	888	1	3	114	mem	con	low	low	mod	tg	ht	wh/0102.bmp
646.56	0.72	889	6	4	106	mem	con	mod	mod	mod	tg	ht	wh/0333.bmp
647.28	0.72	890	6	3	16	per	con	mod	mod	mod	tg	ms	wh/0983.bmp
648.00	0.72	891	6	1	116	mem	lib	mod	mod	low	nt	ms	nh/0509_nh.bmp
648.72	0.72	892	6	4	101	mem	con	mod	mod	mod	nt	ht	nh/0359_nh.bmp
649.44	0.72	893	6	3	75	mem	con	mod	mod	low	nt	ht	nh/0422_nh.bmp
650.16	0.72	894	6	1	38	per	con	low	mod	low	nt	cr	nh/0174_nh.bmp
650.88	0.72	895	1	3	95	per	lib	low	low	low	tg	ms	wh/0524.bmp
651.60	0.72	896	6	4	9	per	lib	low	mod	low	tg	ht	wh/0444.bmp
