onset	duration	block	trial	task	crit	disc	mem_disc	per_disc	trial_type	mem_type	per_type	left_option	resp_hand	response	accuracy	response_time	stim_file	pay	pay_tot
7.2	7.2	1	n/a	mem	lib	mod	n/a	n/a	instructions	n/a	n/a	n/a	n/a	n/a	n/a	n/a	n/a	n/a	n/a
14.72	1.4178	1	1	mem	lib	mod	mod	mod	nt	nt	tg	nt	left	nt	cr	1.0178	wh/0609.bmp	0.05	10.3
18.32	1.4709	1	2	mem	lib	mod	mod	mod	tg	tg	nt	tg	right	nt	ms	1.0709	nh/0540_nh.bmp	-0.1	10.2
21.2	1.02192	1	3	mem	lib	mod	mod	mod	tg	tg	tg	tg	right	nt	ms	0.62192	wh/0803.bmp	-0.1	10.1
24.8	1.23489	1	4	mem	lib	mod	mod	mod	tg	tg	nt	nt	right	tg	ht	0.83489	nh/0807_nh.bmp	0.05	10.15
28.4	1.10799	1	5	mem	lib	mod	mod	mod	tg	tg	tg	tg	left	tg	ht	0.70799	wh/0928.bmp	0.05	10.2
31.28	1.01233	1	6	mem	lib	mod	mod	mod	nt	nt	nt	nt	left	nt	cr	0.61233	nh/0764_nh.bmp	0.05	10.25
34.16	1.10296	1	7	mem	lib	mod	mod	mod	tg	tg	tg	nt	right	tg	ht	0.70296	wh/0909.bmp	0.05	10.3
37.04	1.483	1	8	mem	lib	mod	mod	mod	nt	nt	tg	nt	right	tg	fa	1.083	wh/0269.bmp	0	10.3
41.36	1.09933	1	9	mem	lib	mod	mod	mod	tg	tg	tg	tg	right	nt	ms	0.69933	wh/0371.bmp	-0.1	10.2
44.24	1.13975	1	10	mem	lib	mod	mod	mod	tg	tg	nt	nt	right	tg	ht	0.73975	nh/0716_nh.bmp	0.05	10.25
47.84	1.31673	1	11	mem	lib	mod	mod	mod	nt	nt	tg	tg	left	tg	fa	0.91673	wh/0602.bmp	0	10.25
52.16	1.2058	1	12	mem	lib	mod	mod	mod	nt	nt	nt	nt	left	nt	cr	0.8058	nh/0715_nh.bmp	0.05	10.3
55.04	1.06117	1	13	mem	lib	mod	mod	mod	tg	tg	nt	nt	left	nt	ms	0.66117	nh/0772_nh.bmp	-0.1	10.2
57.92	1.728	1	14	mem	lib	mod	mod	mod	nt	nt	tg	tg	right	nt	cr	1.328	wh/0871.bmp	0.05	10.25
62.24	1.08387	1	15	mem	lib	mod	mod	mod	nt	nt	nt	tg	left	tg	fa	0.68387	nh/0495_nh.bmp	0	10.25
65.12	1.02125	1	16	mem	lib	mod	mod	mod	nt	nt	nt	tg	right	nt	cr	0.62125	nh/0851_nh.bmp	0.05	10.3
67.68	3.6	1	n/a	mem	lib	mod	n/a	n/a	feedback	n/a	n/a	n/a	n/a	n/a	n/a	n/a	n/a	n/a	n/a
72.72	7.2	2	n/a	per	lib	low	n/a	n/a	instructions	n/a	n/a	n/a	n/a	n/a	n/a	n/a	n/a	n/a	n/a
80.96	1.12375	2	17	per	lib	low	mod	low	nt	nt	nt	nt	left	nt	cr	0.72375	nh/1014_nh.bmp	0.05	10.35
83.84	0.91707	2	18	per	lib	low	mod	low	nt	nt	nt	tg	right	nt	cr	0.51707	nh/0064_nh.bmp	0.05	10.4
86.72	1.01511	2	19	per	lib	low	mod	low	tg	nt	tg	tg	right	nt	ms	0.61511	wh/0012.bmp	-0.1	10.3
89.6	1.0032	2	20	per	lib	low	mod	low	tg	nt	tg	tg	left	tg	ht	0.6032	wh/0254.bmp	0.05	10.35
92.48	1.36993	2	21	per	lib	low	mod	low	nt	nt	nt	nt	left	nt	cr	0.96993	nh/0640_nh.bmp	0.05	10.4
96.8	1.8519	2	22	per	lib	low	mod	low	nt	tg	nt	tg	right	nt	cr	1.4519	nh/0079_nh.bmp	0.05	10.45
100.4	0.91292	2	23	per	lib	low	mod	low	tg	tg	tg	tg	right	nt	ms	0.51292	wh/0153.bmp	-0.1	10.35
104	1.29891	2	24	per	lib	low	mod	low	tg	tg	tg	nt	left	nt	ms	0.89891	wh/0417.bmp	-0.1	10.25
107.6	1.30073	2	25	per	lib	low	mod	low	nt	tg	nt	nt	left	nt	cr	0.90073	nh/0451_nh.bmp	0.05	10.3
110.48	1.5719	2	26	per	lib	low	mod	low	tg	tg	tg	tg	right	nt	ms	1.1719	wh/0613.bmp	-0.1	10.2
113.36	1.03848	2	27	per	lib	low	mod	low	nt	tg	nt	nt	left	nt	cr	0.63848	nh/0336_nh.bmp	0.05	10.25
116.96	1.03463	2	28	per	lib	low	mod	low	tg	nt	tg	tg	right	nt	ms	0.63463	wh/0780.bmp	-0.1	10.15
120.56	1.24879	2	29	per	lib	low	mod	low	tg	nt	tg	nt	left	nt	ms	0.84879	wh/0139.bmp	-0.1	10.05
123.44	1.00141	2	30	per	lib	low	mod	low	nt	tg	nt	nt	right	tg	fa	0.60141	nh/0150_nh.bmp	0	10.05
127.04	1.24987	2	31	per	lib	low	mod	low	nt	nt	nt	nt	left	nt	cr	0.84987	nh/0111_nh.bmp	0.05	10.1
129.92	0.94438	2	32	per	lib	low	mod	low	tg	tg	tg	tg	right	nt	ms	0.54438	wh/0802.bmp	-0.1	10
132.48	3.6	2	n/a	per	lib	low	n/a	n/a	feedback	n/a	n/a	n/a	n/a	n/a	n/a	n/a	n/a	n/a	n/a
137.52	7.2	3	n/a	mem	con	mod	n/a	n/a	instructions	n/a	n/a	n/a	n/a	n/a	n/a	n/a	n/a	n/a	n/a
145.04	1.6259	3	33	mem	con	mod	mod	mod	tg	tg	tg	tg	right	nt	ms	1.2259	wh/0805.bmp	0	10
149.36	0.80581	3	34	mem	con	mod	mod	mod	tg	tg	tg	nt	right	tg	ht	0.40581	wh/0273.bmp	0.05	10.05
152.24	1.8729	3	35	mem	con	mod	mod	mod	nt	nt	nt	nt	right	tg	fa	1.4729	nh/0560_nh.bmp	-0.1	9.95
155.84	1.03655	3	36	mem	con	mod	mod	mod	tg	tg	nt	tg	left	tg	ht	0.63655	nh/0904_nh.bmp	0.05	10
158.72	0.94539	3	37	mem	con	mod	mod	mod	nt	nt	tg	tg	right	nt	cr	0.54539	wh/0797.bmp	0.05	10.05
161.6	0.98151	3	38	mem	con	mod	mod	mod	nt	nt	tg	tg	right	nt	cr	0.58151	wh/0833.bmp	0.05	10.1
164.48	0.95512	3	39	mem	con	mod	mod	mod	tg	tg	nt	tg	right	nt	ms	0.55512	nh/0650_nh.bmp	0	10.1
168.8	1.26086	3	40	mem	con	mod	mod	mod	tg	tg	nt	nt	right	tg	ht	0.86086	nh/0182_nh.bmp	0.05	10.15
171.68	0.96595	3	41	mem	con	mod	mod	mod	tg	tg	nt	tg	left	tg	ht	0.56595	nh/0810_nh.bmp	0.05	10.2
174.56	1.26183	3	42	mem	con	mod	mod	mod	nt	nt	nt	tg	right	nt	cr	0.86183	nh/0337_nh.bmp	0.05	10.25
178.16	1.34097	3	43	mem	con	mod	mod	mod	tg	tg	tg	nt	left	nt	ms	0.94097	wh/0209.bmp	0	10.25
181.04	1.1528	3	44	mem	con	mod	mod	mod	nt	nt	tg	tg	right	nt	cr	0.7528	wh/0599.bmp	0.05	10.3
184.64	1.14287	3	45	mem	con	mod	mod	mod	nt	nt	nt	nt	left	nt	cr	0.74287	nh/0995_nh.bmp	0.05	10.35
188.96	1.02509	3	46	mem	con	mod	mod	mod	nt	nt	tg	tg	right	nt	cr	0.62509	wh/0408.bmp	0.05	10.4
193.28	1.12494	3	47	mem	con	mod	mod	mod	tg	tg	tg	tg	right	nt	ms	0.72494	wh/0428.bmp	0	10.4
196.88	1.12381	3	48	mem	con	mod	mod	mod	nt	nt	nt	nt	left	nt	cr	0.72381	nh/0623_nh.bmp	0.05	10.45
200.16	3.6	3	n/a	mem	con	mod	n/a	n/a	feedback	n/a	n/a	n/a	n/a	n/a	n/a	n/a	n/a	n/a	n/a
204.48	7.2	4	n/a	per	con	low	n/a	n/a	instructions	n/a	n/a	n/a	n/a	n/a	n/a	n/a	n/a	n/a	n/a
213.44	1.086	4	49	per	con	low	low	low	tg	tg	tg	tg	left	tg	ht	0.686	wh/0701.bmp	0.05	10.5
216.32	0.8227	4	50	per	con	low	low	low	tg	nt	tg	tg	right	nt	ms	0.4227	wh/0181.bmp	0	10.5
220.64	0.80938	4	51	per	con	low	low	low	nt	nt	nt	tg	right	nt	cr	0.40938	nh/0639_nh.bmp	0.05	10.55
224.96	0.82213	4	52	per	con	low	low	low	nt	nt	nt	tg	right	nt	cr	0.42213	nh/0005_nh.bmp	0.05	10.6
227.84	0.96378	4	53	per	con	low	low	low	tg	nt	tg	tg	right	nt	ms	0.56378	wh/0240.bmp	0	10.6
232.16	1.21195	4	54	per	con	low	low	low	tg	tg	tg	nt	left	nt	ms	0.81195	wh/0370.bmp	0	10.6
236.48	0.93969	4	55	per	con	low	low	low	tg	tg	tg	nt	right	tg	ht	0.53969	wh/0930.bmp	0.05	10.65
239.36	1.9488	4	56	per	con	low	low	low	tg	nt	tg	tg	right	nt	ms	1.5488	wh/0770.bmp	0	10.65
242.24	0.92561	4	57	per	con	low	low	low	nt	tg	nt	tg	right	nt	cr	0.52561	nh/0579_nh.bmp	0.05	10.7
245.84	0.9232	4	58	per	con	low	low	low	nt	nt	nt	tg	right	nt	cr	0.5232	nh/0219_nh.bmp	0.05	10.75
250.16	1.25494	4	59	per	con	low	low	low	nt	nt	nt	tg	right	nt	cr	0.85494	nh/0144_nh.bmp	0.05	10.8
253.04	0.77652	4	60	per	con	low	low	low	nt	tg	nt	tg	right	nt	cr	0.37652	nh/0789_nh.bmp	0.05	10.85
256.64	1.5319	4	61	per	con	low	low	low	nt	tg	nt	nt	left	nt	cr	1.1319	nh/0185_nh.bmp	0.05	10.9
260.24	1.38382	4	62	per	con	low	low	low	nt	tg	nt	nt	left	nt	cr	0.98382	nh/0815_nh.bmp	0.05	10.95
263.12	1.0185	4	63	per	con	low	low	low	tg	tg	tg	tg	right	nt	ms	0.6185	wh/0864.bmp	0	10.95
266	1.53	4	64	per	con	low	low	low	tg	nt	tg	nt	left	nt	ms	1.13	wh/0224.bmp	0	10.95
268.56	3.6	4	n/a	per	con	low	n/a	n/a	feedback	n/a	n/a	n/a	n/a	n/a	n/a	n/a	n/a	n/a	n/a
273.6	7.2	5	n/a	mem	con	low	n/a	n/a	instructions	n/a	n/a	n/a	n/a	n/a	n/a	n/a	n/a	n/a	n/a
281.84	1.39572	5	65	mem	con	low	low	low	nt	nt	nt	nt	left	nt	cr	0.99572	nh/0268_nh.bmp	0.05	11
285.44	1.00719	5	66	mem	con	low	low	low	nt	nt	nt	tg	right	nt	cr	0.60719	nh/0566_nh.bmp	0.05	11.05
288.32	1.1908	5	67	mem	con	low	low	low	nt	nt	tg	tg	right	nt	cr	0.7908	wh/0352.bmp	0.05	11.1
292.64	0.98261	5	68	mem	con	low	low	low	tg	tg	nt	nt	left	nt	ms	0.58261	nh/0458_nh.bmp	0	11.1
296.24	1.01312	5	69	mem	con	low	low	low	tg	tg	tg	tg	right	nt	ms	0.61312	wh/0261.bmp	0	11.1
299.12	1.4148	5	70	mem	con	low	low	low	nt	nt	tg	tg	right	nt	cr	1.0148	wh/0376.bmp	0.05	11.15
302.72	1.1498	5	71	mem	con	low	low	low	tg	tg	tg	tg	right	nt	ms	0.7498	wh/0768.bmp	0	11.15
306.32	1.7319	5	72	mem	con	low	low	low	tg	tg	nt	tg	right	nt	ms	1.3319	nh/0845_nh.bmp	0	11.15
309.2	0.86148	5	73	mem	con	low	low	low	nt	nt	nt	tg	left	tg	fa	0.46148	nh/0135_nh.bmp	-0.1	11.05
312.08	1.32593	5	74	mem	con	low	low	low	nt	nt	tg	nt	right	tg	fa	0.92593	wh/0480.bmp	-0.1	10.95
314.96	1.0073	5	75	mem	con	low	low	low	tg	tg	tg	nt	right	tg	ht	0.6073	wh/0433.bmp	0.05	11
317.84	0.93532	5	76	mem	con	low	low	low	nt	nt	nt	nt	left	nt	cr	0.53532	nh/0260_nh.bmp	0.05	11.05
321.44	1.01008	5	77	mem	con	low	low	low	nt	nt	tg	tg	right	nt	cr	0.61008	wh/0767.bmp	0.05	11.1
325.04	1.16193	5	78	mem	con	low	low	low	tg	tg	nt	nt	left	nt	ms	0.76193	nh/0706_nh.bmp	0	11.1
329.36	1.21786	5	79	mem	con	low	low	low	tg	tg	nt	nt	right	tg	ht	0.81786	nh/0513_nh.bmp	0.05	11.15
333.68	1.13785	5	80	mem	con	low	low	low	tg	tg	tg	nt	left	nt	ms	0.73785	wh/0055.bmp	0	11.15
337.68	3.6	5	n/a	mem	con	low	n/a	n/a	feedback	n/a	n/a	n/a	n/a	n/a	n/a	n/a	n/a	n/a	n/a
341.28	7.2	6	n/a	per	con	mod	n/a	n/a	instructions	n/a	n/a	n/a	n/a	n/a	n/a	n/a	n/a	n/a	n/a
350.24	0.88226	6	81	per	con	mod	low	mod	nt	nt	nt	tg	right	nt	cr	0.48226	nh/0308_nh.bmp	0.05	11.2
353.12	0.95697	6	82	per	con	mod	low	mod	tg	tg	tg	tg	left	tg	ht	0.55697	wh/0316.bmp	0.05	11.25
356	0.95516	6	83	per	con	mod	low	mod	tg	nt	tg	tg	right	nt	ms	0.55516	wh/0188.bmp	0	11.25
358.88	1.26773	6	84	per	con	mod	low	mod	nt	nt	nt	nt	left	nt	cr	0.86773	nh/0953_nh.bmp	0.05	11.3
362.48	1.12674	6	85	per	con	mod	low	mod	nt	tg	nt	nt	left	nt	cr	0.72674	nh/0290_nh.bmp	0.05	11.35
366.08	1.4279	6	86	per	con	mod	low	mod	tg	tg	tg	tg	left	tg	ht	1.0279	wh/0340.bmp	0.05	11.4
370.4	1.03115	6	87	per	con	mod	low	mod	nt	tg	nt	tg	right	nt	cr	0.63115	nh/0598_nh.bmp	0.05	11.45
373.28	1.5709	6	88	per	con	mod	low	mod	tg	tg	tg	nt	left	nt	ms	1.1709	wh/0708.bmp	0	11.45
376.16	1.20182	6	89	per	con	mod	low	mod	tg	tg	tg	tg	left	tg	ht	0.80182	wh/0782.bmp	0.05	11.5
379.04	0.95152	6	90	per	con	mod	low	mod	tg	nt	tg	tg	right	nt	ms	0.55152	wh/0093.bmp	0	11.5
383.36	1.03691	6	91	per	con	mod	low	mod	nt	nt	nt	tg	right	nt	cr	0.63691	nh/0779_nh.bmp	0.05	11.55
386.24	0.93305	6	92	per	con	mod	low	mod	nt	nt	nt	nt	left	nt	cr	0.53305	nh/0869_nh.bmp	0.05	11.6
389.12	1.17188	6	93	per	con	mod	low	mod	nt	tg	nt	tg	right	nt	cr	0.77188	nh/0669_nh.bmp	0.05	11.65
392.72	1.09718	6	94	per	con	mod	low	mod	tg	nt	tg	tg	left	tg	ht	0.69718	wh/0418.bmp	0.05	11.7
396.32	1.19998	6	95	per	con	mod	low	mod	nt	tg	nt	tg	right	nt	cr	0.79998	nh/0059_nh.bmp	0.05	11.75
399.2	1.02186	6	96	per	con	mod	low	mod	tg	nt	tg	tg	left	tg	ht	0.62186	wh/0951.bmp	0.05	11.8
403.2	3.6	6	n/a	per	con	mod	n/a	n/a	feedback	n/a	n/a	n/a	n/a	n/a	n/a	n/a	n/a	n/a	n/a
406.8	7.2	7	n/a	per	lib	mod	n/a	n/a	instructions	n/a	n/a	n/a	n/a	n/a	n/a	n/a	n/a	n/a	n/a
414.32	1.0465	7	97	per	lib	mod	mod	mod	nt	tg	nt	tg	right	nt	cr	0.6465	nh/0593_nh.bmp	0.05	11.85
417.2	1.28174	7	98	per	lib	mod	mod	mod	nt	tg	nt	nt	left	nt	cr	0.88174	nh/0339_nh.bmp	0.05	11.9
421.52	0.97264	7	99	per	lib	mod	mod	mod	nt	nt	nt	tg	right	nt	cr	0.57264	nh/0629_nh.bmp	0.05	11.95
425.12	1.04312	7	100	per	lib	mod	mod	mod	tg	tg	tg	tg	left	tg	ht	0.64312	wh/0946.bmp	0.05	12
428.72	1.09135	7	101	per	lib	mod	mod	mod	nt	nt	nt	nt	right	tg	fa	0.69135	nh/0179_nh.bmp	0	12
431.6	1.14282	7	102	per	lib	mod	mod	mod	tg	tg	tg	nt	left	nt	ms	0.74282	wh/0957.bmp	-0.1	11.9
435.92	1.30685	7	103	per	lib	mod	mod	mod	tg	tg	tg	nt	left	nt	ms	0.90685	wh/0748.bmp	-0.1	11.8
439.52	1.01397	7	104	per	lib	mod	mod	mod	tg	tg	tg	tg	left	tg	ht	0.61397	wh/0962.bmp	0.05	11.85
443.12	1.12785	7	105	per	lib	mod	mod	mod	nt	tg	nt	tg	right	nt	cr	0.72785	nh/0350_nh.bmp	0.05	11.9
446	0.96179	7	106	per	lib	mod	mod	mod	nt	nt	nt	tg	right	nt	cr	0.56179	nh/0366_nh.bmp	0.05	11.95
448.88	0.87538	7	107	per	lib	mod	mod	mod	tg	nt	tg	tg	right	nt	ms	0.47538	wh/0436.bmp	-0.1	11.85
451.76	0.76888	7	108	per	lib	mod	mod	mod	nt	tg	nt	tg	right	nt	cr	0.36888	nh/0558_nh.bmp	0.05	11.9
454.64	0.8665	7	109	per	lib	mod	mod	mod	tg	nt	tg	tg	left	tg	ht	0.4665	wh/0822.bmp	0.05	11.95
457.52	0.80813	7	110	per	lib	mod	mod	mod	nt	nt	nt	tg	right	nt	cr	0.40813	nh/0056_nh.bmp	0.05	12
461.12	1.05739	7	111	per	lib	mod	mod	mod	tg	nt	tg	tg	right	nt	ms	0.65739	wh/0971.bmp	-0.1	11.9
464.72	1.05853	7	112	per	lib	mod	mod	mod	tg	nt	tg	nt	right	tg	ht	0.65853	wh/0549.bmp	0.05	11.95
468	3.6	7	n/a	per	lib	mod	n/a	n/a	feedback	n/a	n/a	n/a	n/a	n/a	n/a	n/a	n/a	n/a	n/a
471.6	7.2	8	n/a	mem	lib	low	n/a	n/a	instructions	n/a	n/a	n/a	n/a	n/a	n/a	n/a	n/a	n/a	n/a
479.12	1.6268	8	113	mem	lib	low	low	mod	tg	tg	tg	nt	left	nt	ms	1.2268	wh/0461.bmp	-0.1	11.85
482	1.02361	8	114	mem	lib	low	low	mod	nt	nt	nt	nt	left	nt	cr	0.62361	nh/0389_nh.bmp	0.05	11.9
486.32	0.78577	8	115	mem	lib	low	low	mod	nt	nt	tg	tg	right	nt	cr	0.38577	wh/0532.bmp	0.05	11.95
490.64	0.90583	8	116	mem	lib	low	low	mod	nt	nt	nt	tg	right	nt	cr	0.50583	nh/0840_nh.bmp	0.05	12
494.24	0.97599	8	117	mem	lib	low	low	mod	tg	tg	nt	tg	left	tg	ht	0.57599	nh/0838_nh.bmp	0.05	12.05
497.84	0.87018	8	118	mem	lib	low	low	mod	tg	tg	nt	tg	left	tg	ht	0.47018	nh/1018_nh.bmp	0.05	12.1
500.72	0.94595	8	119	mem	lib	low	low	mod	nt	nt	tg	tg	right	nt	cr	0.54595	wh/0631.bmp	0.05	12.15
503.6	1.14391	8	120	mem	lib	low	low	mod	nt	nt	tg	nt	right	tg	fa	0.74391	wh/0559.bmp	0	12.15
507.2	1.13183	8	121	mem	lib	low	low	mod	tg	tg	nt	nt	right	tg	ht	0.73183	nh/0781_nh.bmp	0.05	12.2
510.08	1.05502	8	122	mem	lib	low	low	mod	nt	nt	nt	tg	left	tg	fa	0.65502	nh/0668_nh.bmp	0	12.2
513.68	1.29189	8	123	mem	lib	low	low	mod	tg	tg	nt	tg	left	tg	ht	0.89189	nh/0736_nh.bmp	0.05	12.25
516.56	1.23676	8	124	mem	lib	low	low	mod	nt	nt	tg	tg	right	nt	cr	0.83676	wh/0101.bmp	0.05	12.3
520.16	1.04407	8	125	mem	lib	low	low	mod	nt	nt	nt	tg	left	tg	fa	0.64407	nh/1008_nh.bmp	0	12.3
523.04	1.3109	8	126	mem	lib	low	low	mod	tg	tg	tg	nt	right	tg	ht	0.9109	wh/0849.bmp	0.05	12.35
525.92	1.13886	8	127	mem	lib	low	low	mod	tg	tg	tg	tg	left	tg	ht	0.73886	wh/1024.bmp	0.05	12.4
528.8	1.7419	8	128	mem	lib	low	low	mod	tg	tg	tg	nt	right	tg	ht	1.3419	wh/0949.bmp	0.05	12.45
531.36	3.6	8	n/a	mem	lib	low	n/a	n/a	feedback	n/a	n/a	n/a	n/a	n/a	n/a	n/a	n/a	n/a	n/a
