onset	duration	trial	pres	ts_blk	ts_trl	task	crit	disc	mem_disc	per_disc	per_type	accuracy	stim_file
7.20	0.72	1	1	5	39	per	con	mod	mod	mod	tg	ms	wh/0497.bmp
7.92	0.72	2	1	6	23	per	lib	mod	mod	mod	tg	ms	wh/0684.bmp
8.64	0.72	3	1	7	22	per	lib	low	mod	low	nt	cr	nh/0079_nh.bmp
9.36	0.72	4	1	7	2	mem	lib	mod	mod	mod	nt	ms	nh/0540_nh.bmp
10.08	0.72	5	1	7	54	per	con	low	low	low	tg	ms	wh/0370.bmp
10.80	0.72	6	1	5	35	per	con	mod	mod	mod	tg	ht	wh/0843.bmp
11.52	0.72	7	1	6	20	per	lib	mod	mod	mod	tg	ht	wh/0442.bmp
12.24	0.72	8	1	7	41	mem	con	mod	mod	mod	nt	ht	nh/0810_nh.bmp
12.96	0.72	9	1	6	39	per	con	low	mod	low	nt	fa	nh/0075_nh.bmp
13.68	0.72	10	1	8	122	per	con	mod	mod	mod	nt	cr	nh/0947_nh.bmp
14.40	0.72	11	1	7	10	mem	lib	mod	mod	mod	nt	ht	nh/0716_nh.bmp
15.12	0.72	12	1	5	64	per	lib	low	mod	low	tg	ms	wh/0493.bmp
15.84	0.72	13	1	5	48	per	con	mod	mod	mod	tg	ht	wh/0588.bmp
16.56	0.72	14	1	5	78	mem	lib	mod	mod	low	nt	ms	nh/0940_nh.bmp
17.28	0.72	15	1	8	115	per	con	mod	mod	mod	nt	cr	nh/0973_nh.bmp
18.00	0.72	16	1	7	102	per	lib	mod	mod	mod	tg	ms	wh/0957.bmp
18.72	0.72	17	2	8	122	per	con	mod	mod	mod	nt	cr	nh/0947_nh.bmp
19.44	0.72	18	1	7	105	per	lib	mod	mod	mod	nt	cr	nh/0350_nh.bmp
20.16	0.72	19	1	7	24	per	lib	low	mod	low	tg	ms	wh/0417.bmp
20.88	0.72	20	1	8	99	mem	con	mod	mod	low	nt	ht	nh/0329_nh.bmp
21.60	0.72	21	1	6	41	per	con	low	mod	low	nt	cr	nh/0967_nh.bmp
22.32	0.72	22	1	6	38	per	con	low	mod	low	tg	ht	wh/0125.bmp
23.04	0.72	23	1	8	71	per	con	low	mod	low	tg	ms	wh/0503.bmp
23.76	0.72	24	1	7	118	mem	lib	low	low	mod	nt	ht	nh/1018_nh.bmp
24.48	0.72	25	1	6	49	per	con	mod	low	mod	tg	ms	wh/0038.bmp
25.20	0.72	26	1	8	125	per	con	mod	mod	mod	tg	ms	wh/0447.bmp
25.92	0.72	27	1	5	63	per	lib	low	mod	low	nt	cr	nh/0964_nh.bmp
26.64	0.72	28	1	8	92	mem	lib	mod	mod	low	nt	ht	nh/0232_nh.bmp
27.36	0.72	29	1	5	112	mem	lib	low	low	mod	nt	ms	nh/0220_nh.bmp
28.08	0.72	30	1	6	19	per	lib	mod	mod	mod	nt	cr	nh/0902_nh.bmp
28.80	0.72	31	1	7	85	per	con	mod	low	mod	nt	cr	nh/0290_nh.bmp
29.52	0.72	32	2	6	38	per	con	low	mod	low	tg	ht	wh/0125.bmp
30.24	0.72	33	1	5	96	mem	con	mod	mod	low	nt	ht	nh/0351_nh.bmp
30.96	0.72	34	1	8	109	mem	con	mod	mod	low	tg	ms	wh/0510.bmp
31.68	0.72	35	1	5	95	mem	con	mod	mod	low	tg	ht	wh/0404.bmp
32.40	0.72	36	1	5	18	mem	con	low	low	mod	nt	ms	nh/0525_nh.bmp
33.12	0.72	37	1	5	85	mem	con	mod	mod	low	tg	ht	wh/0730.bmp
33.84	0.72	38	1	5	55	per	lib	low	mod	low	nt	cr	nh/0608_nh.bmp
34.56	0.72	39	2	8	71	per	con	low	mod	low	tg	ms	wh/0503.bmp
35.28	0.72	40	1	6	31	per	lib	mod	mod	mod	nt	cr	nh/0398_nh.bmp
36.00	0.72	41	1	5	92	mem	con	mod	mod	low	nt	ht	nh/0758_nh.bmp
36.72	0.72	42	2	7	102	per	lib	mod	mod	mod	tg	ms	wh/0957.bmp
37.44	0.72	43	1	6	73	per	lib	low	low	low	tg	ms	wh/0691.bmp
38.16	0.72	44	2	6	41	per	con	low	mod	low	nt	cr	nh/0967_nh.bmp
38.88	0.72	45	2	5	63	per	lib	low	mod	low	nt	cr	nh/0964_nh.bmp
39.60	0.72	46	1	6	34	per	con	low	mod	low	nt	cr	nh/0074_nh.bmp
40.32	0.72	47	1	6	44	per	con	low	mod	low	nt	cr	nh/0190_nh.bmp
41.04	0.72	48	2	6	19	per	lib	mod	mod	mod	nt	cr	nh/0902_nh.bmp
41.76	0.72	49	1	6	125	mem	lib	mod	mod	mod	nt	ht	nh/0543_nh.bmp
42.48	0.72	50	1	7	5	mem	lib	mod	mod	mod	tg	ht	wh/0928.bmp
43.20	0.72	51	1	7	97	per	lib	mod	mod	mod	nt	cr	nh/0593_nh.bmp
43.92	0.72	52	1	7	4	mem	lib	mod	mod	mod	nt	ht	nh/0807_nh.bmp
44.64	0.72	53	2	8	99	mem	con	mod	mod	low	nt	ht	nh/0329_nh.bmp
45.36	0.72	54	1	5	36	per	con	mod	mod	mod	nt	cr	nh/0697_nh.bmp
46.08	0.72	55	1	8	119	per	con	mod	mod	mod	nt	cr	nh/0462_nh.bmp
46.80	0.72	56	2	8	92	mem	lib	mod	mod	low	nt	ht	nh/0232_nh.bmp
47.52	0.72	57	1	6	15	mem	lib	low	low	low	tg	ht	wh/0731.bmp
48.24	0.72	58	1	7	55	per	con	low	low	low	tg	ht	wh/0930.bmp
48.96	0.72	59	2	6	31	per	lib	mod	mod	mod	nt	cr	nh/0398_nh.bmp
49.68	0.72	60	1	7	47	mem	con	mod	mod	mod	tg	ms	wh/0428.bmp
50.40	0.72	61	2	5	92	mem	con	mod	mod	low	nt	ht	nh/0758_nh.bmp
51.12	0.72	62	3	6	41	per	con	low	mod	low	nt	cr	nh/0967_nh.bmp
51.84	0.72	63	1	8	75	per	con	low	mod	low	nt	cr	nh/0029_nh.bmp
52.56	0.72	64	1	8	78	per	con	low	mod	low	nt	cr	nh/0619_nh.bmp
53.28	0.72	65	1	7	25	per	lib	low	mod	low	nt	cr	nh/0451_nh.bmp
54.00	0.72	66	2	7	2	mem	lib	mod	mod	mod	nt	ms	nh/0540_nh.bmp
54.72	0.72	67	2	7	5	mem	lib	mod	mod	mod	tg	ht	wh/0928.bmp
55.44	0.72	68	3	7	5	mem	lib	mod	mod	mod	tg	ht	wh/0928.bmp
56.16	0.72	69	1	5	60	per	lib	low	mod	low	nt	cr	nh/0635_nh.bmp
56.88	0.72	70	2	5	85	mem	con	mod	mod	low	tg	ht	wh/0730.bmp
57.60	0.72	71	1	5	99	mem	lib	low	low	mod	nt	ms	nh/0870_nh.bmp
58.32	0.72	72	2	7	47	mem	con	mod	mod	mod	tg	ms	wh/0428.bmp
59.04	0.72	73	1	7	88	per	con	mod	low	mod	tg	ms	wh/0708.bmp
59.76	0.72	74	1	6	48	per	con	low	mod	low	tg	ms	wh/0238.bmp
60.48	0.72	75	1	5	38	per	con	mod	mod	mod	nt	cr	nh/0095_nh.bmp
61.20	0.72	76	2	8	75	per	con	low	mod	low	nt	cr	nh/0029_nh.bmp
61.92	0.72	77	1	8	97	mem	con	mod	mod	low	nt	ms	nh/0299_nh.bmp
62.64	0.72	78	1	6	17	per	lib	mod	mod	mod	nt	cr	nh/0328_nh.bmp
63.36	0.72	79	1	8	104	mem	con	mod	mod	low	tg	ms	wh/0345.bmp
64.08	0.72	80	1	7	23	per	lib	low	mod	low	tg	ms	wh/0153.bmp
64.80	0.72	81	1	8	82	mem	lib	mod	mod	low	tg	ms	wh/0690.bmp
65.52	0.72	82	2	8	125	per	con	mod	mod	mod	tg	ms	wh/0447.bmp
66.24	0.72	83	1	5	114	per	con	low	low	low	nt	fa	nh/0695_nh.bmp
66.96	0.72	84	2	7	23	per	lib	low	mod	low	tg	ms	wh/0153.bmp
67.68	0.72	85	1	6	45	per	con	low	mod	low	tg	ms	wh/0465.bmp
68.40	0.72	86	2	8	119	per	con	mod	mod	mod	nt	cr	nh/0462_nh.bmp
69.12	0.72	87	2	5	96	mem	con	mod	mod	low	nt	ht	nh/0351_nh.bmp
69.84	0.72	88	1	6	103	mem	con	mod	mod	mod	nt	ht	nh/0187_nh.bmp
70.56	0.72	89	3	8	122	per	con	mod	mod	mod	nt	cr	nh/0947_nh.bmp
71.28	0.72	90	1	5	86	mem	con	mod	mod	low	nt	ht	nh/0364_nh.bmp
72.00	0.72	91	2	5	60	per	lib	low	mod	low	nt	cr	nh/0635_nh.bmp
72.72	0.72	92	1	5	68	mem	lib	mod	mod	low	tg	ht	wh/0035.bmp
73.44	0.72	93	1	8	100	mem	con	mod	mod	low	tg	ht	wh/0338.bmp
74.16	0.72	94	1	7	34	mem	con	mod	mod	mod	tg	ht	wh/0273.bmp
74.88	0.72	95	2	5	78	mem	lib	mod	mod	low	nt	ms	nh/0940_nh.bmp
75.60	0.72	96	1	5	37	per	con	mod	mod	mod	nt	cr	nh/0954_nh.bmp
76.32	0.72	97	1	8	111	mem	con	mod	mod	low	tg	ht	wh/0134.bmp
77.04	0.72	98	1	8	87	mem	lib	mod	mod	low	nt	ht	nh/0036_nh.bmp
77.76	0.72	99	1	6	115	mem	lib	mod	mod	mod	nt	ht	nh/0680_nh.bmp
78.48	0.72	100	1	8	50	mem	lib	low	low	low	nt	ht	nh/0090_nh.bmp
79.20	0.72	101	1	6	111	mem	con	mod	mod	mod	tg	ms	wh/0874.bmp
79.92	0.72	102	2	6	115	mem	lib	mod	mod	mod	nt	ht	nh/0680_nh.bmp
80.64	0.72	103	1	8	21	per	lib	low	low	low	tg	ms	wh/0215.bmp
81.36	0.72	104	3	8	119	per	con	mod	mod	mod	nt	cr	nh/0462_nh.bmp
82.08	0.72	105	2	5	37	per	con	mod	mod	mod	nt	cr	nh/0954_nh.bmp
82.80	0.72	106	1	8	65	per	con	low	mod	low	nt	cr	nh/0893_nh.bmp
83.52	0.72	107	1	6	116	mem	lib	mod	mod	mod	tg	ms	wh/0099.bmp
84.24	0.72	108	2	6	17	per	lib	mod	mod	mod	nt	cr	nh/0328_nh.bmp
84.96	0.72	109	2	7	105	per	lib	mod	mod	mod	nt	cr	nh/0350_nh.bmp
85.68	0.72	110	1	6	100	mem	con	mod	mod	mod	nt	ms	nh/0094_nh.bmp
86.40	0.72	111	1	7	33	mem	con	mod	mod	mod	tg	ms	wh/0805.bmp
87.12	0.72	112	1	7	7	mem	lib	mod	mod	mod	tg	ht	wh/0909.bmp
87.84	0.72	113	1	7	36	mem	con	mod	mod	mod	nt	ht	nh/0904_nh.bmp
88.56	0.72	114	4	8	122	per	con	mod	mod	mod	nt	cr	nh/0947_nh.bmp
89.28	0.72	115	1	7	108	per	lib	mod	mod	mod	nt	cr	nh/0558_nh.bmp
90.00	0.72	116	1	8	127	per	con	mod	mod	mod	tg	ms	wh/0784.bmp
90.72	0.72	117	2	7	33	mem	con	mod	mod	mod	tg	ms	wh/0805.bmp
91.44	0.72	118	1	8	114	per	con	mod	mod	mod	tg	ht	wh/0548.bmp
92.16	0.72	119	1	8	126	per	con	mod	mod	mod	nt	cr	nh/0397_nh.bmp
92.88	0.72	120	2	6	39	per	con	low	mod	low	nt	fa	nh/0075_nh.bmp
93.60	0.72	121	1	5	91	mem	con	mod	mod	low	tg	ht	wh/0744.bmp
94.32	0.72	122	1	7	40	mem	con	mod	mod	mod	nt	ht	nh/0182_nh.bmp
95.04	0.72	123	3	5	37	per	con	mod	mod	mod	nt	cr	nh/0954_nh.bmp
95.76	0.72	124	1	8	68	per	con	low	mod	low	tg	ms	wh/0577.bmp
96.48	0.72	125	2	8	68	per	con	low	mod	low	tg	ms	wh/0577.bmp
97.20	0.72	126	1	7	9	mem	lib	mod	mod	mod	tg	ms	wh/0371.bmp
97.92	0.72	127	1	5	69	mem	lib	mod	mod	low	tg	ht	wh/0194.bmp
98.64	0.72	128	1	5	14	per	lib	mod	low	mod	nt	cr	nh/0426_nh.bmp
99.36	0.72	129	2	5	35	per	con	mod	mod	mod	tg	ht	wh/0843.bmp
100.08	0.72	130	1	7	32	per	lib	low	mod	low	tg	ms	wh/0802.bmp
100.80	0.72	131	2	8	87	mem	lib	mod	mod	low	nt	ht	nh/0036_nh.bmp
101.52	0.72	132	2	7	4	mem	lib	mod	mod	mod	nt	ht	nh/0807_nh.bmp
102.24	0.72	133	1	7	13	mem	lib	mod	mod	mod	nt	ms	nh/0772_nh.bmp
102.96	0.72	134	1	5	65	mem	lib	mod	mod	low	tg	ht	wh/0963.bmp
103.68	0.72	135	1	8	90	mem	lib	mod	mod	low	nt	ht	nh/0077_nh.bmp
104.40	0.72	136	1	5	111	mem	lib	low	low	mod	tg	ms	wh/0092.bmp
105.12	0.72	137	2	5	91	mem	con	mod	mod	low	tg	ht	wh/0744.bmp
105.84	0.72	138	1	6	30	per	lib	mod	mod	mod	tg	ms	wh/0380.bmp
106.56	0.72	139	2	8	109	mem	con	mod	mod	low	tg	ms	wh/0510.bmp
107.28	0.72	140	3	7	33	mem	con	mod	mod	mod	tg	ms	wh/0805.bmp
108.00	0.72	141	2	6	23	per	lib	mod	mod	mod	tg	ms	wh/0684.bmp
108.72	0.72	142	2	5	95	mem	con	mod	mod	low	tg	ht	wh/0404.bmp
109.44	0.72	143	3	6	39	per	con	low	mod	low	nt	fa	nh/0075_nh.bmp
110.16	0.72	144	1	5	58	per	lib	low	mod	low	nt	cr	nh/0082_nh.bmp
110.88	0.72	145	1	7	26	per	lib	low	mod	low	tg	ms	wh/0613.bmp
111.60	0.72	146	2	6	111	mem	con	mod	mod	mod	tg	ms	wh/0874.bmp
112.32	0.72	147	2	5	58	per	lib	low	mod	low	nt	cr	nh/0082_nh.bmp
113.04	0.72	148	1	7	3	mem	lib	mod	mod	mod	tg	ms	wh/0803.bmp
113.76	0.72	149	1	5	10	per	lib	mod	low	mod	tg	ht	wh/0693.bmp
114.48	0.72	150	1	6	91	mem	con	low	low	low	tg	ms	wh/0804.bmp
115.20	0.72	151	1	8	38	per	lib	mod	low	mod	nt	cr	nh/0762_nh.bmp
115.92	0.72	152	1	6	124	mem	lib	mod	mod	mod	tg	ms	wh/0196.bmp
116.64	0.72	153	2	5	48	per	con	mod	mod	mod	tg	ht	wh/0588.bmp
117.36	0.72	154	2	5	39	per	con	mod	mod	mod	tg	ms	wh/0497.bmp
118.08	0.72	155	3	7	102	per	lib	mod	mod	mod	tg	ms	wh/0957.bmp
118.80	0.72	156	1	8	102	mem	con	mod	mod	low	nt	ms	nh/0284_nh.bmp
119.52	0.72	157	2	7	26	per	lib	low	mod	low	tg	ms	wh/0613.bmp
120.24	0.72	158	3	6	111	mem	con	mod	mod	mod	tg	ms	wh/0874.bmp
120.96	0.72	159	3	8	109	mem	con	mod	mod	low	tg	ms	wh/0510.bmp
121.68	0.72	160	1	6	108	mem	con	mod	mod	mod	tg	ht	wh/0222.bmp
122.40	0.72	161	1	5	90	mem	con	mod	mod	low	tg	ht	wh/0355.bmp
123.12	0.72	162	2	5	55	per	lib	low	mod	low	nt	cr	nh/0608_nh.bmp
123.84	0.72	163	1	5	80	mem	lib	mod	mod	low	nt	ms	nh/0080_nh.bmp
124.56	0.72	164	2	6	116	mem	lib	mod	mod	mod	tg	ms	wh/0099.bmp
125.28	0.72	165	1	5	43	per	con	mod	mod	mod	nt	cr	nh/0876_nh.bmp
126.00	0.72	166	4	5	37	per	con	mod	mod	mod	nt	cr	nh/0954_nh.bmp
126.72	0.72	167	2	8	102	mem	con	mod	mod	low	nt	ms	nh/0284_nh.bmp
127.44	0.72	168	2	5	65	mem	lib	mod	mod	low	tg	ht	wh/0963.bmp
128.16	0.72	169	1	7	78	mem	con	low	low	low	nt	ms	nh/0706_nh.bmp
128.88	0.72	170	2	8	90	mem	lib	mod	mod	low	nt	ht	nh/0077_nh.bmp
129.60	0.72	171	3	8	75	per	con	low	mod	low	nt	cr	nh/0029_nh.bmp
130.32	0.72	172	2	8	65	per	con	low	mod	low	nt	cr	nh/0893_nh.bmp
131.04	0.72	173	1	5	115	per	con	low	low	low	nt	fa	nh/0710_nh.bmp
131.76	0.72	174	2	8	100	mem	con	mod	mod	low	tg	ht	wh/0338.bmp
132.48	0.72	175	1	5	27	mem	con	low	low	mod	tg	ms	wh/0278.bmp
133.20	0.72	176	2	8	126	per	con	mod	mod	mod	nt	cr	nh/0397_nh.bmp
133.92	0.72	177	3	5	35	per	con	mod	mod	mod	tg	ht	wh/0843.bmp
134.64	0.72	178	2	6	20	per	lib	mod	mod	mod	tg	ht	wh/0442.bmp
135.36	0.72	179	1	5	70	mem	lib	mod	mod	low	tg	ht	wh/0660.bmp
136.08	0.72	180	1	6	96	mem	con	low	low	low	nt	ms	nh/0507_nh.bmp
136.80	0.72	181	1	5	34	per	con	mod	mod	mod	tg	ms	wh/0396.bmp
137.52	0.72	182	2	8	111	mem	con	mod	mod	low	tg	ht	wh/0134.bmp
138.24	0.72	183	3	8	65	per	con	low	mod	low	nt	cr	nh/0893_nh.bmp
138.96	0.72	184	1	8	69	per	con	low	mod	low	tg	ms	wh/0508.bmp
139.68	0.72	185	3	7	47	mem	con	mod	mod	mod	tg	ms	wh/0428.bmp
140.40	0.72	186	2	5	86	mem	con	mod	mod	low	nt	ht	nh/0364_nh.bmp
141.12	0.72	187	1	6	76	per	lib	low	low	low	nt	cr	nh/0439_nh.bmp
141.84	0.72	188	3	5	96	mem	con	mod	mod	low	nt	ht	nh/0351_nh.bmp
142.56	0.72	189	1	7	75	mem	con	low	low	low	tg	ht	wh/0433.bmp
143.28	0.72	190	1	6	126	mem	lib	mod	mod	mod	tg	ht	wh/0446.bmp
144.00	0.72	191	1	6	35	per	con	low	mod	low	tg	ms	wh/0383.bmp
144.72	0.72	192	3	5	55	per	lib	low	mod	low	nt	cr	nh/0608_nh.bmp
145.44	0.72	193	1	5	72	mem	lib	mod	mod	low	nt	ms	nh/0032_nh.bmp
146.16	0.72	194	1	6	109	mem	con	mod	mod	mod	nt	ms	nh/0319_nh.bmp
146.88	0.72	195	3	8	90	mem	lib	mod	mod	low	nt	ht	nh/0077_nh.bmp
147.60	0.72	196	1	5	94	mem	con	mod	mod	low	nt	ht	nh/0256_nh.bmp
148.32	0.72	197	3	6	17	per	lib	mod	mod	mod	nt	cr	nh/0328_nh.bmp
149.04	0.72	198	1	5	53	per	lib	low	mod	low	tg	ms	wh/1023.bmp
149.76	0.72	199	1	6	105	mem	con	mod	mod	mod	tg	ht	wh/0199.bmp
150.48	0.72	200	2	5	38	per	con	mod	mod	mod	nt	cr	nh/0095_nh.bmp
151.20	0.72	201	1	6	24	per	lib	mod	mod	mod	tg	ht	wh/0795.bmp
151.92	0.72	202	2	5	90	mem	con	mod	mod	low	tg	ht	wh/0355.bmp
152.64	0.72	203	2	8	104	mem	con	mod	mod	low	tg	ms	wh/0345.bmp
153.36	0.72	204	2	8	97	mem	con	mod	mod	low	nt	ms	nh/0299_nh.bmp
154.08	0.72	205	2	5	43	per	con	mod	mod	mod	nt	cr	nh/0876_nh.bmp
154.80	0.72	206	1	5	126	per	con	low	low	low	tg	ms	wh/0452.bmp
155.52	0.72	207	1	7	123	mem	lib	low	low	mod	nt	ht	nh/0736_nh.bmp
156.24	0.72	208	3	8	111	mem	con	mod	mod	low	tg	ht	wh/0134.bmp
156.96	0.72	209	2	7	40	mem	con	mod	mod	mod	nt	ht	nh/0182_nh.bmp
157.68	0.72	210	2	7	7	mem	lib	mod	mod	mod	tg	ht	wh/0909.bmp
158.40	0.72	211	2	6	105	mem	con	mod	mod	mod	tg	ht	wh/0199.bmp
159.12	0.72	212	5	5	37	per	con	mod	mod	mod	nt	cr	nh/0954_nh.bmp
159.84	0.72	213	2	5	70	mem	lib	mod	mod	low	tg	ht	wh/0660.bmp
160.56	0.72	214	4	5	35	per	con	mod	mod	mod	tg	ht	wh/0843.bmp
161.28	0.72	215	2	6	35	per	con	low	mod	low	tg	ms	wh/0383.bmp
162.00	0.72	216	4	7	47	mem	con	mod	mod	mod	tg	ms	wh/0428.bmp
162.72	0.72	217	1	8	96	mem	lib	mod	mod	low	tg	ht	wh/0361.bmp
163.44	0.72	218	3	6	19	per	lib	mod	mod	mod	nt	cr	nh/0902_nh.bmp
164.16	0.72	219	1	7	72	mem	con	low	low	low	nt	ms	nh/0845_nh.bmp
164.88	0.72	220	1	7	103	per	lib	mod	mod	mod	tg	ms	wh/0748.bmp
165.60	0.72	221	2	5	69	mem	lib	mod	mod	low	tg	ht	wh/0194.bmp
166.32	0.72	222	3	5	43	per	con	mod	mod	mod	nt	cr	nh/0876_nh.bmp
167.04	0.72	223	2	7	32	per	lib	low	mod	low	tg	ms	wh/0802.bmp
167.76	0.72	224	2	5	72	mem	lib	mod	mod	low	nt	ms	nh/0032_nh.bmp
168.48	0.72	225	3	7	105	per	lib	mod	mod	mod	nt	cr	nh/0350_nh.bmp
169.20	0.72	226	3	5	92	mem	con	mod	mod	low	nt	ht	nh/0758_nh.bmp
169.92	0.72	227	1	8	40	per	lib	mod	low	mod	nt	cr	nh/0923_nh.bmp
170.64	0.72	228	1	5	107	mem	lib	low	low	mod	tg	ht	wh/0267.bmp
171.36	0.72	229	1	8	106	mem	con	mod	mod	low	nt	ht	nh/0382_nh.bmp
172.08	0.72	230	1	6	6	mem	lib	low	low	low	nt	ht	nh/0881_nh.bmp
172.80	0.72	231	4	6	111	mem	con	mod	mod	mod	tg	ms	wh/0874.bmp
173.52	0.72	232	2	6	34	per	con	low	mod	low	nt	cr	nh/0074_nh.bmp
174.24	0.72	233	1	8	93	mem	lib	mod	mod	low	tg	ht	wh/0443.bmp
174.96	0.72	234	2	8	114	per	con	mod	mod	mod	tg	ht	wh/0548.bmp
175.68	0.72	235	1	7	100	per	lib	mod	mod	mod	tg	ht	wh/0946.bmp
176.40	0.72	236	3	8	125	per	con	mod	mod	mod	tg	ms	wh/0447.bmp
177.12	0.72	237	1	8	36	per	lib	mod	low	mod	nt	cr	nh/0469_nh.bmp
177.84	0.72	238	2	7	25	per	lib	low	mod	low	nt	cr	nh/0451_nh.bmp
178.56	0.72	239	1	6	121	mem	lib	mod	mod	mod	tg	ms	wh/0714.bmp
179.28	0.72	240	6	5	37	per	con	mod	mod	mod	nt	cr	nh/0954_nh.bmp
180.00	0.72	241	2	6	109	mem	con	mod	mod	mod	nt	ms	nh/0319_nh.bmp
180.72	0.72	242	3	6	109	mem	con	mod	mod	mod	nt	ms	nh/0319_nh.bmp
181.44	0.72	243	4	8	111	mem	con	mod	mod	low	tg	ht	wh/0134.bmp
182.16	0.72	244	2	7	3	mem	lib	mod	mod	mod	tg	ms	wh/0803.bmp
182.88	0.72	245	4	6	109	mem	con	mod	mod	mod	nt	ms	nh/0319_nh.bmp
183.60	0.72	246	2	6	121	mem	lib	mod	mod	mod	tg	ms	wh/0714.bmp
184.32	0.72	247	1	7	121	mem	lib	low	low	mod	nt	ht	nh/0781_nh.bmp
185.04	0.72	248	2	8	78	per	con	low	mod	low	nt	cr	nh/0619_nh.bmp
185.76	0.72	249	4	7	33	mem	con	mod	mod	mod	tg	ms	wh/0805.bmp
186.48	0.72	250	4	7	102	per	lib	mod	mod	mod	tg	ms	wh/0957.bmp
187.20	0.72	251	3	5	70	mem	lib	mod	mod	low	tg	ht	wh/0660.bmp
187.92	0.72	252	2	6	108	mem	con	mod	mod	mod	tg	ht	wh/0222.bmp
188.64	0.72	253	1	6	84	mem	con	low	low	low	tg	ms	wh/0956.bmp
189.36	0.72	254	2	6	124	mem	lib	mod	mod	mod	tg	ms	wh/0196.bmp
190.08	0.72	255	3	6	115	mem	lib	mod	mod	mod	nt	ht	nh/0680_nh.bmp
190.80	0.72	256	1	6	98	mem	con	mod	mod	mod	nt	ms	nh/0855_nh.bmp
191.52	0.72	257	2	7	97	per	lib	mod	mod	mod	nt	cr	nh/0593_nh.bmp
192.24	0.72	258	4	5	43	per	con	mod	mod	mod	nt	cr	nh/0876_nh.bmp
192.96	0.72	259	3	8	71	per	con	low	mod	low	tg	ms	wh/0503.bmp
193.68	0.72	260	3	6	108	mem	con	mod	mod	mod	tg	ht	wh/0222.bmp
194.40	0.72	261	2	5	64	per	lib	low	mod	low	tg	ms	wh/0493.bmp
195.12	0.72	262	1	7	43	mem	con	mod	mod	mod	tg	ms	wh/0209.bmp
195.84	0.72	263	2	7	41	mem	con	mod	mod	mod	nt	ht	nh/0810_nh.bmp
196.56	0.72	264	1	7	95	per	con	mod	low	mod	nt	cr	nh/0059_nh.bmp
197.28	0.72	265	2	8	127	per	con	mod	mod	mod	tg	ms	wh/0784.bmp
198.00	0.72	266	2	6	103	mem	con	mod	mod	mod	nt	ht	nh/0187_nh.bmp
198.72	0.72	267	3	7	7	mem	lib	mod	mod	mod	tg	ht	wh/0909.bmp
199.44	0.72	268	3	5	72	mem	lib	mod	mod	low	nt	ms	nh/0032_nh.bmp
200.16	0.72	269	1	7	27	per	lib	low	mod	low	nt	cr	nh/0336_nh.bmp
200.88	0.72	270	2	7	13	mem	lib	mod	mod	mod	nt	ms	nh/0772_nh.bmp
201.60	0.72	271	4	7	7	mem	lib	mod	mod	mod	tg	ht	wh/0909.bmp
202.32	0.72	272	3	5	85	mem	con	mod	mod	low	tg	ht	wh/0730.bmp
203.04	0.72	273	1	8	74	per	con	low	mod	low	tg	ms	wh/0568.bmp
203.76	0.72	274	1	7	86	per	con	mod	low	mod	tg	ht	wh/0340.bmp
204.48	0.72	275	3	5	38	per	con	mod	mod	mod	nt	cr	nh/0095_nh.bmp
205.20	0.72	276	2	7	22	per	lib	low	mod	low	nt	cr	nh/0079_nh.bmp
205.92	0.72	277	3	6	35	per	con	low	mod	low	tg	ms	wh/0383.bmp
206.64	0.72	278	1	8	57	mem	lib	low	low	low	tg	ms	wh/0292.bmp
207.36	0.72	279	2	8	106	mem	con	mod	mod	low	nt	ht	nh/0382_nh.bmp
208.08	0.72	280	3	8	68	per	con	low	mod	low	tg	ms	wh/0577.bmp
208.80	0.72	281	3	8	127	per	con	mod	mod	mod	tg	ms	wh/0784.bmp
209.52	0.72	282	5	7	7	mem	lib	mod	mod	mod	tg	ht	wh/0909.bmp
210.24	0.72	283	1	7	61	per	con	low	low	low	nt	cr	nh/0185_nh.bmp
210.96	0.72	284	1	7	98	per	lib	mod	mod	mod	nt	cr	nh/0339_nh.bmp
211.68	0.72	285	1	6	122	mem	lib	mod	mod	mod	nt	ht	nh/0542_nh.bmp
212.40	0.72	286	3	7	2	mem	lib	mod	mod	mod	nt	ms	nh/0540_nh.bmp
213.12	0.72	287	2	5	36	per	con	mod	mod	mod	nt	cr	nh/0697_nh.bmp
213.84	0.72	288	1	6	120	mem	lib	mod	mod	mod	nt	ht	nh/0594_nh.bmp
214.56	0.72	289	3	8	78	per	con	low	mod	low	nt	cr	nh/0619_nh.bmp
215.28	0.72	290	1	5	62	per	lib	low	mod	low	tg	ht	wh/0123.bmp
216.00	0.72	291	2	8	115	per	con	mod	mod	mod	nt	cr	nh/0973_nh.bmp
216.72	0.72	292	3	6	38	per	con	low	mod	low	tg	ht	wh/0125.bmp
217.44	0.72	293	4	5	96	mem	con	mod	mod	low	nt	ht	nh/0351_nh.bmp
218.16	0.72	294	3	8	87	mem	lib	mod	mod	low	nt	ht	nh/0036_nh.bmp
218.88	0.72	295	1	6	86	mem	con	low	low	low	nt	ms	nh/0998_nh.bmp
219.60	0.72	296	2	8	93	mem	lib	mod	mod	low	tg	ht	wh/0443.bmp
220.32	0.72	297	2	7	100	per	lib	mod	mod	mod	tg	ht	wh/0946.bmp
221.04	0.72	298	3	7	25	per	lib	low	mod	low	nt	cr	nh/0451_nh.bmp
221.76	0.72	299	2	6	122	mem	lib	mod	mod	mod	nt	ht	nh/0542_nh.bmp
222.48	0.72	300	3	7	13	mem	lib	mod	mod	mod	nt	ms	nh/0772_nh.bmp
223.20	0.72	301	1	8	80	per	con	low	mod	low	nt	cr	nh/0489_nh.bmp
223.92	0.72	302	3	5	64	per	lib	low	mod	low	tg	ms	wh/0493.bmp
224.64	0.72	303	2	6	24	per	lib	mod	mod	mod	tg	ht	wh/0795.bmp
225.36	0.72	304	3	5	58	per	lib	low	mod	low	nt	cr	nh/0082_nh.bmp
226.08	0.72	305	4	7	105	per	lib	mod	mod	mod	nt	cr	nh/0350_nh.bmp
226.80	0.72	306	1	5	30	mem	con	low	low	mod	nt	ms	nh/0129_nh.bmp
227.52	0.72	307	2	7	34	mem	con	mod	mod	mod	tg	ht	wh/0273.bmp
228.24	0.72	308	1	7	39	mem	con	mod	mod	mod	nt	ms	nh/0650_nh.bmp
228.96	0.72	309	4	6	17	per	lib	mod	mod	mod	nt	cr	nh/0328_nh.bmp
229.68	0.72	310	4	6	39	per	con	low	mod	low	nt	fa	nh/0075_nh.bmp
230.40	0.72	311	3	7	3	mem	lib	mod	mod	mod	tg	ms	wh/0803.bmp
231.12	0.72	312	2	5	94	mem	con	mod	mod	low	nt	ht	nh/0256_nh.bmp
231.84	0.72	313	1	7	30	per	lib	low	mod	low	nt	fa	nh/0150_nh.bmp
232.56	0.72	314	1	8	81	mem	lib	mod	mod	low	tg	ht	wh/0760.bmp
233.28	0.72	315	2	6	100	mem	con	mod	mod	mod	nt	ms	nh/0094_nh.bmp
234.00	0.72	316	6	7	7	mem	lib	mod	mod	mod	tg	ht	wh/0909.bmp
234.72	0.72	317	1	7	93	per	con	mod	low	mod	nt	cr	nh/0669_nh.bmp
235.44	0.72	318	5	7	105	per	lib	mod	mod	mod	nt	cr	nh/0350_nh.bmp
236.16	0.72	319	2	6	48	per	con	low	mod	low	tg	ms	wh/0238.bmp
236.88	0.72	320	2	7	36	mem	con	mod	mod	mod	nt	ht	nh/0904_nh.bmp
237.60	0.72	321	2	8	69	per	con	low	mod	low	tg	ms	wh/0508.bmp
238.32	0.72	322	4	8	65	per	con	low	mod	low	nt	cr	nh/0893_nh.bmp
239.04	0.72	323	4	8	87	mem	lib	mod	mod	low	nt	ht	nh/0036_nh.bmp
239.76	0.72	324	2	7	103	per	lib	mod	mod	mod	tg	ms	wh/0748.bmp
240.48	0.72	325	3	7	103	per	lib	mod	mod	mod	tg	ms	wh/0748.bmp
241.20	0.72	326	1	5	118	per	con	low	low	low	nt	cr	nh/0571_nh.bmp
241.92	0.72	327	4	8	125	per	con	mod	mod	mod	tg	ms	wh/0447.bmp
242.64	0.72	328	4	6	115	mem	lib	mod	mod	mod	nt	ht	nh/0680_nh.bmp
243.36	0.72	329	1	8	84	mem	lib	mod	mod	low	nt	ms	nh/0818_nh.bmp
244.08	0.72	330	3	8	102	mem	con	mod	mod	low	nt	ms	nh/0284_nh.bmp
244.80	0.72	331	2	5	80	mem	lib	mod	mod	low	nt	ms	nh/0080_nh.bmp
245.52	0.72	332	1	5	17	mem	con	low	low	mod	nt	ms	nh/0890_nh.bmp
246.24	0.72	333	1	6	57	per	con	mod	low	mod	nt	cr	nh/0933_nh.bmp
246.96	0.72	334	4	6	41	per	con	low	mod	low	nt	cr	nh/0967_nh.bmp
247.68	0.72	335	4	6	19	per	lib	mod	mod	mod	nt	cr	nh/0902_nh.bmp
248.40	0.72	336	2	7	10	mem	lib	mod	mod	mod	nt	ht	nh/0716_nh.bmp
249.12	0.72	337	2	7	43	mem	con	mod	mod	mod	tg	ms	wh/0209.bmp
249.84	0.72	338	3	8	114	per	con	mod	mod	mod	tg	ht	wh/0548.bmp
250.56	0.72	339	2	6	125	mem	lib	mod	mod	mod	nt	ht	nh/0543_nh.bmp
251.28	0.72	340	5	5	43	per	con	mod	mod	mod	nt	cr	nh/0876_nh.bmp
252.00	0.72	341	3	6	23	per	lib	mod	mod	mod	tg	ms	wh/0684.bmp
252.72	0.72	342	5	6	115	mem	lib	mod	mod	mod	nt	ht	nh/0680_nh.bmp
253.44	0.72	343	2	8	81	mem	lib	mod	mod	low	tg	ht	wh/0760.bmp
254.16	0.72	344	1	8	117	per	con	mod	mod	mod	tg	ms	wh/0563.bmp
254.88	0.72	345	4	6	38	per	con	low	mod	low	tg	ht	wh/0125.bmp
255.60	0.72	346	3	5	94	mem	con	mod	mod	low	nt	ht	nh/0256_nh.bmp
256.32	0.72	347	5	8	65	per	con	low	mod	low	nt	cr	nh/0893_nh.bmp
257.04	0.72	348	3	7	22	per	lib	low	mod	low	nt	cr	nh/0079_nh.bmp
257.76	0.72	349	3	7	40	mem	con	mod	mod	mod	nt	ht	nh/0182_nh.bmp
258.48	0.72	350	3	6	103	mem	con	mod	mod	mod	nt	ht	nh/0187_nh.bmp
259.20	0.72	351	3	6	121	mem	lib	mod	mod	mod	tg	ms	wh/0714.bmp
259.92	0.72	352	3	7	26	per	lib	low	mod	low	tg	ms	wh/0613.bmp
260.64	0.72	353	1	6	10	mem	lib	low	low	low	tg	ht	wh/0437.bmp
261.36	0.72	354	2	6	44	per	con	low	mod	low	nt	cr	nh/0190_nh.bmp
262.08	0.72	355	3	5	80	mem	lib	mod	mod	low	nt	ms	nh/0080_nh.bmp
262.80	0.72	356	3	6	48	per	con	low	mod	low	tg	ms	wh/0238.bmp
263.52	0.72	357	1	8	35	per	lib	mod	low	mod	tg	ms	wh/0068.bmp
264.24	0.72	358	4	7	22	per	lib	low	mod	low	nt	cr	nh/0079_nh.bmp
264.96	0.72	359	3	7	32	per	lib	low	mod	low	tg	ms	wh/0802.bmp
265.68	0.72	360	1	6	25	per	lib	mod	mod	mod	nt	fa	nh/0591_nh.bmp
266.40	0.72	361	4	8	68	per	con	low	mod	low	tg	ms	wh/0577.bmp
267.12	0.72	362	1	8	4	mem	con	low	low	mod	nt	ms	nh/0584_nh.bmp
267.84	0.72	363	2	7	9	mem	lib	mod	mod	mod	tg	ms	wh/0371.bmp
268.56	0.72	364	6	7	105	per	lib	mod	mod	mod	nt	cr	nh/0350_nh.bmp
269.28	0.72	365	3	8	100	mem	con	mod	mod	low	tg	ht	wh/0338.bmp
270.00	0.72	366	1	5	26	mem	con	low	low	mod	tg	ms	wh/0520.bmp
270.72	0.72	367	1	8	5	mem	con	low	low	mod	nt	ms	nh/0860_nh.bmp
271.44	0.72	368	2	7	27	per	lib	low	mod	low	nt	cr	nh/0336_nh.bmp
272.16	0.72	369	1	6	102	mem	con	mod	mod	mod	tg	ms	wh/0941.bmp
272.88	0.72	370	1	6	74	per	lib	low	low	low	tg	ms	wh/0237.bmp
273.60	0.72	371	6	8	65	per	con	low	mod	low	nt	cr	nh/0893_nh.bmp
274.32	0.72	372	3	6	44	per	con	low	mod	low	nt	cr	nh/0190_nh.bmp
275.04	0.72	373	2	8	84	mem	lib	mod	mod	low	nt	ms	nh/0818_nh.bmp
275.76	0.72	374	3	5	36	per	con	mod	mod	mod	nt	cr	nh/0697_nh.bmp
276.48	0.72	375	2	6	98	mem	con	mod	mod	mod	nt	ms	nh/0855_nh.bmp
277.20	0.72	376	3	6	98	mem	con	mod	mod	mod	nt	ms	nh/0855_nh.bmp
277.92	0.72	377	1	7	57	per	con	low	low	low	nt	cr	nh/0579_nh.bmp
278.64	0.72	378	3	8	93	mem	lib	mod	mod	low	tg	ht	wh/0443.bmp
279.36	0.72	379	2	6	126	mem	lib	mod	mod	mod	tg	ht	wh/0446.bmp
280.08	0.72	380	3	7	97	per	lib	mod	mod	mod	nt	cr	nh/0593_nh.bmp
280.80	0.72	381	4	5	36	per	con	mod	mod	mod	nt	cr	nh/0697_nh.bmp
281.52	0.72	382	4	7	97	per	lib	mod	mod	mod	nt	cr	nh/0593_nh.bmp
282.24	0.72	383	2	5	53	per	lib	low	mod	low	tg	ms	wh/1023.bmp
282.96	0.72	384	3	5	39	per	con	mod	mod	mod	tg	ms	wh/0497.bmp
283.68	0.72	385	4	7	25	per	lib	low	mod	low	nt	cr	nh/0451_nh.bmp
284.40	0.72	386	3	7	10	mem	lib	mod	mod	mod	nt	ht	nh/0716_nh.bmp
285.12	0.72	387	4	6	108	mem	con	mod	mod	mod	tg	ht	wh/0222.bmp
285.84	0.72	388	4	6	48	per	con	low	mod	low	tg	ms	wh/0238.bmp
286.56	0.72	389	5	7	47	mem	con	mod	mod	mod	tg	ms	wh/0428.bmp
287.28	0.72	390	1	8	46	per	lib	mod	low	mod	tg	ht	wh/0216.bmp
288.00	0.72	391	4	8	127	per	con	mod	mod	mod	tg	ms	wh/0784.bmp
288.72	0.72	392	1	6	79	per	lib	low	low	low	nt	cr	nh/0158_nh.bmp
289.44	0.72	393	2	6	30	per	lib	mod	mod	mod	tg	ms	wh/0380.bmp
290.16	0.72	394	4	7	26	per	lib	low	mod	low	tg	ms	wh/0613.bmp
290.88	0.72	395	1	5	21	mem	con	low	low	mod	tg	ms	wh/0927.bmp
291.60	0.72	396	3	6	105	mem	con	mod	mod	mod	tg	ht	wh/0199.bmp
292.32	0.72	397	1	7	104	per	lib	mod	mod	mod	tg	ht	wh/0962.bmp
293.04	0.72	398	3	5	90	mem	con	mod	mod	low	tg	ht	wh/0355.bmp
293.76	0.72	399	3	6	34	per	con	low	mod	low	nt	cr	nh/0074_nh.bmp
294.48	0.72	400	3	7	43	mem	con	mod	mod	mod	tg	ms	wh/0209.bmp
295.20	0.72	401	4	7	40	mem	con	mod	mod	mod	nt	ht	nh/0182_nh.bmp
295.92	0.72	402	2	8	117	per	con	mod	mod	mod	tg	ms	wh/0563.bmp
296.64	0.72	403	2	6	120	mem	lib	mod	mod	mod	nt	ht	nh/0594_nh.bmp
297.36	0.72	404	5	7	26	per	lib	low	mod	low	tg	ms	wh/0613.bmp
298.08	0.72	405	1	5	125	per	con	low	low	low	tg	ms	wh/0146.bmp
298.80	0.72	406	2	6	102	mem	con	mod	mod	mod	tg	ms	wh/0941.bmp
299.52	0.72	407	2	7	24	per	lib	low	mod	low	tg	ms	wh/0417.bmp
300.24	0.72	408	3	5	86	mem	con	mod	mod	low	nt	ht	nh/0364_nh.bmp
300.96	0.72	409	2	7	30	per	lib	low	mod	low	nt	fa	nh/0150_nh.bmp
301.68	0.72	410	1	8	24	per	lib	low	low	low	nt	fa	nh/0431_nh.bmp
302.40	0.72	411	1	8	33	per	lib	mod	low	mod	tg	ms	wh/0048.bmp
303.12	0.72	412	5	5	36	per	con	mod	mod	mod	nt	cr	nh/0697_nh.bmp
303.84	0.72	413	3	8	84	mem	lib	mod	mod	low	nt	ms	nh/0818_nh.bmp
304.56	0.72	414	4	6	98	mem	con	mod	mod	mod	nt	ms	nh/0855_nh.bmp
305.28	0.72	415	1	5	79	mem	lib	mod	mod	low	nt	ht	nh/0646_nh.bmp
306.00	0.72	416	3	7	30	per	lib	low	mod	low	nt	fa	nh/0150_nh.bmp
306.72	0.72	417	1	5	124	per	con	low	low	low	tg	ms	wh/0483.bmp
307.44	0.72	418	4	6	103	mem	con	mod	mod	mod	nt	ht	nh/0187_nh.bmp
308.16	0.72	419	3	7	41	mem	con	mod	mod	mod	nt	ht	nh/0810_nh.bmp
308.88	0.72	420	1	5	56	per	lib	low	mod	low	tg	ms	wh/0934.bmp
309.60	0.72	421	3	8	81	mem	lib	mod	mod	low	tg	ht	wh/0760.bmp
310.32	0.72	422	5	6	41	per	con	low	mod	low	nt	cr	nh/0967_nh.bmp
311.04	0.72	423	3	5	53	per	lib	low	mod	low	tg	ms	wh/1023.bmp
311.76	0.72	424	1	8	42	per	lib	mod	low	mod	nt	cr	nh/0419_nh.bmp
312.48	0.72	425	4	5	58	per	lib	low	mod	low	nt	cr	nh/0082_nh.bmp
313.20	0.72	426	2	5	79	mem	lib	mod	mod	low	nt	ht	nh/0646_nh.bmp
313.92	0.72	427	4	5	86	mem	con	mod	mod	low	nt	ht	nh/0364_nh.bmp
314.64	0.72	428	4	8	75	per	con	low	mod	low	nt	cr	nh/0029_nh.bmp
315.36	0.72	429	5	8	75	per	con	low	mod	low	nt	cr	nh/0029_nh.bmp
316.08	0.72	430	3	7	34	mem	con	mod	mod	mod	tg	ht	wh/0273.bmp
316.80	0.72	431	3	7	9	mem	lib	mod	mod	mod	tg	ms	wh/0371.bmp
317.52	0.72	432	3	6	126	mem	lib	mod	mod	mod	tg	ht	wh/0446.bmp
318.24	0.72	433	1	7	60	per	con	low	low	low	nt	cr	nh/0789_nh.bmp
318.96	0.72	434	4	5	55	per	lib	low	mod	low	nt	cr	nh/0608_nh.bmp
319.68	0.72	435	3	8	115	per	con	mod	mod	mod	nt	cr	nh/0973_nh.bmp
320.40	0.72	436	2	7	39	mem	con	mod	mod	mod	nt	ms	nh/0650_nh.bmp
321.12	0.72	437	2	5	56	per	lib	low	mod	low	tg	ms	wh/0934.bmp
321.84	0.72	438	4	5	94	mem	con	mod	mod	low	nt	ht	nh/0256_nh.bmp
322.56	0.72	439	5	8	125	per	con	mod	mod	mod	tg	ms	wh/0447.bmp
323.28	0.72	440	3	8	104	mem	con	mod	mod	low	tg	ms	wh/0345.bmp
324.00	0.72	441	2	7	108	per	lib	mod	mod	mod	nt	cr	nh/0558_nh.bmp
324.72	0.72	442	3	8	97	mem	con	mod	mod	low	nt	ms	nh/0299_nh.bmp
325.44	0.72	443	4	8	114	per	con	mod	mod	mod	tg	ht	wh/0548.bmp
326.16	0.72	444	3	5	91	mem	con	mod	mod	low	tg	ht	wh/0744.bmp
326.88	0.72	445	2	6	45	per	con	low	mod	low	tg	ms	wh/0465.bmp
327.60	0.72	446	3	7	27	per	lib	low	mod	low	nt	cr	nh/0336_nh.bmp
328.32	0.72	447	1	6	14	mem	lib	low	low	low	tg	ht	wh/0225.bmp
329.04	0.72	448	5	8	87	mem	lib	mod	mod	low	nt	ht	nh/0036_nh.bmp
329.76	0.72	449	5	6	48	per	con	low	mod	low	tg	ms	wh/0238.bmp
330.48	0.72	450	5	5	58	per	lib	low	mod	low	nt	cr	nh/0082_nh.bmp
331.20	0.72	451	4	5	70	mem	lib	mod	mod	low	tg	ht	wh/0660.bmp
331.92	0.72	452	3	7	4	mem	lib	mod	mod	mod	nt	ht	nh/0807_nh.bmp
332.64	0.72	453	6	6	115	mem	lib	mod	mod	mod	nt	ht	nh/0680_nh.bmp
333.36	0.72	454	5	8	127	per	con	mod	mod	mod	tg	ms	wh/0784.bmp
334.08	0.72	455	4	8	90	mem	lib	mod	mod	low	nt	ht	nh/0077_nh.bmp
334.80	0.72	456	3	6	45	per	con	low	mod	low	tg	ms	wh/0465.bmp
335.52	0.72	457	4	8	71	per	con	low	mod	low	tg	ms	wh/0503.bmp
336.24	0.72	458	4	6	35	per	con	low	mod	low	tg	ms	wh/0383.bmp
336.96	0.72	459	3	7	39	mem	con	mod	mod	mod	nt	ms	nh/0650_nh.bmp
337.68	0.72	460	2	7	104	per	lib	mod	mod	mod	tg	ht	wh/0962.bmp
338.40	0.72	461	2	5	68	mem	lib	mod	mod	low	tg	ht	wh/0035.bmp
339.12	0.72	462	3	8	92	mem	lib	mod	mod	low	nt	ht	nh/0232_nh.bmp
339.84	0.72	463	3	7	104	per	lib	mod	mod	mod	tg	ht	wh/0962.bmp
340.56	0.72	464	3	6	31	per	lib	mod	mod	mod	nt	cr	nh/0398_nh.bmp
341.28	0.72	465	3	5	48	per	con	mod	mod	mod	tg	ht	wh/0588.bmp
342.00	0.72	466	3	6	122	mem	lib	mod	mod	mod	nt	ht	nh/0542_nh.bmp
342.72	0.72	467	3	6	116	mem	lib	mod	mod	mod	tg	ms	wh/0099.bmp
343.44	0.72	468	4	7	104	per	lib	mod	mod	mod	tg	ht	wh/0962.bmp
344.16	0.72	469	3	6	125	mem	lib	mod	mod	mod	nt	ht	nh/0543_nh.bmp
344.88	0.72	470	3	5	78	mem	lib	mod	mod	low	nt	ms	nh/0940_nh.bmp
345.60	0.72	471	3	7	108	per	lib	mod	mod	mod	nt	cr	nh/0558_nh.bmp
346.32	0.72	472	1	7	63	per	con	low	low	low	tg	ms	wh/0864.bmp
347.04	0.72	473	4	5	39	per	con	mod	mod	mod	tg	ms	wh/0497.bmp
347.76	0.72	474	5	8	111	mem	con	mod	mod	low	tg	ht	wh/0134.bmp
348.48	0.72	475	3	7	23	per	lib	low	mod	low	tg	ms	wh/0153.bmp
349.20	0.72	476	2	7	98	per	lib	mod	mod	mod	nt	cr	nh/0339_nh.bmp
349.92	0.72	477	3	5	95	mem	con	mod	mod	low	tg	ht	wh/0404.bmp
350.64	0.72	478	1	7	49	per	con	low	low	low	tg	ht	wh/0701.bmp
351.36	0.72	479	3	7	36	mem	con	mod	mod	mod	nt	ht	nh/0904_nh.bmp
352.08	0.72	480	3	8	126	per	con	mod	mod	mod	nt	cr	nh/0397_nh.bmp
352.80	0.72	481	3	6	30	per	lib	mod	mod	mod	tg	ms	wh/0380.bmp
353.52	0.72	482	4	8	81	mem	lib	mod	mod	low	tg	ht	wh/0760.bmp
354.24	0.72	483	4	8	109	mem	con	mod	mod	low	tg	ms	wh/0510.bmp
354.96	0.72	484	3	7	100	per	lib	mod	mod	mod	tg	ht	wh/0946.bmp
355.68	0.72	485	1	8	39	per	lib	mod	low	mod	tg	ms	wh/0992.bmp
356.40	0.72	486	3	8	106	mem	con	mod	mod	low	nt	ht	nh/0382_nh.bmp
357.12	0.72	487	4	7	100	per	lib	mod	mod	mod	tg	ht	wh/0946.bmp
357.84	0.72	488	1	5	19	mem	con	low	low	mod	tg	ms	wh/0301.bmp
358.56	0.72	489	3	5	63	per	lib	low	mod	low	nt	cr	nh/0964_nh.bmp
359.28	0.72	490	4	7	5	mem	lib	mod	mod	mod	tg	ht	wh/0928.bmp
360.00	0.72	491	4	7	103	per	lib	mod	mod	mod	tg	ms	wh/0748.bmp
360.72	0.72	492	4	6	45	per	con	low	mod	low	tg	ms	wh/0465.bmp
361.44	0.72	493	5	6	98	mem	con	mod	mod	mod	nt	ms	nh/0855_nh.bmp
362.16	0.72	494	3	7	24	per	lib	low	mod	low	tg	ms	wh/0417.bmp
362.88	0.72	495	5	7	5	mem	lib	mod	mod	mod	tg	ht	wh/0928.bmp
363.60	0.72	496	3	8	69	per	con	low	mod	low	tg	ms	wh/0508.bmp
364.32	0.72	497	4	7	9	mem	lib	mod	mod	mod	tg	ms	wh/0371.bmp
365.04	0.72	498	4	6	23	per	lib	mod	mod	mod	tg	ms	wh/0684.bmp
365.76	0.72	499	5	6	17	per	lib	mod	mod	mod	nt	cr	nh/0328_nh.bmp
366.48	0.72	500	4	6	125	mem	lib	mod	mod	mod	nt	ht	nh/0543_nh.bmp
367.20	0.72	501	5	7	97	per	lib	mod	mod	mod	nt	cr	nh/0593_nh.bmp
367.92	0.72	502	2	5	62	per	lib	low	mod	low	tg	ht	wh/0123.bmp
368.64	0.72	503	4	6	122	mem	lib	mod	mod	mod	nt	ht	nh/0542_nh.bmp
369.36	0.72	504	5	5	70	mem	lib	mod	mod	low	tg	ht	wh/0660.bmp
370.08	0.72	505	4	5	80	mem	lib	mod	mod	low	nt	ms	nh/0080_nh.bmp
370.80	0.72	506	2	8	80	per	con	low	mod	low	nt	cr	nh/0489_nh.bmp
371.52	0.72	507	3	8	99	mem	con	mod	mod	low	nt	ht	nh/0329_nh.bmp
372.24	0.72	508	4	6	30	per	lib	mod	mod	mod	tg	ms	wh/0380.bmp
372.96	0.72	509	1	6	77	per	lib	low	low	low	nt	fa	nh/0266_nh.bmp
373.68	0.72	510	4	7	41	mem	con	mod	mod	mod	nt	ht	nh/0810_nh.bmp
374.40	0.72	511	5	6	35	per	con	low	mod	low	tg	ms	wh/0383.bmp
375.12	0.72	512	4	7	43	mem	con	mod	mod	mod	tg	ms	wh/0209.bmp
375.84	0.72	513	4	7	27	per	lib	low	mod	low	nt	cr	nh/0336_nh.bmp
376.56	0.72	514	4	5	91	mem	con	mod	mod	low	tg	ht	wh/0744.bmp
377.28	0.72	515	1	5	7	per	lib	mod	low	mod	nt	cr	nh/0096_nh.bmp
378.00	0.72	516	1	8	2	mem	con	low	low	mod	nt	ms	nh/0581_nh.bmp
378.72	0.72	517	3	5	56	per	lib	low	mod	low	tg	ms	wh/0934.bmp
379.44	0.72	518	1	8	17	per	lib	low	low	low	nt	cr	nh/0112_nh.bmp
380.16	0.72	519	3	6	102	mem	con	mod	mod	mod	tg	ms	wh/0941.bmp
380.88	0.72	520	5	5	91	mem	con	mod	mod	low	tg	ht	wh/0744.bmp
381.60	0.72	521	4	8	93	mem	lib	mod	mod	low	tg	ht	wh/0443.bmp
382.32	0.72	522	4	8	78	per	con	low	mod	low	nt	cr	nh/0619_nh.bmp
383.04	0.72	523	1	8	59	mem	lib	low	low	low	nt	ms	nh/0711_nh.bmp
383.76	0.72	524	2	6	25	per	lib	mod	mod	mod	nt	fa	nh/0591_nh.bmp
384.48	0.72	525	6	5	91	mem	con	mod	mod	low	tg	ht	wh/0744.bmp
385.20	0.72	526	4	7	108	per	lib	mod	mod	mod	nt	cr	nh/0558_nh.bmp
385.92	0.72	527	4	8	115	per	con	mod	mod	mod	nt	cr	nh/0973_nh.bmp
386.64	0.72	528	1	5	4	per	lib	mod	low	mod	nt	cr	nh/0626_nh.bmp
387.36	0.72	529	1	6	90	mem	con	low	low	low	tg	ms	wh/0384.bmp
388.08	0.72	530	5	8	114	per	con	mod	mod	mod	tg	ht	wh/0548.bmp
388.80	0.72	531	3	6	100	mem	con	mod	mod	mod	nt	ms	nh/0094_nh.bmp
389.52	0.72	532	1	6	7	mem	lib	low	low	low	tg	ht	wh/0173.bmp
390.24	0.72	533	4	5	85	mem	con	mod	mod	low	tg	ht	wh/0730.bmp
390.96	0.72	534	5	6	125	mem	lib	mod	mod	mod	nt	ht	nh/0543_nh.bmp
391.68	0.72	535	2	8	82	mem	lib	mod	mod	low	tg	ms	wh/0690.bmp
392.40	0.72	536	4	8	84	mem	lib	mod	mod	low	nt	ms	nh/0818_nh.bmp
393.12	0.72	537	1	5	8	per	lib	mod	low	mod	tg	ht	wh/0306.bmp
393.84	0.72	538	3	5	60	per	lib	low	mod	low	nt	cr	nh/0635_nh.bmp
394.56	0.72	539	4	7	36	mem	con	mod	mod	mod	nt	ht	nh/0904_nh.bmp
395.28	0.72	540	2	8	96	mem	lib	mod	mod	low	tg	ht	wh/0361.bmp
396.00	0.72	541	5	8	81	mem	lib	mod	mod	low	tg	ht	wh/0760.bmp
396.72	0.72	542	4	5	38	per	con	mod	mod	mod	nt	cr	nh/0095_nh.bmp
397.44	0.72	543	5	5	86	mem	con	mod	mod	low	nt	ht	nh/0364_nh.bmp
398.16	0.72	544	5	7	22	per	lib	low	mod	low	nt	cr	nh/0079_nh.bmp
398.88	0.72	545	4	7	23	per	lib	low	mod	low	tg	ms	wh/0153.bmp
399.60	0.72	546	5	6	103	mem	con	mod	mod	mod	nt	ht	nh/0187_nh.bmp
400.32	0.72	547	6	6	35	per	con	low	mod	low	tg	ms	wh/0383.bmp
401.04	0.72	548	5	6	39	per	con	low	mod	low	nt	fa	nh/0075_nh.bmp
401.76	0.72	549	3	5	69	mem	lib	mod	mod	low	tg	ht	wh/0194.bmp
402.48	0.72	550	3	6	120	mem	lib	mod	mod	mod	nt	ht	nh/0594_nh.bmp
403.20	0.72	551	4	8	106	mem	con	mod	mod	low	nt	ht	nh/0382_nh.bmp
403.92	0.72	552	4	8	102	mem	con	mod	mod	low	nt	ms	nh/0284_nh.bmp
404.64	0.72	553	4	8	126	per	con	mod	mod	mod	nt	cr	nh/0397_nh.bmp
405.36	0.72	554	5	8	90	mem	lib	mod	mod	low	nt	ht	nh/0077_nh.bmp
406.08	0.72	555	4	7	3	mem	lib	mod	mod	mod	tg	ms	wh/0803.bmp
406.80	0.72	556	4	7	2	mem	lib	mod	mod	mod	nt	ms	nh/0540_nh.bmp
407.52	0.72	557	3	8	96	mem	lib	mod	mod	low	tg	ht	wh/0361.bmp
408.24	0.72	558	1	8	18	per	lib	low	low	low	tg	ms	wh/0488.bmp
408.96	0.72	559	6	8	75	per	con	low	mod	low	nt	cr	nh/0029_nh.bmp
409.68	0.72	560	4	7	34	mem	con	mod	mod	mod	tg	ht	wh/0273.bmp
410.40	0.72	561	4	8	69	per	con	low	mod	low	tg	ms	wh/0508.bmp
411.12	0.72	562	1	5	117	per	con	low	low	low	nt	fa	nh/0113_nh.bmp
411.84	0.72	563	4	8	97	mem	con	mod	mod	low	nt	ms	nh/0299_nh.bmp
412.56	0.72	564	4	5	90	mem	con	mod	mod	low	tg	ht	wh/0355.bmp
413.28	0.72	565	3	8	80	per	con	low	mod	low	nt	cr	nh/0489_nh.bmp
414.00	0.72	566	4	5	78	mem	lib	mod	mod	low	nt	ms	nh/0940_nh.bmp
414.72	0.72	567	4	5	48	per	con	mod	mod	mod	tg	ht	wh/0588.bmp
415.44	0.72	568	4	5	72	mem	lib	mod	mod	low	nt	ms	nh/0032_nh.bmp
416.16	0.72	569	5	5	48	per	con	mod	mod	mod	tg	ht	wh/0588.bmp
416.88	0.72	570	5	7	36	mem	con	mod	mod	mod	nt	ht	nh/0904_nh.bmp
417.60	0.72	571	5	7	2	mem	lib	mod	mod	mod	nt	ms	nh/0540_nh.bmp
418.32	0.72	572	4	7	4	mem	lib	mod	mod	mod	nt	ht	nh/0807_nh.bmp
419.04	0.72	573	3	5	65	mem	lib	mod	mod	low	tg	ht	wh/0963.bmp
419.76	0.72	574	5	5	38	per	con	mod	mod	mod	nt	cr	nh/0095_nh.bmp
420.48	0.72	575	3	5	79	mem	lib	mod	mod	low	nt	ht	nh/0646_nh.bmp
421.20	0.72	576	1	7	89	per	con	mod	low	mod	tg	ht	wh/0782.bmp
421.92	0.72	577	4	6	121	mem	lib	mod	mod	mod	tg	ms	wh/0714.bmp
422.64	0.72	578	5	8	102	mem	con	mod	mod	low	nt	ms	nh/0284_nh.bmp
423.36	0.72	579	3	5	68	mem	lib	mod	mod	low	tg	ht	wh/0035.bmp
424.08	0.72	580	5	7	34	mem	con	mod	mod	mod	tg	ht	wh/0273.bmp
424.80	0.72	581	1	6	3	mem	lib	low	low	low	nt	ht	nh/0013_nh.bmp
425.52	0.72	582	3	6	24	per	lib	mod	mod	mod	tg	ht	wh/0795.bmp
426.24	0.72	583	6	8	111	mem	con	mod	mod	low	tg	ht	wh/0134.bmp
426.96	0.72	584	5	5	55	per	lib	low	mod	low	nt	cr	nh/0608_nh.bmp
427.68	0.72	585	4	5	69	mem	lib	mod	mod	low	tg	ht	wh/0194.bmp
428.40	0.72	586	5	5	85	mem	con	mod	mod	low	tg	ht	wh/0730.bmp
429.12	0.72	587	4	5	60	per	lib	low	mod	low	nt	cr	nh/0635_nh.bmp
429.84	0.72	588	5	5	39	per	con	mod	mod	mod	tg	ms	wh/0497.bmp
430.56	0.72	589	1	7	69	mem	con	low	low	low	tg	ms	wh/0261.bmp
431.28	0.72	590	5	6	30	per	lib	mod	mod	mod	tg	ms	wh/0380.bmp
432.00	0.72	591	5	7	4	mem	lib	mod	mod	mod	nt	ht	nh/0807_nh.bmp
432.72	0.72	592	5	7	3	mem	lib	mod	mod	mod	tg	ms	wh/0803.bmp
433.44	0.72	593	4	5	63	per	lib	low	mod	low	nt	cr	nh/0964_nh.bmp
434.16	0.72	594	5	5	90	mem	con	mod	mod	low	tg	ht	wh/0355.bmp
434.88	0.72	595	4	7	10	mem	lib	mod	mod	mod	nt	ht	nh/0716_nh.bmp
435.60	0.72	596	4	6	31	per	lib	mod	mod	mod	nt	cr	nh/0398_nh.bmp
436.32	0.72	597	5	7	33	mem	con	mod	mod	mod	tg	ms	wh/0805.bmp
437.04	0.72	598	1	8	30	per	lib	low	low	low	nt	cr	nh/1007_nh.bmp
437.76	0.72	599	1	8	20	per	lib	low	low	low	nt	cr	nh/0999_nh.bmp
438.48	0.72	600	5	7	25	per	lib	low	mod	low	nt	cr	nh/0451_nh.bmp
439.20	0.72	601	3	5	62	per	lib	low	mod	low	tg	ht	wh/0123.bmp
439.92	0.72	602	5	7	10	mem	lib	mod	mod	mod	nt	ht	nh/0716_nh.bmp
440.64	0.72	603	4	6	34	per	con	low	mod	low	nt	cr	nh/0074_nh.bmp
441.36	0.72	604	4	7	13	mem	lib	mod	mod	mod	nt	ms	nh/0772_nh.bmp
442.08	0.72	605	1	8	51	mem	lib	low	low	low	tg	ms	wh/1009.bmp
442.80	0.72	606	1	8	1	mem	con	low	low	mod	nt	ms	nh/0530_nh.bmp
443.52	0.72	607	2	5	34	per	con	mod	mod	mod	tg	ms	wh/0396.bmp
444.24	0.72	608	5	7	100	per	lib	mod	mod	mod	tg	ht	wh/0946.bmp
444.96	0.72	609	1	7	68	mem	con	low	low	low	nt	ms	nh/0458_nh.bmp
445.68	0.72	610	5	6	108	mem	con	mod	mod	mod	tg	ht	wh/0222.bmp
446.40	0.72	611	6	8	102	mem	con	mod	mod	low	nt	ms	nh/0284_nh.bmp
447.12	0.72	612	4	5	92	mem	con	mod	mod	low	nt	ht	nh/0758_nh.bmp
447.84	0.72	613	6	5	48	per	con	mod	mod	mod	tg	ht	wh/0588.bmp
448.56	0.72	614	5	7	40	mem	con	mod	mod	mod	nt	ht	nh/0182_nh.bmp
449.28	0.72	615	5	5	96	mem	con	mod	mod	low	nt	ht	nh/0351_nh.bmp
450.00	0.72	616	5	8	69	per	con	low	mod	low	tg	ms	wh/0508.bmp
450.72	0.72	617	4	6	24	per	lib	mod	mod	mod	tg	ht	wh/0795.bmp
451.44	0.72	618	1	5	98	mem	lib	low	low	mod	nt	ms	nh/0025_nh.bmp
452.16	0.72	619	1	5	9	per	lib	mod	low	mod	nt	cr	nh/0569_nh.bmp
452.88	0.72	620	1	6	53	per	con	mod	low	mod	tg	ht	wh/0652.bmp
453.60	0.72	621	4	8	99	mem	con	mod	mod	low	nt	ht	nh/0329_nh.bmp
454.32	0.72	622	3	8	117	per	con	mod	mod	mod	tg	ms	wh/0563.bmp
455.04	0.72	623	1	8	63	mem	lib	low	low	low	tg	ms	wh/0088.bmp
455.76	0.72	624	4	8	92	mem	lib	mod	mod	low	nt	ht	nh/0232_nh.bmp
456.48	0.72	625	5	7	108	per	lib	mod	mod	mod	nt	cr	nh/0558_nh.bmp
457.20	0.72	626	1	7	62	per	con	low	low	low	nt	cr	nh/0815_nh.bmp
457.92	0.72	627	5	7	43	mem	con	mod	mod	mod	tg	ms	wh/0209.bmp
458.64	0.72	628	1	7	127	mem	lib	low	low	mod	tg	ht	wh/1024.bmp
459.36	0.72	629	6	5	70	mem	lib	mod	mod	low	tg	ht	wh/0660.bmp
460.08	0.72	630	5	5	60	per	lib	low	mod	low	nt	cr	nh/0635_nh.bmp
460.80	0.72	631	5	7	23	per	lib	low	mod	low	tg	ms	wh/0153.bmp
461.52	0.72	632	4	8	80	per	con	low	mod	low	nt	cr	nh/0489_nh.bmp
462.24	0.72	633	1	8	15	mem	con	low	low	mod	tg	ms	wh/0787.bmp
462.96	0.72	634	5	8	92	mem	lib	mod	mod	low	nt	ht	nh/0232_nh.bmp
463.68	0.72	635	5	6	24	per	lib	mod	mod	mod	tg	ht	wh/0795.bmp
464.40	0.72	636	5	6	31	per	lib	mod	mod	mod	nt	cr	nh/0398_nh.bmp
465.12	0.72	637	4	5	56	per	lib	low	mod	low	tg	ms	wh/0934.bmp
465.84	0.72	638	6	8	81	mem	lib	mod	mod	low	tg	ht	wh/0760.bmp
466.56	0.72	639	5	6	109	mem	con	mod	mod	mod	nt	ms	nh/0319_nh.bmp
467.28	0.72	640	6	6	98	mem	con	mod	mod	mod	nt	ms	nh/0855_nh.bmp
468.00	0.72	641	5	5	63	per	lib	low	mod	low	nt	cr	nh/0964_nh.bmp
468.72	0.72	642	6	7	40	mem	con	mod	mod	mod	nt	ht	nh/0182_nh.bmp
469.44	0.72	643	5	5	92	mem	con	mod	mod	low	nt	ht	nh/0758_nh.bmp
470.16	0.72	644	3	6	25	per	lib	mod	mod	mod	nt	fa	nh/0591_nh.bmp
470.88	0.72	645	4	6	102	mem	con	mod	mod	mod	tg	ms	wh/0941.bmp
471.60	0.72	646	4	7	24	per	lib	low	mod	low	tg	ms	wh/0417.bmp
472.32	0.72	647	5	5	69	mem	lib	mod	mod	low	tg	ht	wh/0194.bmp
473.04	0.72	648	5	7	102	per	lib	mod	mod	mod	tg	ms	wh/0957.bmp
473.76	0.72	649	4	5	68	mem	lib	mod	mod	low	tg	ht	wh/0035.bmp
474.48	0.72	650	3	6	124	mem	lib	mod	mod	mod	tg	ms	wh/0196.bmp
475.20	0.72	651	6	7	25	per	lib	low	mod	low	nt	cr	nh/0451_nh.bmp
475.92	0.72	652	1	5	101	mem	lib	low	low	mod	tg	ms	wh/0572.bmp
476.64	0.72	653	4	6	25	per	lib	mod	mod	mod	nt	fa	nh/0591_nh.bmp
477.36	0.72	654	6	6	48	per	con	low	mod	low	tg	ms	wh/0238.bmp
478.08	0.72	655	6	5	55	per	lib	low	mod	low	nt	cr	nh/0608_nh.bmp
478.80	0.72	656	6	6	108	mem	con	mod	mod	mod	tg	ht	wh/0222.bmp
479.52	0.72	657	4	6	100	mem	con	mod	mod	mod	nt	ms	nh/0094_nh.bmp
480.24	0.72	658	6	8	87	mem	lib	mod	mod	low	nt	ht	nh/0036_nh.bmp
480.96	0.72	659	5	8	97	mem	con	mod	mod	low	nt	ms	nh/0299_nh.bmp
481.68	0.72	660	4	6	126	mem	lib	mod	mod	mod	tg	ht	wh/0446.bmp
482.40	0.72	661	1	6	8	mem	lib	low	low	low	nt	ms	nh/0434_nh.bmp
483.12	0.72	662	5	8	68	per	con	low	mod	low	tg	ms	wh/0577.bmp
483.84	0.72	663	3	7	98	per	lib	mod	mod	mod	nt	cr	nh/0339_nh.bmp
484.56	0.72	664	5	7	27	per	lib	low	mod	low	nt	cr	nh/0336_nh.bmp
485.28	0.72	665	5	6	23	per	lib	mod	mod	mod	tg	ms	wh/0684.bmp
486.00	0.72	666	5	5	78	mem	lib	mod	mod	low	nt	ms	nh/0940_nh.bmp
486.72	0.72	667	5	8	122	per	con	mod	mod	mod	nt	cr	nh/0947_nh.bmp
487.44	0.72	668	5	6	122	mem	lib	mod	mod	mod	nt	ht	nh/0542_nh.bmp
488.16	0.72	669	5	6	25	per	lib	mod	mod	mod	nt	fa	nh/0591_nh.bmp
488.88	0.72	670	5	7	24	per	lib	low	mod	low	tg	ms	wh/0417.bmp
489.60	0.72	671	1	8	26	per	lib	low	low	low	tg	ht	wh/0148.bmp
490.32	0.72	672	5	8	84	mem	lib	mod	mod	low	nt	ms	nh/0818_nh.bmp
491.04	0.72	673	5	8	106	mem	con	mod	mod	low	nt	ht	nh/0382_nh.bmp
491.76	0.72	674	3	6	20	per	lib	mod	mod	mod	tg	ht	wh/0442.bmp
492.48	0.72	675	1	5	32	mem	con	low	low	mod	nt	ms	nh/0718_nh.bmp
493.20	0.72	676	6	6	41	per	con	low	mod	low	nt	cr	nh/0967_nh.bmp
493.92	0.72	677	4	8	100	mem	con	mod	mod	low	tg	ht	wh/0338.bmp
494.64	0.72	678	4	5	65	mem	lib	mod	mod	low	tg	ht	wh/0963.bmp
495.36	0.72	679	5	6	100	mem	con	mod	mod	mod	nt	ms	nh/0094_nh.bmp
496.08	0.72	680	6	8	106	mem	con	mod	mod	low	nt	ht	nh/0382_nh.bmp
496.80	0.72	681	4	5	64	per	lib	low	mod	low	tg	ms	wh/0493.bmp
497.52	0.72	682	5	7	13	mem	lib	mod	mod	mod	nt	ms	nh/0772_nh.bmp
498.24	0.72	683	5	8	93	mem	lib	mod	mod	low	tg	ht	wh/0443.bmp
498.96	0.72	684	6	7	102	per	lib	mod	mod	mod	tg	ms	wh/0957.bmp
499.68	0.72	685	5	8	115	per	con	mod	mod	mod	nt	cr	nh/0973_nh.bmp
500.40	0.72	686	4	6	20	per	lib	mod	mod	mod	tg	ht	wh/0442.bmp
501.12	0.72	687	5	6	121	mem	lib	mod	mod	mod	tg	ms	wh/0714.bmp
501.84	0.72	688	5	5	65	mem	lib	mod	mod	low	tg	ht	wh/0963.bmp
502.56	0.72	689	1	6	87	mem	con	low	low	low	nt	ms	nh/0633_nh.bmp
503.28	0.72	690	6	8	68	per	con	low	mod	low	tg	ms	wh/0577.bmp
504.00	0.72	691	6	8	92	mem	lib	mod	mod	low	nt	ht	nh/0232_nh.bmp
504.72	0.72	692	1	6	13	mem	lib	low	low	low	nt	ms	nh/0460_nh.bmp
505.44	0.72	693	4	5	53	per	lib	low	mod	low	tg	ms	wh/1023.bmp
506.16	0.72	694	5	7	41	mem	con	mod	mod	mod	nt	ht	nh/0810_nh.bmp
506.88	0.72	695	5	8	71	per	con	low	mod	low	tg	ms	wh/0503.bmp
507.60	0.72	696	6	7	108	per	lib	mod	mod	mod	nt	cr	nh/0558_nh.bmp
508.32	0.72	697	1	7	82	per	con	mod	low	mod	tg	ht	wh/0316.bmp
509.04	0.72	698	4	7	30	per	lib	low	mod	low	nt	fa	nh/0150_nh.bmp
509.76	0.72	699	6	6	109	mem	con	mod	mod	mod	nt	ms	nh/0319_nh.bmp
510.48	0.72	700	5	7	30	per	lib	low	mod	low	nt	fa	nh/0150_nh.bmp
511.20	0.72	701	6	7	33	mem	con	mod	mod	mod	tg	ms	wh/0805.bmp
511.92	0.72	702	6	6	31	per	lib	mod	mod	mod	nt	cr	nh/0398_nh.bmp
512.64	0.72	703	6	5	60	per	lib	low	mod	low	nt	cr	nh/0635_nh.bmp
513.36	0.72	704	6	5	90	mem	con	mod	mod	low	tg	ht	wh/0355.bmp
514.08	0.72	705	1	6	89	mem	con	low	low	low	tg	ht	wh/0812.bmp
514.80	0.72	706	5	5	80	mem	lib	mod	mod	low	nt	ms	nh/0080_nh.bmp
515.52	0.72	707	6	7	36	mem	con	mod	mod	mod	nt	ht	nh/0904_nh.bmp
516.24	0.72	708	6	5	78	mem	lib	mod	mod	low	nt	ms	nh/0940_nh.bmp
516.96	0.72	709	4	5	95	mem	con	mod	mod	low	tg	ht	wh/0404.bmp
517.68	0.72	710	4	7	32	per	lib	low	mod	low	tg	ms	wh/0802.bmp
518.40	0.72	711	4	5	79	mem	lib	mod	mod	low	nt	ht	nh/0646_nh.bmp
519.12	0.72	712	6	7	2	mem	lib	mod	mod	mod	nt	ms	nh/0540_nh.bmp
519.84	0.72	713	5	6	34	per	con	low	mod	low	nt	cr	nh/0074_nh.bmp
520.56	0.72	714	5	5	35	per	con	mod	mod	mod	tg	ht	wh/0843.bmp
521.28	0.72	715	6	7	3	mem	lib	mod	mod	mod	tg	ms	wh/0803.bmp
522.00	0.72	716	3	5	34	per	con	mod	mod	mod	tg	ms	wh/0396.bmp
522.72	0.72	717	5	8	78	per	con	low	mod	low	nt	cr	nh/0619_nh.bmp
523.44	0.72	718	6	7	41	mem	con	mod	mod	mod	nt	ht	nh/0810_nh.bmp
524.16	0.72	719	4	7	39	mem	con	mod	mod	mod	nt	ms	nh/0650_nh.bmp
524.88	0.72	720	5	6	126	mem	lib	mod	mod	mod	tg	ht	wh/0446.bmp
525.60	0.72	721	4	6	120	mem	lib	mod	mod	mod	nt	ht	nh/0594_nh.bmp
526.32	0.72	722	6	8	115	per	con	mod	mod	mod	nt	cr	nh/0973_nh.bmp
527.04	0.72	723	5	8	99	mem	con	mod	mod	low	nt	ht	nh/0329_nh.bmp
527.76	0.72	724	6	5	63	per	lib	low	mod	low	nt	cr	nh/0964_nh.bmp
528.48	0.72	725	6	6	39	per	con	low	mod	low	nt	fa	nh/0075_nh.bmp
529.20	0.72	726	6	7	34	mem	con	mod	mod	mod	tg	ht	wh/0273.bmp
529.92	0.72	727	3	8	82	mem	lib	mod	mod	low	tg	ms	wh/0690.bmp
530.64	0.72	728	5	7	9	mem	lib	mod	mod	mod	tg	ms	wh/0371.bmp
531.36	0.72	729	6	6	24	per	lib	mod	mod	mod	tg	ht	wh/0795.bmp
532.08	0.72	730	6	5	58	per	lib	low	mod	low	nt	cr	nh/0082_nh.bmp
532.80	0.72	731	6	6	30	per	lib	mod	mod	mod	tg	ms	wh/0380.bmp
533.52	0.72	732	6	5	92	mem	con	mod	mod	low	nt	ht	nh/0758_nh.bmp
534.24	0.72	733	6	7	47	mem	con	mod	mod	mod	tg	ms	wh/0428.bmp
534.96	0.72	734	4	6	44	per	con	low	mod	low	nt	cr	nh/0190_nh.bmp
535.68	0.72	735	1	7	87	per	con	mod	low	mod	nt	cr	nh/0598_nh.bmp
536.40	0.72	736	5	6	111	mem	con	mod	mod	mod	tg	ms	wh/0874.bmp
537.12	0.72	737	1	8	9	mem	con	low	low	mod	tg	ms	wh/0966.bmp
537.84	0.72	738	6	5	65	mem	lib	mod	mod	low	tg	ht	wh/0963.bmp
538.56	0.72	739	6	7	4	mem	lib	mod	mod	mod	nt	ht	nh/0807_nh.bmp
539.28	0.72	740	1	6	70	per	lib	low	low	low	nt	cr	nh/0655_nh.bmp
540.00	0.72	741	6	5	35	per	con	mod	mod	mod	tg	ht	wh/0843.bmp
540.72	0.72	742	6	5	39	per	con	mod	mod	mod	tg	ms	wh/0497.bmp
541.44	0.72	743	6	6	17	per	lib	mod	mod	mod	nt	cr	nh/0328_nh.bmp
542.16	0.72	744	4	6	116	mem	lib	mod	mod	mod	tg	ms	wh/0099.bmp
542.88	0.72	745	2	8	74	per	con	low	mod	low	tg	ms	wh/0568.bmp
543.60	0.72	746	6	7	10	mem	lib	mod	mod	mod	nt	ht	nh/0716_nh.bmp
544.32	0.72	747	5	5	72	mem	lib	mod	mod	low	nt	ms	nh/0032_nh.bmp
545.04	0.72	748	4	8	117	per	con	mod	mod	mod	tg	ms	wh/0563.bmp
545.76	0.72	749	3	8	74	per	con	low	mod	low	tg	ms	wh/0568.bmp
546.48	0.72	750	5	7	32	per	lib	low	mod	low	tg	ms	wh/0802.bmp
547.20	0.72	751	5	6	44	per	con	low	mod	low	nt	cr	nh/0190_nh.bmp
547.92	0.72	752	1	5	106	mem	lib	low	low	mod	tg	ms	wh/0277.bmp
548.64	0.72	753	5	6	120	mem	lib	mod	mod	mod	nt	ht	nh/0594_nh.bmp
549.36	0.72	754	6	6	100	mem	con	mod	mod	mod	nt	ms	nh/0094_nh.bmp
550.08	0.72	755	6	5	69	mem	lib	mod	mod	low	tg	ht	wh/0194.bmp
550.80	0.72	756	6	5	96	mem	con	mod	mod	low	nt	ht	nh/0351_nh.bmp
551.52	0.72	757	6	8	69	per	con	low	mod	low	tg	ms	wh/0508.bmp
552.24	0.72	758	5	6	19	per	lib	mod	mod	mod	nt	cr	nh/0902_nh.bmp
552.96	0.72	759	5	5	53	per	lib	low	mod	low	tg	ms	wh/1023.bmp
553.68	0.72	760	5	7	104	per	lib	mod	mod	mod	tg	ht	wh/0962.bmp
554.40	0.72	761	5	5	95	mem	con	mod	mod	low	tg	ht	wh/0404.bmp
555.12	0.72	762	5	6	116	mem	lib	mod	mod	mod	tg	ms	wh/0099.bmp
555.84	0.72	763	4	5	62	per	lib	low	mod	low	tg	ht	wh/0123.bmp
556.56	0.72	764	6	8	127	per	con	mod	mod	mod	tg	ms	wh/0784.bmp
557.28	0.72	765	4	8	74	per	con	low	mod	low	tg	ms	wh/0568.bmp
558.00	0.72	766	5	6	102	mem	con	mod	mod	mod	tg	ms	wh/0941.bmp
558.72	0.72	767	5	6	45	per	con	low	mod	low	tg	ms	wh/0465.bmp
559.44	0.72	768	5	6	38	per	con	low	mod	low	tg	ht	wh/0125.bmp
560.16	0.72	769	6	6	19	per	lib	mod	mod	mod	nt	cr	nh/0902_nh.bmp
560.88	0.72	770	6	7	5	mem	lib	mod	mod	mod	tg	ht	wh/0928.bmp
561.60	0.72	771	6	6	102	mem	con	mod	mod	mod	tg	ms	wh/0941.bmp
562.32	0.72	772	6	6	44	per	con	low	mod	low	nt	cr	nh/0190_nh.bmp
563.04	0.72	773	1	7	71	mem	con	low	low	low	tg	ms	wh/0768.bmp
563.76	0.72	774	6	5	36	per	con	mod	mod	mod	nt	cr	nh/0697_nh.bmp
564.48	0.72	775	4	6	124	mem	lib	mod	mod	mod	tg	ms	wh/0196.bmp
565.20	0.72	776	6	7	97	per	lib	mod	mod	mod	nt	cr	nh/0593_nh.bmp
565.92	0.72	777	5	8	74	per	con	low	mod	low	tg	ms	wh/0568.bmp
566.64	0.72	778	1	5	5	per	lib	mod	low	mod	tg	ms	wh/0729.bmp
567.36	0.72	779	4	7	98	per	lib	mod	mod	mod	nt	cr	nh/0339_nh.bmp
568.08	0.72	780	5	7	98	per	lib	mod	mod	mod	nt	cr	nh/0339_nh.bmp
568.80	0.72	781	6	5	85	mem	con	mod	mod	low	tg	ht	wh/0730.bmp
569.52	0.72	782	6	8	93	mem	lib	mod	mod	low	tg	ht	wh/0443.bmp
570.24	0.72	783	4	8	82	mem	lib	mod	mod	low	tg	ms	wh/0690.bmp
570.96	0.72	784	6	7	27	per	lib	low	mod	low	nt	cr	nh/0336_nh.bmp
571.68	0.72	785	6	8	78	per	con	low	mod	low	nt	cr	nh/0619_nh.bmp
572.40	0.72	786	6	6	125	mem	lib	mod	mod	mod	nt	ht	nh/0543_nh.bmp
573.12	0.72	787	1	7	126	mem	lib	low	low	mod	tg	ht	wh/0849.bmp
573.84	0.72	788	1	8	49	mem	lib	low	low	low	tg	ht	wh/0831.bmp
574.56	0.72	789	6	7	30	per	lib	low	mod	low	nt	fa	nh/0150_nh.bmp
575.28	0.72	790	5	6	124	mem	lib	mod	mod	mod	tg	ms	wh/0196.bmp
576.00	0.72	791	4	8	119	per	con	mod	mod	mod	nt	cr	nh/0462_nh.bmp
576.72	0.72	792	5	5	64	per	lib	low	mod	low	tg	ms	wh/0493.bmp
577.44	0.72	793	1	5	121	per	con	low	low	low	tg	ht	wh/0206.bmp
578.16	0.72	794	6	7	98	per	lib	mod	mod	mod	nt	cr	nh/0339_nh.bmp
578.88	0.72	795	5	8	82	mem	lib	mod	mod	low	tg	ms	wh/0690.bmp
579.60	0.72	796	1	8	3	mem	con	low	low	mod	tg	ms	wh/0936.bmp
580.32	0.72	797	6	8	74	per	con	low	mod	low	tg	ms	wh/0568.bmp
581.04	0.72	798	5	8	126	per	con	mod	mod	mod	nt	cr	nh/0397_nh.bmp
581.76	0.72	799	6	6	103	mem	con	mod	mod	mod	nt	ht	nh/0187_nh.bmp
582.48	0.72	800	5	8	100	mem	con	mod	mod	low	tg	ht	wh/0338.bmp
583.20	0.72	801	5	8	117	per	con	mod	mod	mod	tg	ms	wh/0563.bmp
583.92	0.72	802	1	6	52	per	con	mod	low	mod	nt	cr	nh/0900_nh.bmp
584.64	0.72	803	6	7	104	per	lib	mod	mod	mod	tg	ht	wh/0962.bmp
585.36	0.72	804	6	6	121	mem	lib	mod	mod	mod	tg	ms	wh/0714.bmp
586.08	0.72	805	6	5	43	per	con	mod	mod	mod	nt	cr	nh/0876_nh.bmp
586.80	0.72	806	6	6	34	per	con	low	mod	low	nt	cr	nh/0074_nh.bmp
587.52	0.72	807	6	5	64	per	lib	low	mod	low	tg	ms	wh/0493.bmp
588.24	0.72	808	1	6	67	per	lib	low	low	low	tg	ms	wh/0223.bmp
588.96	0.72	809	6	8	97	mem	con	mod	mod	low	nt	ms	nh/0299_nh.bmp
589.68	0.72	810	1	8	23	per	lib	low	low	low	tg	ms	wh/0528.bmp
590.40	0.72	811	6	5	38	per	con	mod	mod	mod	nt	cr	nh/0095_nh.bmp
591.12	0.72	812	6	8	126	per	con	mod	mod	mod	nt	cr	nh/0397_nh.bmp
591.84	0.72	813	5	5	62	per	lib	low	mod	low	tg	ht	wh/0123.bmp
592.56	0.72	814	6	5	80	mem	lib	mod	mod	low	nt	ms	nh/0080_nh.bmp
593.28	0.72	815	1	7	128	mem	lib	low	low	mod	tg	ht	wh/0949.bmp
594.00	0.72	816	1	6	72	per	lib	low	low	low	tg	ms	wh/0536.bmp
594.72	0.72	817	6	7	100	per	lib	mod	mod	mod	tg	ht	wh/0946.bmp
595.44	0.72	818	1	6	58	per	con	mod	low	mod	tg	ms	wh/0721.bmp
596.16	0.72	819	6	7	32	per	lib	low	mod	low	tg	ms	wh/0802.bmp
596.88	0.72	820	6	7	22	per	lib	low	mod	low	nt	cr	nh/0079_nh.bmp
597.60	0.72	821	5	8	80	per	con	low	mod	low	nt	cr	nh/0489_nh.bmp
598.32	0.72	822	6	6	122	mem	lib	mod	mod	mod	nt	ht	nh/0542_nh.bmp
599.04	0.72	823	5	5	94	mem	con	mod	mod	low	nt	ht	nh/0256_nh.bmp
599.76	0.72	824	5	8	109	mem	con	mod	mod	low	tg	ms	wh/0510.bmp
600.48	0.72	825	6	8	99	mem	con	mod	mod	low	nt	ht	nh/0329_nh.bmp
601.20	0.72	826	1	7	117	mem	lib	low	low	mod	nt	ht	nh/0838_nh.bmp
601.92	0.72	827	6	6	126	mem	lib	mod	mod	mod	tg	ht	wh/0446.bmp
602.64	0.72	828	1	6	61	per	con	mod	low	mod	nt	cr	nh/0774_nh.bmp
603.36	0.72	829	6	5	72	mem	lib	mod	mod	low	nt	ms	nh/0032_nh.bmp
604.08	0.72	830	6	7	43	mem	con	mod	mod	mod	tg	ms	wh/0209.bmp
604.80	0.72	831	1	7	79	mem	con	low	low	low	nt	ht	nh/0513_nh.bmp
605.52	0.72	832	6	8	109	mem	con	mod	mod	low	tg	ms	wh/0510.bmp
606.24	0.72	833	5	5	56	per	lib	low	mod	low	tg	ms	wh/0934.bmp
606.96	0.72	834	6	6	23	per	lib	mod	mod	mod	tg	ms	wh/0684.bmp
607.68	0.72	835	6	8	125	per	con	mod	mod	mod	tg	ms	wh/0447.bmp
608.40	0.72	836	6	8	90	mem	lib	mod	mod	low	nt	ht	nh/0077_nh.bmp
609.12	0.72	837	6	6	116	mem	lib	mod	mod	mod	tg	ms	wh/0099.bmp
609.84	0.72	838	4	5	34	per	con	mod	mod	mod	tg	ms	wh/0396.bmp
610.56	0.72	839	6	8	80	per	con	low	mod	low	nt	cr	nh/0489_nh.bmp
611.28	0.72	840	5	7	103	per	lib	mod	mod	mod	tg	ms	wh/0748.bmp
612.00	0.72	841	6	6	111	mem	con	mod	mod	mod	tg	ms	wh/0874.bmp
612.72	0.72	842	1	6	88	mem	con	low	low	low	nt	ht	nh/0823_nh.bmp
613.44	0.72	843	4	6	105	mem	con	mod	mod	mod	tg	ht	wh/0199.bmp
614.16	0.72	844	1	5	108	mem	lib	low	low	mod	nt	ht	nh/0699_nh.bmp
614.88	0.72	845	6	7	13	mem	lib	mod	mod	mod	nt	ms	nh/0772_nh.bmp
615.60	0.72	846	5	8	119	per	con	mod	mod	mod	nt	cr	nh/0462_nh.bmp
616.32	0.72	847	6	8	84	mem	lib	mod	mod	low	nt	ms	nh/0818_nh.bmp
617.04	0.72	848	1	5	11	per	lib	mod	low	mod	tg	ms	wh/0044.bmp
617.76	0.72	849	6	7	103	per	lib	mod	mod	mod	tg	ms	wh/0748.bmp
618.48	0.72	850	1	8	52	mem	lib	low	low	low	nt	ht	nh/0197_nh.bmp
619.20	0.72	851	6	8	114	per	con	mod	mod	mod	tg	ht	wh/0548.bmp
619.92	0.72	852	6	7	9	mem	lib	mod	mod	mod	tg	ms	wh/0371.bmp
620.64	0.72	853	5	7	39	mem	con	mod	mod	mod	nt	ms	nh/0650_nh.bmp
621.36	0.72	854	6	8	117	per	con	mod	mod	mod	tg	ms	wh/0563.bmp
622.08	0.72	855	1	6	50	per	con	mod	low	mod	nt	cr	nh/0281_nh.bmp
622.80	0.72	856	5	6	105	mem	con	mod	mod	mod	tg	ht	wh/0199.bmp
623.52	0.72	857	6	5	53	per	lib	low	mod	low	tg	ms	wh/1023.bmp
624.24	0.72	858	6	7	24	per	lib	low	mod	low	tg	ms	wh/0417.bmp
624.96	0.72	859	5	5	68	mem	lib	mod	mod	low	tg	ht	wh/0035.bmp
625.68	0.72	860	6	5	95	mem	con	mod	mod	low	tg	ht	wh/0404.bmp
626.40	0.72	861	5	5	79	mem	lib	mod	mod	low	nt	ht	nh/0646_nh.bmp
627.12	0.72	862	6	6	38	per	con	low	mod	low	tg	ht	wh/0125.bmp
627.84	0.72	863	6	7	39	mem	con	mod	mod	mod	nt	ms	nh/0650_nh.bmp
628.56	0.72	864	1	8	61	mem	lib	low	low	low	nt	ms	nh/0053_nh.bmp
629.28	0.72	865	1	6	60	per	con	mod	low	mod	tg	ms	wh/0846.bmp
630.00	0.72	866	5	5	34	per	con	mod	mod	mod	tg	ms	wh/0396.bmp
630.72	0.72	867	1	8	12	mem	con	low	low	mod	tg	ms	wh/0531.bmp
631.44	0.72	868	6	6	120	mem	lib	mod	mod	mod	nt	ht	nh/0594_nh.bmp
632.16	0.72	869	6	8	71	per	con	low	mod	low	tg	ms	wh/0503.bmp
632.88	0.72	870	4	8	104	mem	con	mod	mod	low	tg	ms	wh/0345.bmp
633.60	0.72	871	6	7	23	per	lib	low	mod	low	tg	ms	wh/0153.bmp
634.32	0.72	872	6	6	25	per	lib	mod	mod	mod	nt	fa	nh/0591_nh.bmp
635.04	0.72	873	6	6	124	mem	lib	mod	mod	mod	tg	ms	wh/0196.bmp
635.76	0.72	874	1	7	113	mem	lib	low	low	mod	tg	ms	wh/0461.bmp
636.48	0.72	875	5	6	20	per	lib	mod	mod	mod	tg	ht	wh/0442.bmp
637.20	0.72	876	5	8	104	mem	con	mod	mod	low	tg	ms	wh/0345.bmp
637.92	0.72	877	6	8	100	mem	con	mod	mod	low	tg	ht	wh/0338.bmp
638.64	0.72	878	6	8	104	mem	con	mod	mod	low	tg	ms	wh/0345.bmp
639.36	0.72	879	6	5	56	per	lib	low	mod	low	tg	ms	wh/0934.bmp
640.08	0.72	880	6	7	26	per	lib	low	mod	low	tg	ms	wh/0613.bmp
640.80	0.72	881	1	7	80	mem	con	low	low	low	tg	ms	wh/0055.bmp
641.52	0.72	882	6	5	86	mem	con	mod	mod	low	nt	ht	nh/0364_nh.bmp
642.24	0.72	883	6	6	20	per	lib	mod	mod	mod	tg	ht	wh/0442.bmp
642.96	0.72	884	6	5	79	mem	lib	mod	mod	low	nt	ht	nh/0646_nh.bmp
643.68	0.72	885	4	8	96	mem	lib	mod	mod	low	tg	ht	wh/0361.bmp
644.40	0.72	886	6	5	94	mem	con	mod	mod	low	nt	ht	nh/0256_nh.bmp
645.12	0.72	887	6	8	122	per	con	mod	mod	mod	nt	cr	nh/0947_nh.bmp
645.84	0.72	888	6	6	45	per	con	low	mod	low	tg	ms	wh/0465.bmp
646.56	0.72	889	6	5	62	per	lib	low	mod	low	tg	ht	wh/0123.bmp
647.28	0.72	890	6	6	105	mem	con	mod	mod	mod	tg	ht	wh/0199.bmp
648.00	0.72	891	5	8	96	mem	lib	mod	mod	low	tg	ht	wh/0361.bmp
648.72	0.72	892	6	8	119	per	con	mod	mod	mod	nt	cr	nh/0462_nh.bmp
649.44	0.72	893	6	5	68	mem	lib	mod	mod	low	tg	ht	wh/0035.bmp
650.16	0.72	894	6	5	34	per	con	mod	mod	mod	tg	ms	wh/0396.bmp
650.88	0.72	895	6	8	96	mem	lib	mod	mod	low	tg	ht	wh/0361.bmp
651.60	0.72	896	6	8	82	mem	lib	mod	mod	low	tg	ms	wh/0690.bmp
