onset	duration	trial	pres	ts_blk	ts_trl	task	crit	disc	mem_disc	per_disc	per_type	accuracy	stim_file
7.20	0.72	1	1	7	43	per	con	low	mod	low	tg	ms	wh/0489.bmp
7.92	0.72	2	1	8	112	per	con	low	low	low	nt	cr	nh/0370_nh.bmp
8.64	0.72	3	1	5	26	per	con	mod	low	mod	nt	cr	nh/0038_nh.bmp
9.36	0.72	4	1	7	13	mem	con	low	low	low	nt	ms	nh/0261_nh.bmp
10.08	0.72	5	1	8	23	mem	lib	mod	mod	low	tg	ht	wh/0036.bmp
10.80	0.72	6	1	6	63	per	con	mod	mod	mod	nt	cr	nh/0396_nh.bmp
11.52	0.72	7	1	8	64	per	lib	mod	mod	mod	nt	cr	nh/0946_nh.bmp
12.24	0.72	8	1	6	93	per	lib	mod	mod	mod	nt	n/a	nh/0684_nh.bmp
12.96	0.72	9	1	7	42	per	con	low	mod	low	nt	cr	nh/0577_nh.bmp
13.68	0.72	10	1	8	89	mem	lib	low	low	mod	tg	ht	wh/0781.bmp
14.40	0.72	11	1	8	123	mem	con	mod	mod	low	nt	ht	nh/0510_nh.bmp
15.12	0.72	12	1	5	41	per	con	low	mod	low	tg	ms	wh/0075.bmp
15.84	0.72	13	1	6	30	mem	lib	mod	mod	mod	tg	ht	wh/0680.bmp
16.56	0.72	14	1	7	113	mem	con	mod	mod	mod	tg	ht	wh/0810.bmp
17.28	0.72	15	2	7	42	per	con	low	mod	low	nt	cr	nh/0577_nh.bmp
18.00	0.72	16	1	8	42	per	con	mod	mod	mod	tg	ht	wh/0973.bmp
18.72	0.72	17	1	6	56	per	con	mod	mod	mod	nt	cr	nh/0588_nh.bmp
19.44	0.72	18	1	6	81	per	lib	mod	mod	mod	nt	fa	nh/0442_nh.bmp
20.16	0.72	19	1	8	63	per	lib	mod	mod	mod	nt	fa	nh/0748_nh.bmp
20.88	0.72	20	1	8	27	mem	lib	mod	mod	low	tg	ht	wh/0232.bmp
21.60	0.72	21	1	7	86	per	lib	mod	low	mod	tg	ht	wh/0419.bmp
22.32	0.72	22	1	5	34	per	con	low	mod	low	nt	cr	nh/0383_nh.bmp
23.04	0.72	23	2	6	63	per	con	mod	mod	mod	nt	cr	nh/0396_nh.bmp
23.76	0.72	24	1	8	88	mem	lib	low	low	mod	tg	ms	wh/0838.bmp
24.48	0.72	25	1	5	67	per	lib	low	mod	low	tg	ms	wh/0082.bmp
25.20	0.72	26	1	5	37	per	con	low	mod	low	nt	cr	nh/0125_nh.bmp
25.92	0.72	27	1	6	85	per	lib	mod	mod	mod	nt	cr	nh/0380_nh.bmp
26.64	0.72	28	1	8	31	mem	lib	mod	mod	low	nt	ht	nh/0443_nh.bmp
27.36	0.72	29	1	5	100	mem	lib	mod	mod	low	tg	ht	wh/0940.bmp
28.08	0.72	30	1	6	19	mem	lib	mod	mod	mod	nt	ht	nh/0446_nh.bmp
28.80	0.72	31	1	6	17	mem	lib	mod	mod	mod	nt	ht	nh/0714_nh.bmp
29.52	0.72	32	1	7	27	mem	lib	mod	mod	mod	nt	ht	nh/0803_nh.bmp
30.24	0.72	33	1	8	107	per	con	low	low	low	nt	cr	nh/0701_nh.bmp
30.96	0.72	34	1	7	80	per	lib	low	mod	low	nt	fa	nh/0802_nh.bmp
31.68	0.72	35	1	6	108	mem	con	mod	mod	mod	nt	n/a	nh/0199_nh.bmp
32.40	0.72	36	1	6	53	per	con	mod	mod	mod	nt	cr	nh/0497_nh.bmp
33.12	0.72	37	1	6	54	per	con	mod	mod	mod	tg	ms	wh/0697.bmp
33.84	0.72	38	1	5	65	per	lib	low	mod	low	tg	ht	wh/0964.bmp
34.56	0.72	39	1	8	122	mem	con	mod	mod	low	nt	ms	nh/0338_nh.bmp
35.28	0.72	40	1	8	34	per	con	mod	mod	mod	tg	ht	wh/0397.bmp
36.00	0.72	41	1	7	39	per	con	low	mod	low	nt	n/a	nh/0508_nh.bmp
36.72	0.72	42	1	6	51	per	con	mod	mod	mod	tg	ms	wh/0095.bmp
37.44	0.72	43	1	7	37	per	con	low	mod	low	tg	ms	wh/0893.bmp
38.16	0.72	44	1	8	38	per	con	mod	mod	mod	nt	cr	nh/0784_nh.bmp
38.88	0.72	45	2	8	123	mem	con	mod	mod	low	nt	ht	nh/0510_nh.bmp
39.60	0.72	46	1	5	101	mem	lib	mod	mod	low	nt	ht	nh/0660_nh.bmp
40.32	0.72	47	1	6	84	per	lib	mod	mod	mod	tg	ht	wh/0591.bmp
41.04	0.72	48	1	7	18	mem	lib	mod	mod	mod	tg	ht	wh/0540.bmp
41.76	0.72	49	1	5	69	per	lib	low	mod	low	tg	ht	wh/0635.bmp
42.48	0.72	50	2	8	63	per	lib	mod	mod	mod	nt	fa	nh/0748_nh.bmp
43.20	0.72	51	1	8	44	per	con	mod	mod	mod	nt	cr	nh/0563_nh.bmp
43.92	0.72	52	1	8	45	per	con	mod	mod	mod	tg	ms	wh/0947.bmp
44.64	0.72	53	2	6	56	per	con	mod	mod	mod	nt	cr	nh/0588_nh.bmp
45.36	0.72	54	1	5	47	per	con	low	mod	low	nt	cr	nh/0465_nh.bmp
46.08	0.72	55	1	7	14	mem	con	low	low	low	nt	ms	nh/0768_nh.bmp
46.80	0.72	56	1	6	20	mem	lib	mod	mod	mod	nt	ht	nh/0196_nh.bmp
47.52	0.72	57	2	8	42	per	con	mod	mod	mod	tg	ht	wh/0973.bmp
48.24	0.72	58	1	7	75	per	lib	low	mod	low	nt	fa	nh/0417_nh.bmp
48.96	0.72	59	1	7	1	mem	con	low	low	low	tg	ms	wh/0458.bmp
49.68	0.72	60	2	7	37	per	con	low	mod	low	tg	ms	wh/0893.bmp
50.40	0.72	61	1	5	58	mem	con	mod	mod	low	nt	ht	nh/0730_nh.bmp
51.12	0.72	62	1	8	124	mem	con	mod	mod	low	tg	ms	wh/0382.bmp
51.84	0.72	63	1	7	123	mem	con	mod	mod	mod	tg	ht	wh/0182.bmp
52.56	0.72	64	1	5	59	mem	con	mod	mod	low	tg	ht	wh/0256.bmp
53.28	0.72	65	1	5	73	per	lib	low	mod	low	nt	fa	nh/0123_nh.bmp
54.00	0.72	66	1	6	120	per	lib	low	low	low	tg	ht	wh/0655.bmp
54.72	0.72	67	1	5	114	per	lib	mod	low	mod	tg	ht	wh/0426.bmp
55.44	0.72	68	1	7	24	mem	lib	mod	mod	mod	nt	ht	nh/0928_nh.bmp
56.16	0.72	69	1	8	32	mem	lib	mod	mod	low	nt	ht	nh/0361_nh.bmp
56.88	0.72	70	1	7	38	per	con	low	mod	low	nt	cr	nh/0568_nh.bmp
57.60	0.72	71	2	5	100	mem	lib	mod	mod	low	tg	ht	wh/0940.bmp
58.32	0.72	72	1	5	102	mem	lib	mod	mod	low	tg	ht	wh/0080.bmp
59.04	0.72	73	1	6	66	per	con	low	low	low	tg	ms	wh/0113.bmp
59.76	0.72	74	1	6	50	per	con	mod	mod	mod	tg	ms	wh/0954.bmp
60.48	0.72	75	1	7	90	per	lib	mod	low	mod	nt	fa	nh/0216_nh.bmp
61.20	0.72	76	1	7	77	per	lib	low	mod	low	tg	ht	wh/0451.bmp
61.92	0.72	77	3	8	42	per	con	mod	mod	mod	tg	ht	wh/0973.bmp
62.64	0.72	78	1	7	114	mem	con	mod	mod	mod	nt	ht	nh/0209_nh.bmp
63.36	0.72	79	1	5	74	per	lib	low	mod	low	nt	fa	nh/1023_nh.bmp
64.08	0.72	80	1	8	61	per	lib	mod	mod	mod	tg	ms	wh/0593.bmp
64.80	0.72	81	1	8	126	mem	con	mod	mod	low	tg	ht	wh/0284.bmp
65.52	0.72	82	1	8	24	mem	lib	mod	mod	low	tg	ht	wh/0818.bmp
66.24	0.72	83	2	6	85	per	lib	mod	mod	mod	nt	cr	nh/0380_nh.bmp
66.96	0.72	84	2	5	74	per	lib	low	mod	low	nt	fa	nh/1023_nh.bmp
67.68	0.72	85	2	6	84	per	lib	mod	mod	mod	tg	ht	wh/0591.bmp
68.40	0.72	86	2	5	102	mem	lib	mod	mod	low	tg	ht	wh/0080.bmp
69.12	0.72	87	2	8	32	mem	lib	mod	mod	low	nt	ht	nh/0361_nh.bmp
69.84	0.72	88	2	8	126	mem	con	mod	mod	low	tg	ht	wh/0284.bmp
70.56	0.72	89	1	6	36	mem	lib	low	low	mod	tg	ht	wh/0870.bmp
71.28	0.72	90	2	5	67	per	lib	low	mod	low	tg	ms	wh/0082.bmp
72.00	0.72	91	1	6	64	per	con	mod	mod	mod	tg	ht	wh/0876.bmp
72.72	0.72	92	2	7	38	per	con	low	mod	low	nt	cr	nh/0568_nh.bmp
73.44	0.72	93	1	7	100	mem	lib	low	low	low	tg	ht	wh/0711.bmp
74.16	0.72	94	1	8	76	per	lib	low	low	low	nt	fa	nh/0488_nh.bmp
74.88	0.72	95	1	7	69	per	lib	low	mod	low	tg	ms	wh/0336.bmp
75.60	0.72	96	1	7	17	mem	lib	mod	mod	mod	tg	ht	wh/0772.bmp
76.32	0.72	97	2	7	123	mem	con	mod	mod	mod	tg	ht	wh/0182.bmp
77.04	0.72	98	1	7	9	mem	con	low	low	low	tg	ms	wh/0845.bmp
77.76	0.72	99	1	6	79	per	con	low	low	low	tg	ms	wh/0571.bmp
78.48	0.72	100	2	5	34	per	con	low	mod	low	nt	cr	nh/0383_nh.bmp
79.20	0.72	101	1	7	72	per	lib	low	mod	low	tg	ht	wh/0150.bmp
79.92	0.72	102	1	6	90	per	lib	mod	mod	mod	tg	ht	wh/0398.bmp
80.64	0.72	103	1	6	117	per	lib	low	low	low	nt	fa	nh/0223_nh.bmp
81.36	0.72	104	1	5	97	mem	lib	mod	mod	low	tg	ht	wh/0646.bmp
82.08	0.72	105	1	8	20	mem	lib	mod	mod	low	nt	ht	nh/0760_nh.bmp
82.80	0.72	106	1	5	96	mem	con	low	low	low	tg	ms	wh/0998.bmp
83.52	0.72	107	1	7	40	per	con	low	mod	low	tg	ms	wh/0619.bmp
84.24	0.72	108	1	7	21	mem	lib	mod	mod	mod	nt	ht	nh/0909_nh.bmp
84.96	0.72	109	1	7	115	mem	con	mod	mod	mod	nt	ms	nh/0805_nh.bmp
85.68	0.72	110	2	6	64	per	con	mod	mod	mod	tg	ht	wh/0876.bmp
86.40	0.72	111	3	5	100	mem	lib	mod	mod	low	tg	ht	wh/0940.bmp
87.12	0.72	112	1	7	127	mem	con	mod	mod	mod	tg	ht	wh/0904.bmp
87.84	0.72	113	3	5	34	per	con	low	mod	low	nt	cr	nh/0383_nh.bmp
88.56	0.72	114	1	6	103	mem	con	mod	mod	mod	nt	ht	nh/0222_nh.bmp
89.28	0.72	115	2	7	27	mem	lib	mod	mod	mod	nt	ht	nh/0803_nh.bmp
90.00	0.72	116	2	5	47	per	con	low	mod	low	nt	cr	nh/0465_nh.bmp
90.72	0.72	117	2	7	75	per	lib	low	mod	low	nt	fa	nh/0417_nh.bmp
91.44	0.72	118	2	8	45	per	con	mod	mod	mod	tg	ms	wh/0947.bmp
92.16	0.72	119	2	8	64	per	lib	mod	mod	mod	nt	cr	nh/0946_nh.bmp
92.88	0.72	120	3	7	75	per	lib	low	mod	low	nt	fa	nh/0417_nh.bmp
93.60	0.72	121	1	7	45	per	con	low	mod	low	tg	ms	wh/0029.bmp
94.32	0.72	122	2	6	30	mem	lib	mod	mod	mod	tg	ht	wh/0680.bmp
95.04	0.72	123	1	5	62	mem	con	mod	mod	low	nt	ht	nh/0744_nh.bmp
95.76	0.72	124	1	5	79	per	lib	low	mod	low	nt	fa	nh/0493_nh.bmp
96.48	0.72	125	1	8	119	mem	con	mod	mod	low	nt	ms	nh/0134_nh.bmp
97.20	0.72	126	2	7	39	per	con	low	mod	low	nt	n/a	nh/0508_nh.bmp
97.92	0.72	127	1	8	28	mem	lib	mod	mod	low	tg	ht	wh/0077.bmp
98.64	0.72	128	1	8	128	mem	con	mod	mod	low	tg	ht	wh/0299.bmp
99.36	0.72	129	2	8	34	per	con	mod	mod	mod	tg	ht	wh/0397.bmp
100.08	0.72	130	2	5	37	per	con	low	mod	low	nt	cr	nh/0125_nh.bmp
100.80	0.72	131	1	7	36	per	con	low	mod	low	nt	n/a	nh/0503_nh.bmp
101.52	0.72	132	2	5	79	per	lib	low	mod	low	nt	fa	nh/0493_nh.bmp
102.24	0.72	133	1	8	40	per	con	mod	mod	mod	nt	cr	nh/0548_nh.bmp
102.96	0.72	134	3	6	30	mem	lib	mod	mod	mod	tg	ht	wh/0680.bmp
103.68	0.72	135	1	8	48	per	con	mod	mod	mod	tg	ms	wh/0462.bmp
104.40	0.72	136	4	6	30	mem	lib	mod	mod	mod	tg	ht	wh/0680.bmp
105.12	0.72	137	1	7	79	per	lib	low	mod	low	nt	fa	nh/0613_nh.bmp
105.84	0.72	138	2	7	43	per	con	low	mod	low	tg	ms	wh/0489.bmp
106.56	0.72	139	3	8	45	per	con	mod	mod	mod	tg	ms	wh/0947.bmp
107.28	0.72	140	2	6	54	per	con	mod	mod	mod	tg	ms	wh/0697.bmp
108.00	0.72	141	2	6	17	mem	lib	mod	mod	mod	nt	ht	nh/0714_nh.bmp
108.72	0.72	142	2	8	28	mem	lib	mod	mod	low	tg	ht	wh/0077.bmp
109.44	0.72	143	1	6	5	mem	con	low	low	mod	nt	ht	nh/0520_nh.bmp
110.16	0.72	144	2	5	65	per	lib	low	mod	low	tg	ht	wh/0964.bmp
110.88	0.72	145	3	6	63	per	con	mod	mod	mod	nt	cr	nh/0396_nh.bmp
111.60	0.72	146	3	7	43	per	con	low	mod	low	tg	ms	wh/0489.bmp
112.32	0.72	147	1	5	49	mem	con	mod	mod	low	nt	ms	nh/0404_nh.bmp
113.04	0.72	148	4	5	34	per	con	low	mod	low	nt	cr	nh/0383_nh.bmp
113.76	0.72	149	3	6	84	per	lib	mod	mod	mod	tg	ht	wh/0591.bmp
114.48	0.72	150	1	8	10	mem	con	low	low	mod	nt	n/a	nh/0936_nh.bmp
115.20	0.72	151	2	8	40	per	con	mod	mod	mod	nt	cr	nh/0548_nh.bmp
115.92	0.72	152	1	5	104	mem	lib	mod	mod	low	nt	ht	nh/0035_nh.bmp
116.64	0.72	153	1	5	54	mem	con	mod	mod	low	tg	ms	wh/0758.bmp
117.36	0.72	154	3	6	64	per	con	mod	mod	mod	tg	ht	wh/0876.bmp
118.08	0.72	155	2	5	41	per	con	low	mod	low	tg	ms	wh/0075.bmp
118.80	0.72	156	1	7	54	per	con	mod	low	mod	nt	cr	nh/0340_nh.bmp
119.52	0.72	157	1	7	126	mem	con	mod	mod	mod	tg	ms	wh/0650.bmp
120.24	0.72	158	1	7	78	per	lib	low	mod	low	tg	ms	wh/0079.bmp
120.96	0.72	159	1	5	115	per	lib	mod	low	mod	nt	cr	nh/0729_nh.bmp
121.68	0.72	160	2	6	51	per	con	mod	mod	mod	tg	ms	wh/0095.bmp
122.40	0.72	161	4	8	42	per	con	mod	mod	mod	tg	ht	wh/0973.bmp
123.12	0.72	162	1	5	57	mem	con	mod	mod	low	tg	ms	wh/0364.bmp
123.84	0.72	163	2	7	115	mem	con	mod	mod	mod	nt	ms	nh/0805_nh.bmp
124.56	0.72	164	2	7	40	per	con	low	mod	low	tg	ms	wh/0619.bmp
125.28	0.72	165	2	6	90	per	lib	mod	mod	mod	tg	ht	wh/0398.bmp
126.00	0.72	166	1	8	2	mem	con	low	low	mod	tg	ms	wh/0860.bmp
126.72	0.72	167	2	8	48	per	con	mod	mod	mod	tg	ms	wh/0462.bmp
127.44	0.72	168	3	5	47	per	con	low	mod	low	nt	cr	nh/0465_nh.bmp
128.16	0.72	169	2	5	58	mem	con	mod	mod	low	nt	ht	nh/0730_nh.bmp
128.88	0.72	170	2	6	20	mem	lib	mod	mod	mod	nt	ht	nh/0196_nh.bmp
129.60	0.72	171	2	5	69	per	lib	low	mod	low	tg	ht	wh/0635.bmp
130.32	0.72	172	3	6	17	mem	lib	mod	mod	mod	nt	ht	nh/0714_nh.bmp
131.04	0.72	173	1	8	75	per	lib	low	low	low	tg	ht	wh/1007.bmp
131.76	0.72	174	4	6	17	mem	lib	mod	mod	mod	nt	ht	nh/0714_nh.bmp
132.48	0.72	175	3	6	51	per	con	mod	mod	mod	tg	ms	wh/0095.bmp
133.20	0.72	176	3	6	54	per	con	mod	mod	mod	tg	ms	wh/0697.bmp
133.92	0.72	177	2	7	36	per	con	low	mod	low	nt	n/a	nh/0503_nh.bmp
134.64	0.72	178	1	6	115	per	lib	low	low	low	tg	ht	wh/0158.bmp
135.36	0.72	179	3	7	42	per	con	low	mod	low	nt	cr	nh/0577_nh.bmp
136.08	0.72	180	2	8	38	per	con	mod	mod	mod	nt	cr	nh/0784_nh.bmp
136.80	0.72	181	1	6	37	mem	lib	low	low	mod	tg	ms	wh/0025.bmp
137.52	0.72	182	3	8	38	per	con	mod	mod	mod	nt	cr	nh/0784_nh.bmp
138.24	0.72	183	1	6	86	per	lib	mod	mod	mod	tg	ht	wh/0902.bmp
138.96	0.72	184	3	8	48	per	con	mod	mod	mod	tg	ms	wh/0462.bmp
139.68	0.72	185	3	5	74	per	lib	low	mod	low	nt	fa	nh/1023_nh.bmp
140.40	0.72	186	1	7	53	per	con	mod	low	mod	nt	cr	nh/0782_nh.bmp
141.12	0.72	187	3	8	64	per	lib	mod	mod	mod	nt	cr	nh/0946_nh.bmp
141.84	0.72	188	1	5	111	mem	lib	mod	mod	low	nt	ht	nh/0194_nh.bmp
142.56	0.72	189	1	8	72	per	lib	low	low	low	nt	fa	nh/0148_nh.bmp
143.28	0.72	190	1	5	46	per	con	low	mod	low	tg	ht	wh/0074.bmp
144.00	0.72	191	1	7	61	per	con	mod	low	mod	tg	ht	wh/0669.bmp
144.72	0.72	192	3	7	40	per	con	low	mod	low	tg	ms	wh/0619.bmp
145.44	0.72	193	3	7	36	per	con	low	mod	low	nt	n/a	nh/0503_nh.bmp
146.16	0.72	194	4	5	100	mem	lib	mod	mod	low	tg	ht	wh/0940.bmp
146.88	0.72	195	2	7	126	mem	con	mod	mod	mod	tg	ms	wh/0650.bmp
147.60	0.72	196	4	6	51	per	con	mod	mod	mod	tg	ms	wh/0095.bmp
148.32	0.72	197	4	7	43	per	con	low	mod	low	tg	ms	wh/0489.bmp
149.04	0.72	198	1	6	3	mem	con	low	low	mod	tg	ms	wh/0890.bmp
149.76	0.72	199	1	5	55	mem	con	mod	mod	low	tg	ms	wh/0351.bmp
150.48	0.72	200	1	6	77	per	con	low	low	low	nt	cr	nh/0452_nh.bmp
151.20	0.72	201	4	7	42	per	con	low	mod	low	nt	cr	nh/0577_nh.bmp
151.92	0.72	202	2	5	104	mem	lib	mod	mod	low	nt	ht	nh/0035_nh.bmp
152.64	0.72	203	2	7	72	per	lib	low	mod	low	tg	ht	wh/0150.bmp
153.36	0.72	204	1	8	113	mem	con	mod	mod	low	nt	ms	nh/0345_nh.bmp
154.08	0.72	205	2	6	19	mem	lib	mod	mod	mod	nt	ht	nh/0446_nh.bmp
154.80	0.72	206	1	6	112	mem	con	mod	mod	mod	nt	ht	nh/0874_nh.bmp
155.52	0.72	207	1	7	120	mem	con	mod	mod	mod	nt	ms	nh/0428_nh.bmp
156.24	0.72	208	1	5	68	per	lib	low	mod	low	nt	cr	nh/0934_nh.bmp
156.96	0.72	209	1	8	62	per	lib	mod	mod	mod	nt	cr	nh/0957_nh.bmp
157.68	0.72	210	1	7	124	mem	con	mod	mod	mod	nt	ms	nh/0273_nh.bmp
158.40	0.72	211	2	7	77	per	lib	low	mod	low	tg	ht	wh/0451.bmp
159.12	0.72	212	2	7	120	mem	con	mod	mod	mod	nt	ms	nh/0428_nh.bmp
159.84	0.72	213	2	7	124	mem	con	mod	mod	mod	nt	ms	nh/0273_nh.bmp
160.56	0.72	214	2	8	124	mem	con	mod	mod	low	tg	ms	wh/0382.bmp
161.28	0.72	215	2	8	128	mem	con	mod	mod	low	tg	ht	wh/0299.bmp
162.00	0.72	216	2	5	59	mem	con	mod	mod	low	tg	ht	wh/0256.bmp
162.72	0.72	217	1	8	50	per	lib	mod	mod	mod	nt	fa	nh/0962_nh.bmp
163.44	0.72	218	2	5	46	per	con	low	mod	low	tg	ht	wh/0074.bmp
164.16	0.72	219	1	5	40	per	con	low	mod	low	tg	ms	wh/0967.bmp
164.88	0.72	220	2	8	113	mem	con	mod	mod	low	nt	ms	nh/0345_nh.bmp
165.60	0.72	221	1	7	11	mem	con	low	low	low	tg	ht	wh/0513.bmp
166.32	0.72	222	2	5	101	mem	lib	mod	mod	low	nt	ht	nh/0660_nh.bmp
167.04	0.72	223	2	8	23	mem	lib	mod	mod	low	tg	ht	wh/0036.bmp
167.76	0.72	224	1	6	58	per	con	mod	mod	mod	nt	fa	nh/0843_nh.bmp
168.48	0.72	225	1	8	105	per	con	low	low	low	nt	cr	nh/0930_nh.bmp
169.20	0.72	226	2	7	78	per	lib	low	mod	low	tg	ms	wh/0079.bmp
169.92	0.72	227	1	7	68	per	lib	low	mod	low	nt	fa	nh/0153_nh.bmp
170.64	0.72	228	1	7	97	mem	lib	low	low	low	nt	ht	nh/0831_nh.bmp
171.36	0.72	229	2	7	79	per	lib	low	mod	low	nt	fa	nh/0613_nh.bmp
172.08	0.72	230	2	5	62	mem	con	mod	mod	low	nt	ht	nh/0744_nh.bmp
172.80	0.72	231	2	5	49	mem	con	mod	mod	low	nt	ms	nh/0404_nh.bmp
173.52	0.72	232	3	7	79	per	lib	low	mod	low	nt	fa	nh/0613_nh.bmp
174.24	0.72	233	2	6	93	per	lib	mod	mod	mod	nt	n/a	nh/0684_nh.bmp
174.96	0.72	234	3	7	124	mem	con	mod	mod	mod	nt	ms	nh/0273_nh.bmp
175.68	0.72	235	2	7	45	per	con	low	mod	low	tg	ms	wh/0029.bmp
176.40	0.72	236	1	6	97	mem	con	mod	mod	mod	tg	ms	wh/0855.bmp
177.12	0.72	237	3	7	78	per	lib	low	mod	low	tg	ms	wh/0079.bmp
177.84	0.72	238	1	8	127	mem	con	mod	mod	low	tg	ht	wh/0329.bmp
178.56	0.72	239	4	7	75	per	lib	low	mod	low	nt	fa	nh/0417_nh.bmp
179.28	0.72	240	1	5	35	per	con	low	mod	low	nt	cr	nh/0238_nh.bmp
180.00	0.72	241	2	5	54	mem	con	mod	mod	low	tg	ms	wh/0758.bmp
180.72	0.72	242	3	5	49	mem	con	mod	mod	low	nt	ms	nh/0404_nh.bmp
181.44	0.72	243	2	6	97	mem	con	mod	mod	mod	tg	ms	wh/0855.bmp
182.16	0.72	244	3	5	65	per	lib	low	mod	low	tg	ht	wh/0964.bmp
182.88	0.72	245	5	5	34	per	con	low	mod	low	nt	cr	nh/0383_nh.bmp
183.60	0.72	246	1	6	10	mem	con	low	low	mod	nt	ms	nh/0927_nh.bmp
184.32	0.72	247	3	5	37	per	con	low	mod	low	nt	cr	nh/0125_nh.bmp
185.04	0.72	248	2	8	61	per	lib	mod	mod	mod	tg	ms	wh/0593.bmp
185.76	0.72	249	3	8	128	mem	con	mod	mod	low	tg	ht	wh/0299.bmp
186.48	0.72	250	1	7	52	per	con	mod	low	mod	tg	ms	wh/0290.bmp
187.20	0.72	251	2	7	114	mem	con	mod	mod	mod	nt	ht	nh/0209_nh.bmp
187.92	0.72	252	2	7	24	mem	lib	mod	mod	mod	nt	ht	nh/0928_nh.bmp
188.64	0.72	253	1	6	102	mem	con	mod	mod	mod	tg	ms	wh/0187.bmp
189.36	0.72	254	3	6	85	per	lib	mod	mod	mod	nt	cr	nh/0380_nh.bmp
190.08	0.72	255	1	5	77	per	lib	low	mod	low	tg	ht	wh/0608.bmp
190.80	0.72	256	1	6	24	mem	lib	mod	mod	mod	tg	ht	wh/0543.bmp
191.52	0.72	257	2	7	127	mem	con	mod	mod	mod	tg	ht	wh/0904.bmp
192.24	0.72	258	1	8	18	mem	lib	mod	mod	low	nt	ht	nh/0690_nh.bmp
192.96	0.72	259	2	6	112	mem	con	mod	mod	mod	nt	ht	nh/0874_nh.bmp
193.68	0.72	260	1	5	38	per	con	low	mod	low	tg	ms	wh/0190.bmp
194.40	0.72	261	2	8	122	mem	con	mod	mod	low	nt	ms	nh/0338_nh.bmp
195.12	0.72	262	4	5	37	per	con	low	mod	low	nt	cr	nh/0125_nh.bmp
195.84	0.72	263	3	7	37	per	con	low	mod	low	tg	ms	wh/0893.bmp
196.56	0.72	264	2	6	108	mem	con	mod	mod	mod	nt	n/a	nh/0199_nh.bmp
197.28	0.72	265	2	7	69	per	lib	low	mod	low	tg	ms	wh/0336.bmp
198.00	0.72	266	2	6	103	mem	con	mod	mod	mod	nt	ht	nh/0222_nh.bmp
198.72	0.72	267	3	8	113	mem	con	mod	mod	low	nt	ms	nh/0345_nh.bmp
199.44	0.72	268	1	5	105	mem	lib	mod	mod	low	nt	ht	nh/0963_nh.bmp
200.16	0.72	269	2	5	77	per	lib	low	mod	low	tg	ht	wh/0608.bmp
200.88	0.72	270	2	8	119	mem	con	mod	mod	low	nt	ms	nh/0134_nh.bmp
201.60	0.72	271	1	5	10	mem	lib	low	low	low	nt	ht	nh/0173_nh.bmp
202.32	0.72	272	2	6	24	mem	lib	mod	mod	mod	tg	ht	wh/0543.bmp
203.04	0.72	273	3	5	69	per	lib	low	mod	low	tg	ht	wh/0635.bmp
203.76	0.72	274	1	8	15	mem	con	low	low	mod	tg	ht	wh/0581.bmp
204.48	0.72	275	2	7	17	mem	lib	mod	mod	mod	tg	ht	wh/0772.bmp
205.20	0.72	276	1	8	49	per	lib	mod	mod	mod	tg	ht	wh/0339.bmp
205.92	0.72	277	4	5	74	per	lib	low	mod	low	nt	fa	nh/1023_nh.bmp
206.64	0.72	278	1	7	106	mem	lib	low	low	low	nt	ht	nh/0088_nh.bmp
207.36	0.72	279	2	6	81	per	lib	mod	mod	mod	nt	fa	nh/0442_nh.bmp
208.08	0.72	280	1	5	95	mem	con	low	low	low	tg	ms	wh/0507.bmp
208.80	0.72	281	2	5	57	mem	con	mod	mod	low	tg	ms	wh/0364.bmp
209.52	0.72	282	3	6	112	mem	con	mod	mod	mod	nt	ht	nh/0874_nh.bmp
210.24	0.72	283	4	8	45	per	con	mod	mod	mod	tg	ms	wh/0947.bmp
210.96	0.72	284	1	5	7	mem	lib	low	low	low	nt	ms	nh/0731_nh.bmp
211.68	0.72	285	2	5	73	per	lib	low	mod	low	nt	fa	nh/0123_nh.bmp
212.40	0.72	286	3	7	77	per	lib	low	mod	low	tg	ht	wh/0451.bmp
213.12	0.72	287	2	8	44	per	con	mod	mod	mod	nt	cr	nh/0563_nh.bmp
213.84	0.72	288	2	5	40	per	con	low	mod	low	tg	ms	wh/0967.bmp
214.56	0.72	289	1	6	104	mem	con	mod	mod	mod	tg	ms	wh/0319.bmp
215.28	0.72	290	4	8	64	per	lib	mod	mod	mod	nt	cr	nh/0946_nh.bmp
216.00	0.72	291	5	5	74	per	lib	low	mod	low	nt	fa	nh/1023_nh.bmp
216.72	0.72	292	4	8	48	per	con	mod	mod	mod	tg	ms	wh/0462.bmp
217.44	0.72	293	4	7	40	per	con	low	mod	low	tg	ms	wh/0619.bmp
218.16	0.72	294	3	5	58	mem	con	mod	mod	low	nt	ht	nh/0730_nh.bmp
218.88	0.72	295	1	7	83	per	lib	mod	low	mod	tg	ht	wh/0469.bmp
219.60	0.72	296	4	6	54	per	con	mod	mod	mod	tg	ms	wh/0697.bmp
220.32	0.72	297	3	5	59	mem	con	mod	mod	low	tg	ht	wh/0256.bmp
221.04	0.72	298	2	5	38	per	con	low	mod	low	tg	ms	wh/0190.bmp
221.76	0.72	299	5	8	45	per	con	mod	mod	mod	tg	ms	wh/0947.bmp
222.48	0.72	300	2	6	53	per	con	mod	mod	mod	nt	cr	nh/0497_nh.bmp
223.20	0.72	301	2	6	58	per	con	mod	mod	mod	nt	fa	nh/0843_nh.bmp
223.92	0.72	302	1	8	37	per	con	mod	mod	mod	nt	cr	nh/0447_nh.bmp
224.64	0.72	303	3	8	123	mem	con	mod	mod	low	nt	ht	nh/0510_nh.bmp
225.36	0.72	304	1	8	60	per	lib	mod	mod	mod	tg	ht	wh/0558.bmp
226.08	0.72	305	1	7	12	mem	con	low	low	low	nt	ms	nh/0433_nh.bmp
226.80	0.72	306	1	6	78	per	con	low	low	low	tg	ms	wh/0695.bmp
227.52	0.72	307	5	7	40	per	con	low	mod	low	tg	ms	wh/0619.bmp
228.24	0.72	308	2	8	49	per	lib	mod	mod	mod	tg	ht	wh/0339.bmp
228.96	0.72	309	3	5	67	per	lib	low	mod	low	tg	ms	wh/0082.bmp
229.68	0.72	310	1	6	88	per	lib	mod	mod	mod	nt	cr	nh/0795_nh.bmp
230.40	0.72	311	4	5	59	mem	con	mod	mod	low	tg	ht	wh/0256.bmp
231.12	0.72	312	1	6	27	mem	lib	mod	mod	mod	tg	ht	wh/0542.bmp
231.84	0.72	313	2	5	35	per	con	low	mod	low	nt	cr	nh/0238_nh.bmp
232.56	0.72	314	3	6	58	per	con	mod	mod	mod	nt	fa	nh/0843_nh.bmp
233.28	0.72	315	3	7	114	mem	con	mod	mod	mod	nt	ht	nh/0209_nh.bmp
234.00	0.72	316	3	7	45	per	con	low	mod	low	tg	ms	wh/0029.bmp
234.72	0.72	317	1	6	18	mem	lib	mod	mod	mod	nt	ht	nh/0099_nh.bmp
235.44	0.72	318	2	7	68	per	lib	low	mod	low	nt	fa	nh/0153_nh.bmp
236.16	0.72	319	3	6	53	per	con	mod	mod	mod	nt	cr	nh/0497_nh.bmp
236.88	0.72	320	1	8	11	mem	con	low	low	mod	tg	ms	wh/0584.bmp
237.60	0.72	321	3	8	34	per	con	mod	mod	mod	tg	ht	wh/0397.bmp
238.32	0.72	322	3	5	77	per	lib	low	mod	low	tg	ht	wh/0608.bmp
239.04	0.72	323	3	6	20	mem	lib	mod	mod	mod	nt	ht	nh/0196_nh.bmp
239.76	0.72	324	5	7	75	per	lib	low	mod	low	nt	fa	nh/0417_nh.bmp
240.48	0.72	325	2	8	20	mem	lib	mod	mod	low	nt	ht	nh/0760_nh.bmp
241.20	0.72	326	1	8	54	per	lib	mod	mod	mod	tg	ht	wh/0350.bmp
241.92	0.72	327	2	5	105	mem	lib	mod	mod	low	nt	ht	nh/0963_nh.bmp
242.64	0.72	328	4	6	20	mem	lib	mod	mod	mod	nt	ht	nh/0196_nh.bmp
243.36	0.72	329	2	8	62	per	lib	mod	mod	mod	nt	cr	nh/0957_nh.bmp
244.08	0.72	330	2	5	68	per	lib	low	mod	low	nt	cr	nh/0934_nh.bmp
244.80	0.72	331	2	6	18	mem	lib	mod	mod	mod	nt	ht	nh/0099_nh.bmp
245.52	0.72	332	3	5	104	mem	lib	mod	mod	low	nt	ht	nh/0035_nh.bmp
246.24	0.72	333	3	5	102	mem	lib	mod	mod	low	tg	ht	wh/0080.bmp
246.96	0.72	334	1	6	8	mem	con	low	low	mod	tg	ms	wh/0129.bmp
247.68	0.72	335	1	6	118	per	lib	low	low	low	nt	fa	nh/0237_nh.bmp
248.40	0.72	336	3	7	115	mem	con	mod	mod	mod	nt	ms	nh/0805_nh.bmp
249.12	0.72	337	1	6	95	per	lib	mod	mod	mod	tg	ht	wh/0328.bmp
249.84	0.72	338	1	8	9	mem	con	low	low	mod	tg	ms	wh/0530.bmp
250.56	0.72	339	1	8	106	per	con	low	low	low	tg	ms	wh/0789.bmp
251.28	0.72	340	4	7	115	mem	con	mod	mod	mod	nt	ms	nh/0805_nh.bmp
252.00	0.72	341	3	8	40	per	con	mod	mod	mod	nt	cr	nh/0548_nh.bmp
252.72	0.72	342	4	6	85	per	lib	mod	mod	mod	nt	cr	nh/0380_nh.bmp
253.44	0.72	343	4	6	112	mem	con	mod	mod	mod	nt	ht	nh/0874_nh.bmp
254.16	0.72	344	2	6	95	per	lib	mod	mod	mod	tg	ht	wh/0328.bmp
254.88	0.72	345	4	5	102	mem	lib	mod	mod	low	tg	ht	wh/0080.bmp
255.60	0.72	346	2	7	113	mem	con	mod	mod	mod	tg	ht	wh/0810.bmp
256.32	0.72	347	4	6	64	per	con	mod	mod	mod	tg	ht	wh/0876.bmp
257.04	0.72	348	3	5	68	per	lib	low	mod	low	nt	cr	nh/0934_nh.bmp
257.76	0.72	349	3	7	120	mem	con	mod	mod	mod	nt	ms	nh/0428_nh.bmp
258.48	0.72	350	1	6	107	mem	con	mod	mod	mod	nt	ms	nh/0941_nh.bmp
259.20	0.72	351	4	7	36	per	con	low	mod	low	nt	n/a	nh/0503_nh.bmp
259.92	0.72	352	2	8	27	mem	lib	mod	mod	low	tg	ht	wh/0232.bmp
260.64	0.72	353	3	8	63	per	lib	mod	mod	mod	nt	fa	nh/0748_nh.bmp
261.36	0.72	354	3	6	56	per	con	mod	mod	mod	nt	cr	nh/0588_nh.bmp
262.08	0.72	355	5	6	85	per	lib	mod	mod	mod	nt	cr	nh/0380_nh.bmp
262.80	0.72	356	3	6	19	mem	lib	mod	mod	mod	nt	ht	nh/0446_nh.bmp
263.52	0.72	357	3	8	32	mem	lib	mod	mod	low	nt	ht	nh/0361_nh.bmp
264.24	0.72	358	1	7	99	mem	lib	low	low	low	nt	ms	nh/0292_nh.bmp
264.96	0.72	359	3	8	62	per	lib	mod	mod	mod	nt	cr	nh/0957_nh.bmp
265.68	0.72	360	4	7	124	mem	con	mod	mod	mod	nt	ms	nh/0273_nh.bmp
266.40	0.72	361	3	7	17	mem	lib	mod	mod	mod	tg	ht	wh/0772.bmp
267.12	0.72	362	1	7	58	per	con	mod	low	mod	nt	cr	nh/0708_nh.bmp
267.84	0.72	363	1	6	106	mem	con	mod	mod	mod	tg	ht	wh/0094.bmp
268.56	0.72	364	6	8	45	per	con	mod	mod	mod	tg	ms	wh/0947.bmp
269.28	0.72	365	2	6	107	mem	con	mod	mod	mod	nt	ms	nh/0941_nh.bmp
270.00	0.72	366	1	6	42	mem	lib	low	low	mod	tg	ht	wh/0220.bmp
270.72	0.72	367	3	8	44	per	con	mod	mod	mod	nt	cr	nh/0563_nh.bmp
271.44	0.72	368	1	7	51	per	con	mod	low	mod	nt	cr	nh/0316_nh.bmp
272.16	0.72	369	3	5	62	mem	con	mod	mod	low	nt	ht	nh/0744_nh.bmp
272.88	0.72	370	3	5	57	mem	con	mod	mod	low	tg	ms	wh/0364.bmp
273.60	0.72	371	3	7	72	per	lib	low	mod	low	tg	ht	wh/0150.bmp
274.32	0.72	372	1	8	77	per	lib	low	low	low	tg	ht	wh/0999.bmp
275.04	0.72	373	2	8	31	mem	lib	mod	mod	low	nt	ht	nh/0443_nh.bmp
275.76	0.72	374	2	5	111	mem	lib	mod	mod	low	nt	ht	nh/0194_nh.bmp
276.48	0.72	375	4	7	37	per	con	low	mod	low	tg	ms	wh/0893.bmp
277.20	0.72	376	3	5	38	per	con	low	mod	low	tg	ms	wh/0190.bmp
277.92	0.72	377	4	5	65	per	lib	low	mod	low	tg	ht	wh/0964.bmp
278.64	0.72	378	3	5	111	mem	lib	mod	mod	low	nt	ht	nh/0194_nh.bmp
279.36	0.72	379	3	5	54	mem	con	mod	mod	low	tg	ms	wh/0758.bmp
280.08	0.72	380	3	6	107	mem	con	mod	mod	mod	nt	ms	nh/0941_nh.bmp
280.80	0.72	381	5	6	17	mem	lib	mod	mod	mod	nt	ht	nh/0714_nh.bmp
281.52	0.72	382	3	6	24	mem	lib	mod	mod	mod	tg	ht	wh/0543.bmp
282.24	0.72	383	1	7	19	mem	lib	mod	mod	mod	tg	ht	wh/0807.bmp
282.96	0.72	384	3	5	73	per	lib	low	mod	low	nt	fa	nh/0123_nh.bmp
283.68	0.72	385	2	6	106	mem	con	mod	mod	mod	tg	ht	wh/0094.bmp
284.40	0.72	386	2	8	18	mem	lib	mod	mod	low	nt	ht	nh/0690_nh.bmp
285.12	0.72	387	4	7	72	per	lib	low	mod	low	tg	ht	wh/0150.bmp
285.84	0.72	388	4	7	77	per	lib	low	mod	low	tg	ht	wh/0451.bmp
286.56	0.72	389	1	5	103	mem	lib	mod	mod	low	tg	ht	wh/0032.bmp
287.28	0.72	390	4	5	69	per	lib	low	mod	low	tg	ht	wh/0635.bmp
288.00	0.72	391	3	8	28	mem	lib	mod	mod	low	tg	ht	wh/0077.bmp
288.72	0.72	392	2	7	21	mem	lib	mod	mod	mod	nt	ht	nh/0909_nh.bmp
289.44	0.72	393	3	8	27	mem	lib	mod	mod	low	tg	ht	wh/0232.bmp
290.16	0.72	394	2	6	102	mem	con	mod	mod	mod	tg	ms	wh/0187.bmp
290.88	0.72	395	3	6	108	mem	con	mod	mod	mod	nt	n/a	nh/0199_nh.bmp
291.60	0.72	396	1	5	91	mem	con	low	low	low	nt	ms	nh/0804_nh.bmp
292.32	0.72	397	1	7	108	mem	lib	low	low	low	tg	ht	wh/0053.bmp
293.04	0.72	398	4	6	63	per	con	mod	mod	mod	nt	cr	nh/0396_nh.bmp
293.76	0.72	399	3	7	123	mem	con	mod	mod	mod	tg	ht	wh/0182.bmp
294.48	0.72	400	1	5	128	per	lib	mod	low	mod	nt	fa	nh/0693_nh.bmp
295.20	0.72	401	4	8	40	per	con	mod	mod	mod	nt	cr	nh/0548_nh.bmp
295.92	0.72	402	3	5	46	per	con	low	mod	low	tg	ht	wh/0074.bmp
296.64	0.72	403	6	5	34	per	con	low	mod	low	nt	cr	nh/0383_nh.bmp
297.36	0.72	404	3	7	113	mem	con	mod	mod	mod	tg	ht	wh/0810.bmp
298.08	0.72	405	4	7	114	mem	con	mod	mod	mod	nt	ht	nh/0209_nh.bmp
298.80	0.72	406	4	8	113	mem	con	mod	mod	low	nt	ms	nh/0345_nh.bmp
299.52	0.72	407	4	5	104	mem	lib	mod	mod	low	nt	ht	nh/0035_nh.bmp
300.24	0.72	408	1	5	63	mem	con	mod	mod	low	nt	ms	nh/0355_nh.bmp
300.96	0.72	409	3	5	79	per	lib	low	mod	low	nt	fa	nh/0493_nh.bmp
301.68	0.72	410	3	5	35	per	con	low	mod	low	nt	cr	nh/0238_nh.bmp
302.40	0.72	411	3	7	21	mem	lib	mod	mod	mod	nt	ht	nh/0909_nh.bmp
303.12	0.72	412	5	8	42	per	con	mod	mod	mod	tg	ht	wh/0973.bmp
303.84	0.72	413	3	6	81	per	lib	mod	mod	mod	nt	fa	nh/0442_nh.bmp
304.56	0.72	414	3	5	41	per	con	low	mod	low	tg	ms	wh/0075.bmp
305.28	0.72	415	1	5	25	per	con	mod	low	mod	tg	ms	wh/0933.bmp
306.00	0.72	416	5	5	59	mem	con	mod	mod	low	tg	ht	wh/0256.bmp
306.72	0.72	417	1	6	14	mem	con	low	low	mod	nt	ms	nh/0278_nh.bmp
307.44	0.72	418	3	5	40	per	con	low	mod	low	tg	ms	wh/0967.bmp
308.16	0.72	419	4	8	63	per	lib	mod	mod	mod	nt	fa	nh/0748_nh.bmp
308.88	0.72	420	5	8	40	per	con	mod	mod	mod	nt	cr	nh/0548_nh.bmp
309.60	0.72	421	4	5	46	per	con	low	mod	low	tg	ht	wh/0074.bmp
310.32	0.72	422	4	6	107	mem	con	mod	mod	mod	nt	ms	nh/0941_nh.bmp
311.04	0.72	423	2	8	50	per	lib	mod	mod	mod	nt	fa	nh/0962_nh.bmp
311.76	0.72	424	3	8	23	mem	lib	mod	mod	low	tg	ht	wh/0036.bmp
312.48	0.72	425	4	5	47	per	con	low	mod	low	nt	cr	nh/0465_nh.bmp
313.20	0.72	426	3	7	69	per	lib	low	mod	low	tg	ms	wh/0336.bmp
313.92	0.72	427	1	8	3	mem	con	low	low	mod	nt	ms	nh/0787_nh.bmp
314.64	0.72	428	3	5	105	mem	lib	mod	mod	low	nt	ht	nh/0963_nh.bmp
315.36	0.72	429	2	6	27	mem	lib	mod	mod	mod	tg	ht	wh/0542.bmp
316.08	0.72	430	5	7	36	per	con	low	mod	low	nt	n/a	nh/0503_nh.bmp
316.80	0.72	431	4	6	108	mem	con	mod	mod	mod	nt	n/a	nh/0199_nh.bmp
317.52	0.72	432	2	5	55	mem	con	mod	mod	low	tg	ms	wh/0351.bmp
318.24	0.72	433	4	6	19	mem	lib	mod	mod	mod	nt	ht	nh/0446_nh.bmp
318.96	0.72	434	2	5	63	mem	con	mod	mod	low	nt	ms	nh/0355_nh.bmp
319.68	0.72	435	4	5	41	per	con	low	mod	low	tg	ms	wh/0075.bmp
320.40	0.72	436	4	6	53	per	con	mod	mod	mod	nt	cr	nh/0497_nh.bmp
321.12	0.72	437	2	6	50	per	con	mod	mod	mod	tg	ms	wh/0954.bmp
321.84	0.72	438	2	8	24	mem	lib	mod	mod	low	tg	ht	wh/0818.bmp
322.56	0.72	439	2	7	19	mem	lib	mod	mod	mod	tg	ht	wh/0807.bmp
323.28	0.72	440	3	7	19	mem	lib	mod	mod	mod	tg	ht	wh/0807.bmp
324.00	0.72	441	1	5	6	mem	lib	low	low	low	tg	ms	wh/0881.bmp
324.72	0.72	442	4	5	35	per	con	low	mod	low	nt	cr	nh/0238_nh.bmp
325.44	0.72	443	1	7	95	per	lib	mod	low	mod	nt	fa	nh/0048_nh.bmp
326.16	0.72	444	2	7	80	per	lib	low	mod	low	nt	fa	nh/0802_nh.bmp
326.88	0.72	445	1	5	18	per	con	mod	low	mod	tg	ht	wh/0774.bmp
327.60	0.72	446	3	7	126	mem	con	mod	mod	mod	tg	ms	wh/0650.bmp
328.32	0.72	447	4	7	19	mem	lib	mod	mod	mod	tg	ht	wh/0807.bmp
329.04	0.72	448	1	6	6	mem	con	low	low	mod	tg	ms	wh/0525.bmp
329.76	0.72	449	4	8	44	per	con	mod	mod	mod	nt	cr	nh/0563_nh.bmp
330.48	0.72	450	4	7	17	mem	lib	mod	mod	mod	tg	ht	wh/0772.bmp
331.20	0.72	451	2	8	60	per	lib	mod	mod	mod	tg	ht	wh/0558.bmp
331.92	0.72	452	4	5	57	mem	con	mod	mod	low	tg	ms	wh/0364.bmp
332.64	0.72	453	5	5	37	per	con	low	mod	low	nt	cr	nh/0125_nh.bmp
333.36	0.72	454	3	7	127	mem	con	mod	mod	mod	tg	ht	wh/0904.bmp
334.08	0.72	455	5	7	115	mem	con	mod	mod	mod	nt	ms	nh/0805_nh.bmp
334.80	0.72	456	4	5	49	mem	con	mod	mod	low	nt	ms	nh/0404_nh.bmp
335.52	0.72	457	3	7	24	mem	lib	mod	mod	mod	nt	ht	nh/0928_nh.bmp
336.24	0.72	458	4	6	84	per	lib	mod	mod	mod	tg	ht	wh/0591.bmp
336.96	0.72	459	5	8	64	per	lib	mod	mod	mod	nt	cr	nh/0946_nh.bmp
337.68	0.72	460	2	8	54	per	lib	mod	mod	mod	tg	ht	wh/0350.bmp
338.40	0.72	461	3	8	61	per	lib	mod	mod	mod	tg	ms	wh/0593.bmp
339.12	0.72	462	3	6	93	per	lib	mod	mod	mod	nt	n/a	nh/0684_nh.bmp
339.84	0.72	463	1	8	4	mem	con	low	low	mod	nt	ms	nh/0531_nh.bmp
340.56	0.72	464	5	5	104	mem	lib	mod	mod	low	nt	ht	nh/0035_nh.bmp
341.28	0.72	465	3	8	24	mem	lib	mod	mod	low	tg	ht	wh/0818.bmp
342.00	0.72	466	2	8	127	mem	con	mod	mod	low	tg	ht	wh/0329.bmp
342.72	0.72	467	4	5	62	mem	con	mod	mod	low	nt	ht	nh/0744_nh.bmp
343.44	0.72	468	3	6	102	mem	con	mod	mod	mod	tg	ms	wh/0187.bmp
344.16	0.72	469	3	6	97	mem	con	mod	mod	mod	tg	ms	wh/0855.bmp
344.88	0.72	470	5	5	46	per	con	low	mod	low	tg	ht	wh/0074.bmp
345.60	0.72	471	4	6	81	per	lib	mod	mod	mod	nt	fa	nh/0442_nh.bmp
346.32	0.72	472	4	8	38	per	con	mod	mod	mod	nt	cr	nh/0784_nh.bmp
347.04	0.72	473	5	6	54	per	con	mod	mod	mod	tg	ms	wh/0697.bmp
347.76	0.72	474	3	7	39	per	con	low	mod	low	nt	n/a	nh/0508_nh.bmp
348.48	0.72	475	2	6	86	per	lib	mod	mod	mod	tg	ht	wh/0902.bmp
349.20	0.72	476	3	8	119	mem	con	mod	mod	low	nt	ms	nh/0134_nh.bmp
349.92	0.72	477	4	7	113	mem	con	mod	mod	mod	tg	ht	wh/0810.bmp
350.64	0.72	478	3	7	80	per	lib	low	mod	low	nt	fa	nh/0802_nh.bmp
351.36	0.72	479	3	8	49	per	lib	mod	mod	mod	tg	ht	wh/0339.bmp
352.08	0.72	480	4	7	24	mem	lib	mod	mod	mod	nt	ht	nh/0928_nh.bmp
352.80	0.72	481	4	8	32	mem	lib	mod	mod	low	nt	ht	nh/0361_nh.bmp
353.52	0.72	482	3	5	63	mem	con	mod	mod	low	nt	ms	nh/0355_nh.bmp
354.24	0.72	483	4	5	77	per	lib	low	mod	low	tg	ht	wh/0608.bmp
354.96	0.72	484	1	5	4	mem	lib	low	low	low	tg	ht	wh/0013.bmp
355.68	0.72	485	1	5	122	per	lib	mod	low	mod	tg	ht	wh/0569.bmp
356.40	0.72	486	1	6	31	mem	lib	mod	mod	mod	tg	ht	wh/0594.bmp
357.12	0.72	487	3	8	31	mem	lib	mod	mod	low	nt	ht	nh/0443_nh.bmp
357.84	0.72	488	4	8	34	per	con	mod	mod	mod	tg	ht	wh/0397.bmp
358.56	0.72	489	5	5	35	per	con	low	mod	low	nt	cr	nh/0238_nh.bmp
359.28	0.72	490	4	5	105	mem	lib	mod	mod	low	nt	ht	nh/0963_nh.bmp
360.00	0.72	491	5	8	63	per	lib	mod	mod	mod	nt	fa	nh/0748_nh.bmp
360.72	0.72	492	4	6	102	mem	con	mod	mod	mod	tg	ms	wh/0187.bmp
361.44	0.72	493	3	5	101	mem	lib	mod	mod	low	nt	ht	nh/0660_nh.bmp
362.16	0.72	494	5	6	19	mem	lib	mod	mod	mod	nt	ht	nh/0446_nh.bmp
362.88	0.72	495	6	8	40	per	con	mod	mod	mod	nt	cr	nh/0548_nh.bmp
363.60	0.72	496	4	7	39	per	con	low	mod	low	nt	n/a	nh/0508_nh.bmp
364.32	0.72	497	5	8	32	mem	lib	mod	mod	low	nt	ht	nh/0361_nh.bmp
365.04	0.72	498	4	5	79	per	lib	low	mod	low	nt	fa	nh/0493_nh.bmp
365.76	0.72	499	2	8	37	per	con	mod	mod	mod	nt	cr	nh/0447_nh.bmp
366.48	0.72	500	5	8	48	per	con	mod	mod	mod	tg	ms	wh/0462.bmp
367.20	0.72	501	5	7	43	per	con	low	mod	low	tg	ms	wh/0489.bmp
367.92	0.72	502	3	6	95	per	lib	mod	mod	mod	tg	ht	wh/0328.bmp
368.64	0.72	503	1	5	120	per	lib	mod	low	mod	nt	cr	nh/0044_nh.bmp
369.36	0.72	504	5	5	65	per	lib	low	mod	low	tg	ht	wh/0964.bmp
370.08	0.72	505	5	5	105	mem	lib	mod	mod	low	nt	ht	nh/0963_nh.bmp
370.80	0.72	506	3	8	124	mem	con	mod	mod	low	tg	ms	wh/0382.bmp
371.52	0.72	507	4	6	58	per	con	mod	mod	mod	nt	fa	nh/0843_nh.bmp
372.24	0.72	508	5	7	77	per	lib	low	mod	low	tg	ht	wh/0451.bmp
372.96	0.72	509	5	5	47	per	con	low	mod	low	nt	cr	nh/0465_nh.bmp
373.68	0.72	510	3	7	38	per	con	low	mod	low	nt	cr	nh/0568_nh.bmp
374.40	0.72	511	4	8	128	mem	con	mod	mod	low	tg	ht	wh/0299.bmp
375.12	0.72	512	1	5	94	mem	con	low	low	low	tg	ht	wh/0823.bmp
375.84	0.72	513	1	7	85	per	lib	mod	low	mod	tg	ht	wh/0923.bmp
376.56	0.72	514	3	6	106	mem	con	mod	mod	mod	tg	ht	wh/0094.bmp
377.28	0.72	515	5	6	30	mem	lib	mod	mod	mod	tg	ht	wh/0680.bmp
378.00	0.72	516	4	7	38	per	con	low	mod	low	nt	cr	nh/0568_nh.bmp
378.72	0.72	517	3	6	50	per	con	mod	mod	mod	tg	ms	wh/0954.bmp
379.44	0.72	518	1	8	65	per	lib	low	low	low	nt	fa	nh/0215_nh.bmp
380.16	0.72	519	4	8	27	mem	lib	mod	mod	low	tg	ht	wh/0232.bmp
380.88	0.72	520	6	8	64	per	lib	mod	mod	mod	nt	cr	nh/0946_nh.bmp
381.60	0.72	521	5	6	58	per	con	mod	mod	mod	nt	fa	nh/0843_nh.bmp
382.32	0.72	522	1	6	68	per	con	low	low	low	nt	cr	nh/0483_nh.bmp
383.04	0.72	523	3	6	86	per	lib	mod	mod	mod	tg	ht	wh/0902.bmp
383.76	0.72	524	2	6	31	mem	lib	mod	mod	mod	tg	ht	wh/0594.bmp
384.48	0.72	525	1	5	83	mem	con	low	low	low	nt	ms	nh/0812_nh.bmp
385.20	0.72	526	4	5	73	per	lib	low	mod	low	nt	fa	nh/0123_nh.bmp
385.92	0.72	527	5	8	44	per	con	mod	mod	mod	nt	cr	nh/0563_nh.bmp
386.64	0.72	528	6	6	30	mem	lib	mod	mod	mod	tg	ht	wh/0680.bmp
387.36	0.72	529	1	5	123	per	lib	mod	low	mod	nt	cr	nh/0306_nh.bmp
388.08	0.72	530	1	7	30	mem	lib	mod	mod	mod	tg	ht	wh/0716.bmp
388.80	0.72	531	1	5	2	mem	lib	low	low	low	tg	ht	wh/0434.bmp
389.52	0.72	532	3	8	122	mem	con	mod	mod	low	nt	ms	nh/0338_nh.bmp
390.24	0.72	533	5	7	24	mem	lib	mod	mod	mod	nt	ht	nh/0928_nh.bmp
390.96	0.72	534	4	5	67	per	lib	low	mod	low	tg	ms	wh/0082.bmp
391.68	0.72	535	6	8	32	mem	lib	mod	mod	low	nt	ht	nh/0361_nh.bmp
392.40	0.72	536	4	6	93	per	lib	mod	mod	mod	nt	n/a	nh/0684_nh.bmp
393.12	0.72	537	1	8	81	mem	lib	low	low	mod	tg	ht	wh/1018.bmp
393.84	0.72	538	5	7	124	mem	con	mod	mod	mod	nt	ms	nh/0273_nh.bmp
394.56	0.72	539	1	6	119	per	lib	low	low	low	tg	ht	wh/0439.bmp
395.28	0.72	540	5	7	39	per	con	low	mod	low	nt	n/a	nh/0508_nh.bmp
396.00	0.72	541	3	5	55	mem	con	mod	mod	low	tg	ms	wh/0351.bmp
396.72	0.72	542	2	6	104	mem	con	mod	mod	mod	tg	ms	wh/0319.bmp
397.44	0.72	543	3	6	103	mem	con	mod	mod	mod	nt	ht	nh/0222_nh.bmp
398.16	0.72	544	6	8	48	per	con	mod	mod	mod	tg	ms	wh/0462.bmp
398.88	0.72	545	1	5	32	per	con	mod	low	mod	tg	ht	wh/0900.bmp
399.60	0.72	546	4	5	63	mem	con	mod	mod	low	nt	ms	nh/0355_nh.bmp
400.32	0.72	547	1	7	56	per	con	mod	low	mod	tg	ht	wh/0598.bmp
401.04	0.72	548	4	6	97	mem	con	mod	mod	mod	tg	ms	wh/0855.bmp
401.76	0.72	549	6	5	47	per	con	low	mod	low	nt	cr	nh/0465_nh.bmp
402.48	0.72	550	4	6	95	per	lib	mod	mod	mod	tg	ht	wh/0328.bmp
403.20	0.72	551	4	6	56	per	con	mod	mod	mod	nt	cr	nh/0588_nh.bmp
403.92	0.72	552	5	5	73	per	lib	low	mod	low	nt	fa	nh/0123_nh.bmp
404.64	0.72	553	3	7	68	per	lib	low	mod	low	nt	fa	nh/0153_nh.bmp
405.36	0.72	554	1	6	73	per	con	low	low	low	nt	cr	nh/0206_nh.bmp
406.08	0.72	555	2	7	18	mem	lib	mod	mod	mod	tg	ht	wh/0540.bmp
406.80	0.72	556	5	5	102	mem	lib	mod	mod	low	tg	ht	wh/0080.bmp
407.52	0.72	557	6	5	105	mem	lib	mod	mod	low	nt	ht	nh/0963_nh.bmp
408.24	0.72	558	1	8	85	mem	lib	low	low	mod	nt	ht	nh/0849_nh.bmp
408.96	0.72	559	6	5	73	per	lib	low	mod	low	nt	fa	nh/0123_nh.bmp
409.68	0.72	560	4	7	68	per	lib	low	mod	low	nt	fa	nh/0153_nh.bmp
410.40	0.72	561	4	6	103	mem	con	mod	mod	mod	nt	ht	nh/0222_nh.bmp
411.12	0.72	562	4	8	49	per	lib	mod	mod	mod	tg	ht	wh/0339.bmp
411.84	0.72	563	3	8	20	mem	lib	mod	mod	low	nt	ht	nh/0760_nh.bmp
412.56	0.72	564	1	7	64	per	con	mod	low	mod	tg	ht	wh/0059.bmp
413.28	0.72	565	4	7	21	mem	lib	mod	mod	mod	nt	ht	nh/0909_nh.bmp
414.00	0.72	566	3	6	104	mem	con	mod	mod	mod	tg	ms	wh/0319.bmp
414.72	0.72	567	6	7	24	mem	lib	mod	mod	mod	nt	ht	nh/0928_nh.bmp
415.44	0.72	568	6	5	35	per	con	low	mod	low	nt	cr	nh/0238_nh.bmp
416.16	0.72	569	1	6	9	mem	con	low	low	mod	tg	ms	wh/0718.bmp
416.88	0.72	570	5	8	34	per	con	mod	mod	mod	tg	ht	wh/0397.bmp
417.60	0.72	571	3	6	18	mem	lib	mod	mod	mod	nt	ht	nh/0099_nh.bmp
418.32	0.72	572	4	8	124	mem	con	mod	mod	low	tg	ms	wh/0382.bmp
419.04	0.72	573	4	6	50	per	con	mod	mod	mod	tg	ms	wh/0954.bmp
419.76	0.72	574	4	7	69	per	lib	low	mod	low	tg	ms	wh/0336.bmp
420.48	0.72	575	6	6	58	per	con	mod	mod	mod	nt	fa	nh/0843_nh.bmp
421.20	0.72	576	4	5	101	mem	lib	mod	mod	low	nt	ht	nh/0660_nh.bmp
421.92	0.72	577	1	8	87	mem	lib	low	low	mod	nt	ms	nh/0949_nh.bmp
422.64	0.72	578	4	8	24	mem	lib	mod	mod	low	tg	ht	wh/0818.bmp
423.36	0.72	579	5	7	17	mem	lib	mod	mod	mod	tg	ht	wh/0772.bmp
424.08	0.72	580	3	7	18	mem	lib	mod	mod	mod	tg	ht	wh/0540.bmp
424.80	0.72	581	2	5	103	mem	lib	mod	mod	low	tg	ht	wh/0032.bmp
425.52	0.72	582	5	6	56	per	con	mod	mod	mod	nt	cr	nh/0588_nh.bmp
426.24	0.72	583	1	6	124	per	lib	low	low	low	tg	ht	wh/0266.bmp
426.96	0.72	584	4	8	119	mem	con	mod	mod	low	nt	ms	nh/0134_nh.bmp
427.68	0.72	585	1	6	127	per	lib	low	low	low	nt	fa	nh/0691_nh.bmp
428.40	0.72	586	5	8	128	mem	con	mod	mod	low	tg	ht	wh/0299.bmp
429.12	0.72	587	4	7	127	mem	con	mod	mod	mod	tg	ht	wh/0904.bmp
429.84	0.72	588	2	6	88	per	lib	mod	mod	mod	nt	cr	nh/0795_nh.bmp
430.56	0.72	589	5	7	37	per	con	low	mod	low	tg	ms	wh/0893.bmp
431.28	0.72	590	5	5	41	per	con	low	mod	low	tg	ms	wh/0075.bmp
432.00	0.72	591	1	8	90	mem	lib	low	low	mod	tg	ms	wh/0736.bmp
432.72	0.72	592	3	8	126	mem	con	mod	mod	low	tg	ht	wh/0284.bmp
433.44	0.72	593	1	7	25	mem	lib	mod	mod	mod	nt	ht	nh/0371_nh.bmp
434.16	0.72	594	6	7	40	per	con	low	mod	low	tg	ms	wh/0619.bmp
434.88	0.72	595	6	7	115	mem	con	mod	mod	mod	nt	ms	nh/0805_nh.bmp
435.60	0.72	596	5	6	50	per	con	mod	mod	mod	tg	ms	wh/0954.bmp
436.32	0.72	597	5	5	67	per	lib	low	mod	low	tg	ms	wh/0082.bmp
437.04	0.72	598	3	8	60	per	lib	mod	mod	mod	tg	ht	wh/0558.bmp
437.76	0.72	599	1	6	45	mem	lib	low	low	mod	nt	ht	nh/0572_nh.bmp
438.48	0.72	600	2	7	25	mem	lib	mod	mod	mod	nt	ht	nh/0371_nh.bmp
439.20	0.72	601	3	8	18	mem	lib	mod	mod	low	nt	ht	nh/0690_nh.bmp
439.92	0.72	602	6	5	46	per	con	low	mod	low	tg	ht	wh/0074.bmp
440.64	0.72	603	1	8	83	mem	lib	low	low	mod	nt	ht	nh/1024_nh.bmp
441.36	0.72	604	4	7	120	mem	con	mod	mod	mod	nt	ms	nh/0428_nh.bmp
442.08	0.72	605	4	7	18	mem	lib	mod	mod	mod	tg	ht	wh/0540.bmp
442.80	0.72	606	5	6	84	per	lib	mod	mod	mod	tg	ht	wh/0591.bmp
443.52	0.72	607	5	7	68	per	lib	low	mod	low	nt	fa	nh/0153_nh.bmp
444.24	0.72	608	2	5	97	mem	lib	mod	mod	low	tg	ht	wh/0646.bmp
444.96	0.72	609	3	7	27	mem	lib	mod	mod	mod	nt	ht	nh/0803_nh.bmp
445.68	0.72	610	4	8	23	mem	lib	mod	mod	low	tg	ht	wh/0036.bmp
446.40	0.72	611	6	7	77	per	lib	low	mod	low	tg	ht	wh/0451.bmp
447.12	0.72	612	6	8	128	mem	con	mod	mod	low	tg	ht	wh/0299.bmp
447.84	0.72	613	4	7	27	mem	lib	mod	mod	mod	nt	ht	nh/0803_nh.bmp
448.56	0.72	614	4	5	58	mem	con	mod	mod	low	nt	ht	nh/0730_nh.bmp
449.28	0.72	615	5	8	24	mem	lib	mod	mod	low	tg	ht	wh/0818.bmp
450.00	0.72	616	3	6	31	mem	lib	mod	mod	mod	tg	ht	wh/0594.bmp
450.72	0.72	617	4	7	79	per	lib	low	mod	low	nt	fa	nh/0613_nh.bmp
451.44	0.72	618	4	8	28	mem	lib	mod	mod	low	tg	ht	wh/0077.bmp
452.16	0.72	619	6	6	56	per	con	mod	mod	mod	nt	cr	nh/0588_nh.bmp
452.88	0.72	620	6	5	41	per	con	low	mod	low	tg	ms	wh/0075.bmp
453.60	0.72	621	6	8	63	per	lib	mod	mod	mod	nt	fa	nh/0748_nh.bmp
454.32	0.72	622	5	6	112	mem	con	mod	mod	mod	nt	ht	nh/0874_nh.bmp
455.04	0.72	623	4	6	86	per	lib	mod	mod	mod	tg	ht	wh/0902.bmp
455.76	0.72	624	4	5	68	per	lib	low	mod	low	nt	cr	nh/0934_nh.bmp
456.48	0.72	625	6	7	17	mem	lib	mod	mod	mod	tg	ht	wh/0772.bmp
457.20	0.72	626	3	5	103	mem	lib	mod	mod	low	tg	ht	wh/0032.bmp
457.92	0.72	627	4	5	103	mem	lib	mod	mod	low	tg	ht	wh/0032.bmp
458.64	0.72	628	4	8	126	mem	con	mod	mod	low	tg	ht	wh/0284.bmp
459.36	0.72	629	4	5	111	mem	lib	mod	mod	low	nt	ht	nh/0194_nh.bmp
460.08	0.72	630	1	6	43	mem	lib	low	low	mod	nt	ht	nh/0267_nh.bmp
460.80	0.72	631	4	6	24	mem	lib	mod	mod	mod	tg	ht	wh/0543.bmp
461.52	0.72	632	3	7	25	mem	lib	mod	mod	mod	nt	ht	nh/0371_nh.bmp
462.24	0.72	633	5	8	28	mem	lib	mod	mod	low	tg	ht	wh/0077.bmp
462.96	0.72	634	5	5	101	mem	lib	mod	mod	low	nt	ht	nh/0660_nh.bmp
463.68	0.72	635	4	5	38	per	con	low	mod	low	tg	ms	wh/0190.bmp
464.40	0.72	636	6	5	67	per	lib	low	mod	low	tg	ms	wh/0082.bmp
465.12	0.72	637	5	6	53	per	con	mod	mod	mod	nt	cr	nh/0497_nh.bmp
465.84	0.72	638	1	7	96	per	lib	mod	low	mod	nt	fa	nh/0992_nh.bmp
466.56	0.72	639	1	5	89	mem	con	low	low	low	nt	ms	nh/0384_nh.bmp
467.28	0.72	640	4	5	55	mem	con	mod	mod	low	tg	ms	wh/0351.bmp
468.00	0.72	641	5	5	55	mem	con	mod	mod	low	tg	ms	wh/0351.bmp
468.72	0.72	642	4	8	61	per	lib	mod	mod	mod	tg	ms	wh/0593.bmp
469.44	0.72	643	5	5	69	per	lib	low	mod	low	tg	ht	wh/0635.bmp
470.16	0.72	644	4	7	45	per	con	low	mod	low	tg	ms	wh/0029.bmp
470.88	0.72	645	1	8	80	per	lib	low	low	low	tg	ht	wh/0431.bmp
471.60	0.72	646	5	6	108	mem	con	mod	mod	mod	nt	n/a	nh/0199_nh.bmp
472.32	0.72	647	1	5	13	mem	lib	low	low	low	tg	ht	wh/0460.bmp
473.04	0.72	648	5	7	38	per	con	low	mod	low	nt	cr	nh/0568_nh.bmp
473.76	0.72	649	5	6	95	per	lib	mod	mod	mod	tg	ht	wh/0328.bmp
474.48	0.72	650	1	6	71	per	con	low	low	low	tg	ms	wh/0710.bmp
475.20	0.72	651	5	6	97	mem	con	mod	mod	mod	tg	ms	wh/0855.bmp
475.92	0.72	652	6	7	39	per	con	low	mod	low	nt	n/a	nh/0508_nh.bmp
476.64	0.72	653	1	7	6	mem	con	low	low	low	tg	ms	wh/0706.bmp
477.36	0.72	654	4	8	60	per	lib	mod	mod	mod	tg	ht	wh/0558.bmp
478.08	0.72	655	4	6	106	mem	con	mod	mod	mod	tg	ht	wh/0094.bmp
478.80	0.72	656	5	5	62	mem	con	mod	mod	low	nt	ht	nh/0744_nh.bmp
479.52	0.72	657	3	6	88	per	lib	mod	mod	mod	nt	cr	nh/0795_nh.bmp
480.24	0.72	658	5	5	57	mem	con	mod	mod	low	tg	ms	wh/0364.bmp
480.96	0.72	659	3	6	27	mem	lib	mod	mod	mod	tg	ht	wh/0542.bmp
481.68	0.72	660	5	7	21	mem	lib	mod	mod	mod	nt	ht	nh/0909_nh.bmp
482.40	0.72	661	5	6	81	per	lib	mod	mod	mod	nt	fa	nh/0442_nh.bmp
483.12	0.72	662	5	5	68	per	lib	low	mod	low	nt	cr	nh/0934_nh.bmp
483.84	0.72	663	1	8	84	mem	lib	low	low	mod	nt	ht	nh/0461_nh.bmp
484.56	0.72	664	4	7	126	mem	con	mod	mod	mod	tg	ms	wh/0650.bmp
485.28	0.72	665	1	5	17	per	con	mod	low	mod	tg	ht	wh/0281.bmp
486.00	0.72	666	5	7	113	mem	con	mod	mod	mod	tg	ht	wh/0810.bmp
486.72	0.72	667	1	7	109	mem	lib	low	low	low	tg	ht	wh/0090.bmp
487.44	0.72	668	5	6	24	mem	lib	mod	mod	mod	tg	ht	wh/0543.bmp
488.16	0.72	669	5	8	38	per	con	mod	mod	mod	nt	cr	nh/0784_nh.bmp
488.88	0.72	670	5	7	126	mem	con	mod	mod	mod	tg	ms	wh/0650.bmp
489.60	0.72	671	2	7	30	mem	lib	mod	mod	mod	tg	ht	wh/0716.bmp
490.32	0.72	672	3	8	50	per	lib	mod	mod	mod	nt	fa	nh/0962_nh.bmp
491.04	0.72	673	5	6	107	mem	con	mod	mod	mod	nt	ms	nh/0941_nh.bmp
491.76	0.72	674	4	6	31	mem	lib	mod	mod	mod	tg	ht	wh/0594.bmp
492.48	0.72	675	4	6	18	mem	lib	mod	mod	mod	nt	ht	nh/0099_nh.bmp
493.20	0.72	676	6	5	101	mem	lib	mod	mod	low	nt	ht	nh/0660_nh.bmp
493.92	0.72	677	6	6	19	mem	lib	mod	mod	mod	nt	ht	nh/0446_nh.bmp
494.64	0.72	678	5	6	103	mem	con	mod	mod	mod	nt	ht	nh/0222_nh.bmp
495.36	0.72	679	6	5	59	mem	con	mod	mod	low	tg	ht	wh/0256.bmp
496.08	0.72	680	6	6	54	per	con	mod	mod	mod	tg	ms	wh/0697.bmp
496.80	0.72	681	4	6	104	mem	con	mod	mod	mod	tg	ms	wh/0319.bmp
497.52	0.72	682	5	5	77	per	lib	low	mod	low	tg	ht	wh/0608.bmp
498.24	0.72	683	3	8	37	per	con	mod	mod	mod	nt	cr	nh/0447_nh.bmp
498.96	0.72	684	3	8	54	per	lib	mod	mod	mod	tg	ht	wh/0350.bmp
499.68	0.72	685	6	7	38	per	con	low	mod	low	nt	cr	nh/0568_nh.bmp
500.40	0.72	686	5	8	61	per	lib	mod	mod	mod	tg	ms	wh/0593.bmp
501.12	0.72	687	3	6	90	per	lib	mod	mod	mod	tg	ht	wh/0398.bmp
501.84	0.72	688	5	7	27	mem	lib	mod	mod	mod	nt	ht	nh/0803_nh.bmp
502.56	0.72	689	5	7	72	per	lib	low	mod	low	tg	ht	wh/0150.bmp
503.28	0.72	690	3	5	97	mem	lib	mod	mod	low	tg	ht	wh/0646.bmp
504.00	0.72	691	3	8	127	mem	con	mod	mod	low	tg	ht	wh/0329.bmp
504.72	0.72	692	5	5	58	mem	con	mod	mod	low	nt	ht	nh/0730_nh.bmp
505.44	0.72	693	5	7	79	per	lib	low	mod	low	nt	fa	nh/0613_nh.bmp
506.16	0.72	694	5	8	27	mem	lib	mod	mod	low	tg	ht	wh/0232.bmp
506.88	0.72	695	6	7	21	mem	lib	mod	mod	mod	nt	ht	nh/0909_nh.bmp
507.60	0.72	696	5	8	113	mem	con	mod	mod	low	nt	ms	nh/0345_nh.bmp
508.32	0.72	697	4	6	90	per	lib	mod	mod	mod	tg	ht	wh/0398.bmp
509.04	0.72	698	3	7	30	mem	lib	mod	mod	mod	tg	ht	wh/0716.bmp
509.76	0.72	699	5	7	127	mem	con	mod	mod	mod	tg	ht	wh/0904.bmp
510.48	0.72	700	5	7	69	per	lib	low	mod	low	tg	ms	wh/0336.bmp
511.20	0.72	701	4	8	50	per	lib	mod	mod	mod	nt	fa	nh/0962_nh.bmp
511.92	0.72	702	4	5	54	mem	con	mod	mod	low	tg	ms	wh/0758.bmp
512.64	0.72	703	5	5	38	per	con	low	mod	low	tg	ms	wh/0190.bmp
513.36	0.72	704	4	8	20	mem	lib	mod	mod	low	nt	ht	nh/0760_nh.bmp
514.08	0.72	705	6	5	77	per	lib	low	mod	low	tg	ht	wh/0608.bmp
514.80	0.72	706	5	6	20	mem	lib	mod	mod	mod	nt	ht	nh/0196_nh.bmp
515.52	0.72	707	5	7	114	mem	con	mod	mod	mod	nt	ht	nh/0209_nh.bmp
516.24	0.72	708	6	7	36	per	con	low	mod	low	nt	n/a	nh/0503_nh.bmp
516.96	0.72	709	1	8	110	per	con	low	low	low	tg	ms	wh/0815.bmp
517.68	0.72	710	5	6	104	mem	con	mod	mod	mod	tg	ms	wh/0319.bmp
518.40	0.72	711	5	7	42	per	con	low	mod	low	nt	cr	nh/0577_nh.bmp
519.12	0.72	712	4	8	122	mem	con	mod	mod	low	nt	ms	nh/0338_nh.bmp
519.84	0.72	713	6	6	17	mem	lib	mod	mod	mod	nt	ht	nh/0714_nh.bmp
520.56	0.72	714	1	7	84	per	lib	mod	low	mod	nt	fa	nh/0068_nh.bmp
521.28	0.72	715	6	6	97	mem	con	mod	mod	mod	tg	ms	wh/0855.bmp
522.00	0.72	716	1	8	100	per	con	low	low	low	tg	ms	wh/0185.bmp
522.72	0.72	717	5	5	54	mem	con	mod	mod	low	tg	ms	wh/0758.bmp
523.44	0.72	718	5	7	45	per	con	low	mod	low	tg	ms	wh/0029.bmp
524.16	0.72	719	6	7	43	per	con	low	mod	low	tg	ms	wh/0489.bmp
524.88	0.72	720	4	7	25	mem	lib	mod	mod	mod	nt	ht	nh/0371_nh.bmp
525.60	0.72	721	6	5	62	mem	con	mod	mod	low	nt	ht	nh/0744_nh.bmp
526.32	0.72	722	4	6	27	mem	lib	mod	mod	mod	tg	ht	wh/0542.bmp
527.04	0.72	723	4	8	123	mem	con	mod	mod	low	nt	ht	nh/0510_nh.bmp
527.76	0.72	724	1	6	2	mem	con	low	low	mod	nt	ms	nh/0301_nh.bmp
528.48	0.72	725	4	5	40	per	con	low	mod	low	tg	ms	wh/0967.bmp
529.20	0.72	726	6	5	74	per	lib	low	mod	low	nt	fa	nh/1023_nh.bmp
529.92	0.72	727	5	8	60	per	lib	mod	mod	mod	tg	ht	wh/0558.bmp
530.64	0.72	728	5	5	111	mem	lib	mod	mod	low	nt	ht	nh/0194_nh.bmp
531.36	0.72	729	6	8	113	mem	con	mod	mod	low	nt	ms	nh/0345_nh.bmp
532.08	0.72	730	5	6	51	per	con	mod	mod	mod	tg	ms	wh/0095.bmp
532.80	0.72	731	6	5	38	per	con	low	mod	low	tg	ms	wh/0190.bmp
533.52	0.72	732	4	7	78	per	lib	low	mod	low	tg	ms	wh/0079.bmp
534.24	0.72	733	6	6	85	per	lib	mod	mod	mod	nt	cr	nh/0380_nh.bmp
534.96	0.72	734	5	6	90	per	lib	mod	mod	mod	tg	ht	wh/0398.bmp
535.68	0.72	735	1	6	70	per	con	low	low	low	nt	cr	nh/0146_nh.bmp
536.40	0.72	736	1	7	93	per	lib	mod	low	mod	tg	ht	wh/0762.bmp
537.12	0.72	737	5	8	126	mem	con	mod	mod	low	tg	ht	wh/0284.bmp
537.84	0.72	738	4	8	37	per	con	mod	mod	mod	nt	cr	nh/0447_nh.bmp
538.56	0.72	739	1	5	31	per	con	mod	low	mod	nt	cr	nh/0846_nh.bmp
539.28	0.72	740	1	5	3	mem	lib	low	low	low	nt	ht	nh/0437_nh.bmp
540.00	0.72	741	5	6	64	per	con	mod	mod	mod	tg	ht	wh/0876.bmp
540.72	0.72	742	1	7	10	mem	con	low	low	low	nt	ms	nh/0055_nh.bmp
541.44	0.72	743	6	7	79	per	lib	low	mod	low	nt	fa	nh/0613_nh.bmp
542.16	0.72	744	6	6	51	per	con	mod	mod	mod	tg	ms	wh/0095.bmp
542.88	0.72	745	4	7	30	mem	lib	mod	mod	mod	tg	ht	wh/0716.bmp
543.60	0.72	746	6	5	104	mem	lib	mod	mod	low	nt	ht	nh/0035_nh.bmp
544.32	0.72	747	6	6	108	mem	con	mod	mod	mod	nt	n/a	nh/0199_nh.bmp
545.04	0.72	748	1	7	103	mem	lib	low	low	low	tg	ht	wh/0197.bmp
545.76	0.72	749	4	6	88	per	lib	mod	mod	mod	nt	cr	nh/0795_nh.bmp
546.48	0.72	750	6	6	50	per	con	mod	mod	mod	tg	ms	wh/0954.bmp
547.20	0.72	751	6	7	45	per	con	low	mod	low	tg	ms	wh/0029.bmp
547.92	0.72	752	4	8	127	mem	con	mod	mod	low	tg	ht	wh/0329.bmp
548.64	0.72	753	5	7	25	mem	lib	mod	mod	mod	nt	ht	nh/0371_nh.bmp
549.36	0.72	754	6	7	68	per	lib	low	mod	low	nt	fa	nh/0153_nh.bmp
550.08	0.72	755	6	7	114	mem	con	mod	mod	mod	nt	ht	nh/0209_nh.bmp
550.80	0.72	756	6	8	28	mem	lib	mod	mod	low	tg	ht	wh/0077.bmp
551.52	0.72	757	5	5	49	mem	con	mod	mod	low	nt	ms	nh/0404_nh.bmp
552.24	0.72	758	6	7	25	mem	lib	mod	mod	mod	nt	ht	nh/0371_nh.bmp
552.96	0.72	759	6	5	58	mem	con	mod	mod	low	nt	ht	nh/0730_nh.bmp
553.68	0.72	760	6	8	61	per	lib	mod	mod	mod	tg	ms	wh/0593.bmp
554.40	0.72	761	6	7	37	per	con	low	mod	low	tg	ms	wh/0893.bmp
555.12	0.72	762	4	7	80	per	lib	low	mod	low	nt	fa	nh/0802_nh.bmp
555.84	0.72	763	4	7	123	mem	con	mod	mod	mod	tg	ht	wh/0182.bmp
556.56	0.72	764	1	8	66	per	lib	low	low	low	nt	fa	nh/0528_nh.bmp
557.28	0.72	765	4	8	62	per	lib	mod	mod	mod	nt	cr	nh/0957_nh.bmp
558.00	0.72	766	1	8	98	per	con	low	low	low	nt	cr	nh/0864_nh.bmp
558.72	0.72	767	6	6	95	per	lib	mod	mod	mod	tg	ht	wh/0328.bmp
559.44	0.72	768	5	7	123	mem	con	mod	mod	mod	tg	ht	wh/0182.bmp
560.16	0.72	769	5	8	37	per	con	mod	mod	mod	nt	cr	nh/0447_nh.bmp
560.88	0.72	770	4	5	97	mem	lib	mod	mod	low	tg	ht	wh/0646.bmp
561.60	0.72	771	4	8	54	per	lib	mod	mod	mod	tg	ht	wh/0350.bmp
562.32	0.72	772	6	5	68	per	lib	low	mod	low	nt	cr	nh/0934_nh.bmp
563.04	0.72	773	6	5	111	mem	lib	mod	mod	low	nt	ht	nh/0194_nh.bmp
563.76	0.72	774	6	6	112	mem	con	mod	mod	mod	nt	ht	nh/0874_nh.bmp
564.48	0.72	775	5	7	120	mem	con	mod	mod	mod	nt	ms	nh/0428_nh.bmp
565.20	0.72	776	6	5	57	mem	con	mod	mod	low	tg	ms	wh/0364.bmp
565.92	0.72	777	6	7	42	per	con	low	mod	low	nt	cr	nh/0577_nh.bmp
566.64	0.72	778	6	6	81	per	lib	mod	mod	mod	nt	fa	nh/0442_nh.bmp
567.36	0.72	779	5	8	119	mem	con	mod	mod	low	nt	ms	nh/0134_nh.bmp
568.08	0.72	780	6	8	27	mem	lib	mod	mod	low	tg	ht	wh/0232.bmp
568.80	0.72	781	6	8	60	per	lib	mod	mod	mod	tg	ht	wh/0558.bmp
569.52	0.72	782	6	7	123	mem	con	mod	mod	mod	tg	ht	wh/0182.bmp
570.24	0.72	783	6	7	27	mem	lib	mod	mod	mod	nt	ht	nh/0803_nh.bmp
570.96	0.72	784	5	5	40	per	con	low	mod	low	tg	ms	wh/0967.bmp
571.68	0.72	785	5	7	30	mem	lib	mod	mod	mod	tg	ht	wh/0716.bmp
572.40	0.72	786	6	6	53	per	con	mod	mod	mod	nt	cr	nh/0497_nh.bmp
573.12	0.72	787	5	7	80	per	lib	low	mod	low	nt	fa	nh/0802_nh.bmp
573.84	0.72	788	5	8	20	mem	lib	mod	mod	low	nt	ht	nh/0760_nh.bmp
574.56	0.72	789	5	8	123	mem	con	mod	mod	low	nt	ht	nh/0510_nh.bmp
575.28	0.72	790	1	6	38	mem	lib	low	low	mod	tg	ht	wh/0699.bmp
576.00	0.72	791	5	8	122	mem	con	mod	mod	low	nt	ms	nh/0338_nh.bmp
576.72	0.72	792	6	8	37	per	con	mod	mod	mod	nt	cr	nh/0447_nh.bmp
577.44	0.72	793	6	5	40	per	con	low	mod	low	tg	ms	wh/0967.bmp
578.16	0.72	794	6	5	37	per	con	low	mod	low	nt	cr	nh/0125_nh.bmp
578.88	0.72	795	5	6	106	mem	con	mod	mod	mod	tg	ht	wh/0094.bmp
579.60	0.72	796	5	7	18	mem	lib	mod	mod	mod	tg	ht	wh/0540.bmp
580.32	0.72	797	6	8	34	per	con	mod	mod	mod	tg	ht	wh/0397.bmp
581.04	0.72	798	6	5	102	mem	lib	mod	mod	low	tg	ht	wh/0080.bmp
581.76	0.72	799	6	7	72	per	lib	low	mod	low	tg	ht	wh/0150.bmp
582.48	0.72	800	5	7	78	per	lib	low	mod	low	tg	ms	wh/0079.bmp
583.20	0.72	801	6	6	84	per	lib	mod	mod	mod	tg	ht	wh/0591.bmp
583.92	0.72	802	5	8	54	per	lib	mod	mod	mod	tg	ht	wh/0350.bmp
584.64	0.72	803	6	6	106	mem	con	mod	mod	mod	tg	ht	wh/0094.bmp
585.36	0.72	804	5	5	103	mem	lib	mod	mod	low	tg	ht	wh/0032.bmp
586.08	0.72	805	6	7	30	mem	lib	mod	mod	mod	tg	ht	wh/0716.bmp
586.80	0.72	806	6	6	90	per	lib	mod	mod	mod	tg	ht	wh/0398.bmp
587.52	0.72	807	5	6	88	per	lib	mod	mod	mod	nt	cr	nh/0795_nh.bmp
588.24	0.72	808	6	5	103	mem	lib	mod	mod	low	tg	ht	wh/0032.bmp
588.96	0.72	809	6	7	120	mem	con	mod	mod	mod	nt	ms	nh/0428_nh.bmp
589.68	0.72	810	5	5	97	mem	lib	mod	mod	low	tg	ht	wh/0646.bmp
590.40	0.72	811	5	7	19	mem	lib	mod	mod	mod	tg	ht	wh/0807.bmp
591.12	0.72	812	6	6	64	per	con	mod	mod	mod	tg	ht	wh/0876.bmp
591.84	0.72	813	5	6	102	mem	con	mod	mod	mod	tg	ms	wh/0187.bmp
592.56	0.72	814	1	5	87	mem	con	low	low	low	nt	ms	nh/0956_nh.bmp
593.28	0.72	815	6	6	102	mem	con	mod	mod	mod	tg	ms	wh/0187.bmp
594.00	0.72	816	6	7	113	mem	con	mod	mod	mod	tg	ht	wh/0810.bmp
594.72	0.72	817	5	6	27	mem	lib	mod	mod	mod	tg	ht	wh/0542.bmp
595.44	0.72	818	5	8	50	per	lib	mod	mod	mod	nt	fa	nh/0962_nh.bmp
596.16	0.72	819	1	5	19	per	con	mod	low	mod	nt	cr	nh/0652_nh.bmp
596.88	0.72	820	6	6	88	per	lib	mod	mod	mod	nt	cr	nh/0795_nh.bmp
597.60	0.72	821	6	5	97	mem	lib	mod	mod	low	tg	ht	wh/0646.bmp
598.32	0.72	822	6	8	122	mem	con	mod	mod	low	nt	ms	nh/0338_nh.bmp
599.04	0.72	823	6	8	119	mem	con	mod	mod	low	nt	ms	nh/0134_nh.bmp
599.76	0.72	824	5	6	18	mem	lib	mod	mod	mod	nt	ht	nh/0099_nh.bmp
600.48	0.72	825	5	5	63	mem	con	mod	mod	low	nt	ms	nh/0355_nh.bmp
601.20	0.72	826	6	8	54	per	lib	mod	mod	mod	tg	ht	wh/0350.bmp
601.92	0.72	827	6	5	69	per	lib	low	mod	low	tg	ht	wh/0635.bmp
602.64	0.72	828	6	8	123	mem	con	mod	mod	low	nt	ht	nh/0510_nh.bmp
603.36	0.72	829	6	6	20	mem	lib	mod	mod	mod	nt	ht	nh/0196_nh.bmp
604.08	0.72	830	6	7	80	per	lib	low	mod	low	nt	fa	nh/0802_nh.bmp
604.80	0.72	831	1	6	41	mem	lib	low	low	mod	nt	ht	nh/0092_nh.bmp
605.52	0.72	832	5	5	79	per	lib	low	mod	low	nt	fa	nh/0493_nh.bmp
606.24	0.72	833	5	8	23	mem	lib	mod	mod	low	tg	ht	wh/0036.bmp
606.96	0.72	834	6	5	54	mem	con	mod	mod	low	tg	ms	wh/0758.bmp
607.68	0.72	835	1	6	123	per	lib	low	low	low	nt	cr	nh/0536_nh.bmp
608.40	0.72	836	4	8	18	mem	lib	mod	mod	low	nt	ht	nh/0690_nh.bmp
609.12	0.72	837	5	6	86	per	lib	mod	mod	mod	tg	ht	wh/0902.bmp
609.84	0.72	838	6	6	24	mem	lib	mod	mod	mod	tg	ht	wh/0543.bmp
610.56	0.72	839	6	7	19	mem	lib	mod	mod	mod	tg	ht	wh/0807.bmp
611.28	0.72	840	5	8	62	per	lib	mod	mod	mod	nt	cr	nh/0957_nh.bmp
612.00	0.72	841	6	5	55	mem	con	mod	mod	low	tg	ms	wh/0351.bmp
612.72	0.72	842	5	8	18	mem	lib	mod	mod	low	nt	ht	nh/0690_nh.bmp
613.44	0.72	843	4	8	31	mem	lib	mod	mod	low	nt	ht	nh/0443_nh.bmp
614.16	0.72	844	1	8	101	per	con	low	low	low	tg	ms	wh/0579.bmp
614.88	0.72	845	5	8	124	mem	con	mod	mod	low	tg	ms	wh/0382.bmp
615.60	0.72	846	6	8	23	mem	lib	mod	mod	low	tg	ht	wh/0036.bmp
616.32	0.72	847	5	8	127	mem	con	mod	mod	low	tg	ht	wh/0329.bmp
617.04	0.72	848	6	7	126	mem	con	mod	mod	mod	tg	ms	wh/0650.bmp
617.76	0.72	849	6	6	86	per	lib	mod	mod	mod	tg	ht	wh/0902.bmp
618.48	0.72	850	6	5	65	per	lib	low	mod	low	tg	ht	wh/0964.bmp
619.20	0.72	851	6	6	27	mem	lib	mod	mod	mod	tg	ht	wh/0542.bmp
619.92	0.72	852	6	8	42	per	con	mod	mod	mod	tg	ht	wh/0973.bmp
620.64	0.72	853	5	8	31	mem	lib	mod	mod	low	nt	ht	nh/0443_nh.bmp
621.36	0.72	854	6	8	38	per	con	mod	mod	mod	nt	cr	nh/0784_nh.bmp
622.08	0.72	855	6	8	126	mem	con	mod	mod	low	tg	ht	wh/0284.bmp
622.80	0.72	856	6	7	78	per	lib	low	mod	low	tg	ms	wh/0079.bmp
623.52	0.72	857	6	8	44	per	con	mod	mod	mod	nt	cr	nh/0563_nh.bmp
624.24	0.72	858	6	8	50	per	lib	mod	mod	mod	nt	fa	nh/0962_nh.bmp
624.96	0.72	859	5	5	100	mem	lib	mod	mod	low	tg	ht	wh/0940.bmp
625.68	0.72	860	6	6	103	mem	con	mod	mod	mod	nt	ht	nh/0222_nh.bmp
626.40	0.72	861	6	7	124	mem	con	mod	mod	mod	nt	ms	nh/0273_nh.bmp
627.12	0.72	862	5	6	31	mem	lib	mod	mod	mod	tg	ht	wh/0594.bmp
627.84	0.72	863	6	8	18	mem	lib	mod	mod	low	nt	ht	nh/0690_nh.bmp
628.56	0.72	864	5	6	93	per	lib	mod	mod	mod	nt	n/a	nh/0684_nh.bmp
629.28	0.72	865	6	6	107	mem	con	mod	mod	mod	nt	ms	nh/0941_nh.bmp
630.00	0.72	866	6	8	24	mem	lib	mod	mod	low	tg	ht	wh/0818.bmp
630.72	0.72	867	6	5	63	mem	con	mod	mod	low	nt	ms	nh/0355_nh.bmp
631.44	0.72	868	1	5	81	mem	con	low	low	low	tg	ms	wh/0633.bmp
632.16	0.72	869	6	7	69	per	lib	low	mod	low	tg	ms	wh/0336.bmp
632.88	0.72	870	6	5	49	mem	con	mod	mod	low	nt	ms	nh/0404_nh.bmp
633.60	0.72	871	6	5	79	per	lib	low	mod	low	nt	fa	nh/0493_nh.bmp
634.32	0.72	872	6	6	31	mem	lib	mod	mod	mod	tg	ht	wh/0594.bmp
635.04	0.72	873	1	8	70	per	lib	low	low	low	tg	ht	wh/0112.bmp
635.76	0.72	874	6	6	18	mem	lib	mod	mod	mod	nt	ht	nh/0099_nh.bmp
636.48	0.72	875	6	8	62	per	lib	mod	mod	mod	nt	cr	nh/0957_nh.bmp
637.20	0.72	876	6	7	127	mem	con	mod	mod	mod	tg	ht	wh/0904.bmp
637.92	0.72	877	6	8	31	mem	lib	mod	mod	low	nt	ht	nh/0443_nh.bmp
638.64	0.72	878	6	5	100	mem	lib	mod	mod	low	tg	ht	wh/0940.bmp
639.36	0.72	879	5	8	49	per	lib	mod	mod	mod	tg	ht	wh/0339.bmp
640.08	0.72	880	1	5	8	mem	lib	low	low	low	nt	ht	nh/0225_nh.bmp
640.80	0.72	881	1	8	6	mem	con	low	low	mod	nt	ms	nh/0966_nh.bmp
641.52	0.72	882	1	5	124	per	lib	mod	low	mod	tg	ms	wh/0626.bmp
642.24	0.72	883	5	6	63	per	con	mod	mod	mod	nt	cr	nh/0396_nh.bmp
642.96	0.72	884	6	6	104	mem	con	mod	mod	mod	tg	ms	wh/0319.bmp
643.68	0.72	885	6	6	93	per	lib	mod	mod	mod	nt	n/a	nh/0684_nh.bmp
644.40	0.72	886	6	8	49	per	lib	mod	mod	mod	tg	ht	wh/0339.bmp
645.12	0.72	887	1	6	44	mem	lib	low	low	mod	nt	ht	nh/0277_nh.bmp
645.84	0.72	888	1	5	126	per	lib	mod	low	mod	tg	ht	wh/0096.bmp
646.56	0.72	889	1	5	22	per	con	mod	low	mod	nt	cr	nh/0721_nh.bmp
647.28	0.72	890	6	7	18	mem	lib	mod	mod	mod	tg	ht	wh/0540.bmp
648.00	0.72	891	1	7	98	mem	lib	low	low	low	nt	ms	nh/1009_nh.bmp
648.72	0.72	892	6	7	75	per	lib	low	mod	low	nt	fa	nh/0417_nh.bmp
649.44	0.72	893	6	8	124	mem	con	mod	mod	low	tg	ms	wh/0382.bmp
650.16	0.72	894	6	8	127	mem	con	mod	mod	low	tg	ht	wh/0329.bmp
650.88	0.72	895	6	8	20	mem	lib	mod	mod	low	nt	ht	nh/0760_nh.bmp
651.60	0.72	896	6	6	63	per	con	mod	mod	mod	nt	cr	nh/0396_nh.bmp
