onset	duration	block	trial	task	crit	disc	mem_disc	per_disc	trial_type	mem_type	per_type	left_option	resp_hand	response	accuracy	response_time	stim_file	pay	pay_tot
7.2	7.2	1	n/a	mem	lib	low	n/a	n/a	instructions	n/a	n/a	n/a	n/a	n/a	n/a	n/a	n/a	n/a	n/a
14.72	0.97378	1	1	mem	lib	low	low	low	nt	nt	tg	tg	left	tg	fa	0.57378	wh/0043.bmp	0	13.1
17.6	1.02181	1	2	mem	lib	low	low	low	tg	tg	tg	nt	right	tg	ht	0.62181	wh/0434.bmp	0.05	13.15
20.48	1.22999	1	3	mem	lib	low	low	low	tg	tg	nt	nt	right	tg	ht	0.82999	nh/0437_nh.bmp	0.05	13.2
23.36	1.17374	1	4	mem	lib	low	low	low	tg	tg	tg	nt	right	tg	ht	0.77374	wh/0013.bmp	0.05	13.25
26.24	0.99341	1	5	mem	lib	low	low	low	nt	nt	nt	nt	left	nt	cr	0.59341	nh/0636_nh.bmp	0.05	13.3
29.12	1.03009	1	6	mem	lib	low	low	low	tg	tg	tg	nt	left	nt	ms	0.63009	wh/0881.bmp	-0.1	13.2
33.44	0.97762	1	7	mem	lib	low	low	low	tg	tg	nt	nt	left	nt	ms	0.57762	nh/0731_nh.bmp	-0.1	13.1
37.76	1.00101	1	8	mem	lib	low	low	low	tg	tg	nt	nt	right	tg	ht	0.60101	nh/0225_nh.bmp	0.05	13.15
40.64	1.5379	1	9	mem	lib	low	low	low	nt	nt	tg	tg	left	tg	fa	1.1379	wh/0657.bmp	0	13.15
43.52	1.04426	1	10	mem	lib	low	low	low	tg	tg	nt	nt	right	tg	ht	0.64426	nh/0173_nh.bmp	0.05	13.2
47.12	1.32684	1	11	mem	lib	low	low	low	nt	nt	nt	nt	right	tg	fa	0.92684	nh/0728_nh.bmp	0	13.2
50	1.06972	1	12	mem	lib	low	low	low	nt	nt	nt	nt	left	nt	cr	0.66972	nh/0518_nh.bmp	0.05	13.25
52.88	1.14585	1	13	mem	lib	low	low	low	tg	tg	tg	tg	left	tg	ht	0.74585	wh/0460.bmp	0.05	13.3
57.2	1.05423	1	14	mem	lib	low	low	low	nt	nt	nt	tg	left	tg	fa	0.65423	nh/0106_nh.bmp	0	13.3
61.52	1.02853	1	15	mem	lib	low	low	low	nt	nt	tg	tg	left	tg	fa	0.62853	wh/0034.bmp	0	13.3
65.84	1.21385	1	16	mem	lib	low	low	low	nt	nt	tg	nt	right	tg	fa	0.81385	wh/0994.bmp	0	13.3
68.4	3.6	1	n/a	mem	lib	low	n/a	n/a	feedback	n/a	n/a	n/a	n/a	n/a	n/a	n/a	n/a	n/a	n/a
72	7.2	2	n/a	per	con	mod	n/a	n/a	instructions	n/a	n/a	n/a	n/a	n/a	n/a	n/a	n/a	n/a	n/a
80.24	1.34491	2	17	per	con	mod	low	mod	tg	tg	tg	nt	right	tg	ht	0.94491	wh/0281.bmp	0.05	13.35
83.12	1.27786	2	18	per	con	mod	low	mod	tg	tg	tg	nt	right	tg	ht	0.87786	wh/0774.bmp	0.05	13.4
86	1.37597	2	19	per	con	mod	low	mod	nt	tg	nt	tg	right	nt	cr	0.97597	nh/0652_nh.bmp	0.05	13.45
90.32	1.14481	2	20	per	con	mod	low	mod	nt	nt	nt	nt	left	nt	cr	0.74481	nh/0751_nh.bmp	0.05	13.5
93.2	1.23794	2	21	per	con	mod	low	mod	tg	nt	tg	tg	left	tg	ht	0.83794	wh/0373.bmp	0.05	13.55
96.08	1.09882	2	22	per	con	mod	low	mod	nt	tg	nt	tg	right	nt	cr	0.69882	nh/0721_nh.bmp	0.05	13.6
99.68	1.10843	2	23	per	con	mod	low	mod	nt	nt	nt	tg	right	nt	cr	0.70843	nh/0402_nh.bmp	0.05	13.65
104	1.17495	2	24	per	con	mod	low	mod	nt	nt	nt	nt	left	nt	cr	0.77495	nh/1016_nh.bmp	0.05	13.7
108.32	1.6768	2	25	per	con	mod	low	mod	tg	tg	tg	nt	left	nt	ms	1.2768	wh/0933.bmp	0	13.7
111.2	1.4089	2	26	per	con	mod	low	mod	nt	tg	nt	tg	right	nt	cr	1.0089	nh/0038_nh.bmp	0.05	13.75
115.52	1.5109	2	27	per	con	mod	low	mod	tg	nt	tg	tg	right	nt	ms	1.1109	wh/0980.bmp	0	13.75
118.4	1.21391	2	28	per	con	mod	low	mod	tg	nt	tg	nt	left	nt	ms	0.81391	wh/0945.bmp	0	13.75
121.28	1.25097	2	29	per	con	mod	low	mod	tg	nt	tg	tg	right	nt	ms	0.85097	wh/0688.bmp	0	13.75
125.6	1.2099	2	30	per	con	mod	low	mod	nt	nt	nt	nt	left	nt	cr	0.8099	nh/0622_nh.bmp	0.05	13.8
128.48	1.29784	2	31	per	con	mod	low	mod	nt	tg	nt	nt	left	nt	cr	0.89784	nh/0846_nh.bmp	0.05	13.85
131.36	0.92204	2	32	per	con	mod	low	mod	tg	tg	tg	nt	right	tg	ht	0.52204	wh/0900.bmp	0.05	13.9
133.92	3.6	2	n/a	per	con	mod	n/a	n/a	feedback	n/a	n/a	n/a	n/a	n/a	n/a	n/a	n/a	n/a	n/a
137.52	7.2	3	n/a	per	con	low	n/a	n/a	instructions	n/a	n/a	n/a	n/a	n/a	n/a	n/a	n/a	n/a	n/a
145.04	1.27089	3	33	per	con	low	mod	low	tg	nt	tg	tg	right	nt	ms	0.87089	wh/0164.bmp	0	13.9
147.92	1.00695	3	34	per	con	low	mod	low	nt	tg	nt	nt	left	nt	cr	0.60695	nh/0383_nh.bmp	0.05	13.95
152.24	1.18789	3	35	per	con	low	mod	low	nt	tg	nt	tg	right	nt	cr	0.78789	nh/0238_nh.bmp	0.05	14
155.84	1.22587	3	36	per	con	low	mod	low	nt	nt	nt	nt	left	nt	cr	0.82587	nh/0143_nh.bmp	0.05	14.05
159.44	1.16891	3	37	per	con	low	mod	low	nt	tg	nt	tg	right	nt	cr	0.76891	nh/0125_nh.bmp	0.05	14.1
162.32	1.24085	3	38	per	con	low	mod	low	tg	tg	tg	nt	left	nt	ms	0.84085	wh/0190.bmp	0	14.1
165.92	1.4539	3	39	per	con	low	mod	low	tg	nt	tg	tg	right	nt	ms	1.0539	wh/0247.bmp	0	14.1
170.24	1.3589	3	40	per	con	low	mod	low	tg	tg	tg	nt	left	nt	ms	0.9589	wh/0967.bmp	0	14.1
173.12	1.19792	3	41	per	con	low	mod	low	tg	tg	tg	tg	right	nt	ms	0.79792	wh/0075.bmp	0	14.1
176.72	1.4399	3	42	per	con	low	mod	low	nt	nt	nt	tg	right	nt	cr	1.0399	nh/0249_nh.bmp	0.05	14.15
179.6	1.27787	3	43	per	con	low	mod	low	nt	nt	nt	tg	right	nt	cr	0.87787	nh/0108_nh.bmp	0.05	14.2
182.48	1.32287	3	44	per	con	low	mod	low	tg	nt	tg	nt	left	nt	ms	0.92287	wh/0734.bmp	0	14.2
186.08	1.25788	3	45	per	con	low	mod	low	nt	nt	nt	tg	right	nt	cr	0.85788	nh/0262_nh.bmp	0.05	14.25
190.4	1.1122	3	46	per	con	low	mod	low	tg	tg	tg	tg	left	tg	ht	0.7122	wh/0074.bmp	0.05	14.3
193.28	1.20672	3	47	per	con	low	mod	low	nt	tg	nt	nt	left	nt	cr	0.80672	nh/0465_nh.bmp	0.05	14.35
196.16	1.02034	3	48	per	con	low	mod	low	tg	nt	tg	nt	left	nt	ms	0.62034	wh/0647.bmp	0	14.35
198.72	3.6	3	n/a	per	con	low	n/a	n/a	feedback	n/a	n/a	n/a	n/a	n/a	n/a	n/a	n/a	n/a	n/a
203.04	7.2	4	n/a	mem	con	mod	n/a	n/a	instructions	n/a	n/a	n/a	n/a	n/a	n/a	n/a	n/a	n/a	n/a
212	1.25789	4	49	mem	con	mod	mod	low	tg	tg	nt	tg	right	nt	ms	0.85789	nh/0404_nh.bmp	0	14.35
214.88	1.04231	4	50	mem	con	mod	mod	low	nt	nt	tg	nt	left	nt	cr	0.64231	wh/0114.bmp	0.05	14.4
217.76	0.95397	4	51	mem	con	mod	mod	low	nt	nt	nt	tg	right	nt	cr	0.55397	nh/0401_nh.bmp	0.05	14.45
221.36	1.17384	4	52	mem	con	mod	mod	low	nt	nt	tg	tg	right	nt	cr	0.77384	wh/0248.bmp	0.05	14.5
224.96	0.93537	4	53	mem	con	mod	mod	low	nt	nt	nt	nt	left	nt	cr	0.53537	nh/0394_nh.bmp	0.05	14.55
229.28	1.06102	4	54	mem	con	mod	mod	low	tg	tg	tg	nt	left	nt	ms	0.66102	wh/0758.bmp	0	14.55
233.6	1.08128	4	55	mem	con	mod	mod	low	tg	tg	tg	tg	right	nt	ms	0.68128	wh/0351.bmp	0	14.55
237.92	0.94991	4	56	mem	con	mod	mod	low	nt	nt	tg	tg	right	nt	cr	0.54991	wh/0814.bmp	0.05	14.6
242.24	0.88313	4	57	mem	con	mod	mod	low	tg	tg	tg	nt	left	nt	ms	0.48313	wh/0364.bmp	0	14.6
245.84	1.24293	4	58	mem	con	mod	mod	low	tg	tg	nt	nt	right	tg	ht	0.84293	nh/0730_nh.bmp	0.05	14.65
248.72	1.1409	4	59	mem	con	mod	mod	low	tg	tg	tg	nt	right	tg	ht	0.7409	wh/0256.bmp	0.05	14.7
251.6	1.21391	4	60	mem	con	mod	mod	low	nt	nt	nt	nt	right	tg	fa	0.81391	nh/0756_nh.bmp	-0.1	14.6
254.48	1.04369	4	61	mem	con	mod	mod	low	nt	nt	tg	nt	left	nt	cr	0.64369	wh/0176.bmp	0.05	14.65
258.08	1.10103	4	62	mem	con	mod	mod	low	tg	tg	nt	tg	left	tg	ht	0.70103	nh/0744_nh.bmp	0.05	14.7
260.96	1.2687	4	63	mem	con	mod	mod	low	tg	tg	nt	tg	right	nt	ms	0.8687	nh/0355_nh.bmp	0	14.7
264.56	1.35691	4	64	mem	con	mod	mod	low	nt	nt	nt	tg	left	tg	fa	0.95691	nh/0453_nh.bmp	-0.1	14.6
267.12	3.6	4	n/a	mem	con	mod	n/a	n/a	feedback	n/a	n/a	n/a	n/a	n/a	n/a	n/a	n/a	n/a	n/a
272.16	7.2	5	n/a	per	lib	low	n/a	n/a	instructions	n/a	n/a	n/a	n/a	n/a	n/a	n/a	n/a	n/a	n/a
279.68	1.31292	5	65	per	lib	low	mod	low	tg	tg	tg	tg	left	tg	ht	0.91292	wh/0964.bmp	0.05	14.65
284	1.35085	5	66	per	lib	low	mod	low	tg	nt	tg	nt	right	tg	ht	0.95085	wh/0042.bmp	0.05	14.7
286.88	1.07273	5	67	per	lib	low	mod	low	tg	tg	tg	tg	right	nt	ms	0.67273	wh/0082.bmp	-0.1	14.6
291.2	1.22187	5	68	per	lib	low	mod	low	nt	tg	nt	nt	left	nt	cr	0.82187	nh/0934_nh.bmp	0.05	14.65
294.08	1.08878	5	69	per	lib	low	mod	low	tg	tg	tg	nt	right	tg	ht	0.68878	wh/0635.bmp	0.05	14.7
296.96	1.04845	5	70	per	lib	low	mod	low	nt	nt	nt	nt	left	nt	cr	0.64845	nh/0450_nh.bmp	0.05	14.75
301.28	0.86849	5	71	per	lib	low	mod	low	nt	nt	nt	nt	right	tg	fa	0.46849	nh/0172_nh.bmp	0	14.75
304.16	1.04088	5	72	per	lib	low	mod	low	tg	nt	tg	nt	right	tg	ht	0.64088	wh/0848.bmp	0.05	14.8
307.04	1.17084	5	73	per	lib	low	mod	low	nt	tg	nt	tg	left	tg	fa	0.77084	nh/0123_nh.bmp	0	14.8
311.36	2.1498	5	74	per	lib	low	mod	low	nt	tg	nt	nt	right	tg	fa	1.7498	nh/1023_nh.bmp	0	14.8
314.96	1.27378	5	75	per	lib	low	mod	low	tg	nt	tg	tg	left	tg	ht	0.87378	wh/0939.bmp	0.05	14.85
319.28	0.93592	5	76	per	lib	low	mod	low	nt	nt	nt	tg	left	tg	fa	0.53592	nh/0388_nh.bmp	0	14.85
322.88	1.4238	5	77	per	lib	low	mod	low	tg	tg	tg	nt	right	tg	ht	1.0238	wh/0608.bmp	0.05	14.9
326.48	1.05789	5	78	per	lib	low	mod	low	tg	nt	tg	tg	left	tg	ht	0.65789	wh/0255.bmp	0.05	14.95
330.08	1.7739	5	79	per	lib	low	mod	low	nt	tg	nt	tg	left	tg	fa	1.3739	nh/0493_nh.bmp	0	14.95
334.4	1.25093	5	80	per	lib	low	mod	low	nt	nt	nt	nt	left	nt	cr	0.85093	nh/0521_nh.bmp	0.05	15
336.96	3.6	5	n/a	per	lib	low	n/a	n/a	feedback	n/a	n/a	n/a	n/a	n/a	n/a	n/a	n/a	n/a	n/a
341.28	7.2	6	n/a	mem	con	low	n/a	n/a	instructions	n/a	n/a	n/a	n/a	n/a	n/a	n/a	n/a	n/a	n/a
349.52	1.39393	6	81	mem	con	low	low	low	tg	tg	tg	tg	right	nt	ms	0.99393	wh/0633.bmp	0	15
353.84	0.99757	6	82	mem	con	low	low	low	nt	nt	nt	nt	left	nt	cr	0.59757	nh/0258_nh.bmp	0.05	15.05
357.44	0.98242	6	83	mem	con	low	low	low	tg	tg	nt	nt	left	nt	ms	0.58242	nh/0812_nh.bmp	0	15.05
361.76	1.04154	6	84	mem	con	low	low	low	nt	nt	tg	tg	left	tg	fa	0.64154	wh/0865.bmp	-0.1	14.95
364.64	1.1407	6	85	mem	con	low	low	low	nt	nt	tg	nt	left	nt	cr	0.7407	wh/0285.bmp	0.05	15
367.52	0.9865	6	86	mem	con	low	low	low	nt	nt	nt	tg	right	nt	cr	0.5865	nh/0482_nh.bmp	0.05	15.05
370.4	0.9962	6	87	mem	con	low	low	low	tg	tg	nt	tg	right	nt	ms	0.5962	nh/0956_nh.bmp	0	15.05
373.28	0.94961	6	88	mem	con	low	low	low	nt	nt	tg	tg	right	nt	cr	0.54961	wh/0136.bmp	0.05	15.1
376.16	1.05855	6	89	mem	con	low	low	low	tg	tg	nt	nt	left	nt	ms	0.65855	nh/0384_nh.bmp	0	15.1
379.04	1.00717	6	90	mem	con	low	low	low	nt	nt	tg	nt	left	nt	cr	0.60717	wh/0468.bmp	0.05	15.15
382.64	1.26376	6	91	mem	con	low	low	low	tg	tg	nt	nt	left	nt	ms	0.86376	nh/0804_nh.bmp	0	15.15
385.52	1.36288	6	92	mem	con	low	low	low	nt	nt	nt	tg	right	nt	cr	0.96288	nh/1015_nh.bmp	0.05	15.2
389.12	1.5069	6	93	mem	con	low	low	low	nt	nt	nt	tg	right	nt	cr	1.1069	nh/0154_nh.bmp	0.05	15.25
392.72	1.14899	6	94	mem	con	low	low	low	tg	tg	tg	nt	right	tg	ht	0.74899	wh/0823.bmp	0.05	15.3
395.6	1.07183	6	95	mem	con	low	low	low	tg	tg	tg	nt	left	nt	ms	0.67183	wh/0507.bmp	0	15.3
398.48	1.20578	6	96	mem	con	low	low	low	tg	tg	tg	nt	left	nt	ms	0.80578	wh/0998.bmp	0	15.3
401.04	3.6	6	n/a	mem	con	low	n/a	n/a	feedback	n/a	n/a	n/a	n/a	n/a	n/a	n/a	n/a	n/a	n/a
404.64	7.2	7	n/a	mem	lib	mod	n/a	n/a	instructions	n/a	n/a	n/a	n/a	n/a	n/a	n/a	n/a	n/a	n/a
412.16	0.85371	7	97	mem	lib	mod	mod	low	tg	tg	tg	nt	right	tg	ht	0.45371	wh/0646.bmp	0.05	15.35
415.04	1.02307	7	98	mem	lib	mod	mod	low	nt	nt	nt	tg	right	nt	cr	0.62307	nh/0883_nh.bmp	0.05	15.4
419.36	1.14494	7	99	mem	lib	mod	mod	low	nt	nt	nt	tg	left	tg	fa	0.74494	nh/0157_nh.bmp	0	15.4
422.24	0.95557	7	100	mem	lib	mod	mod	low	tg	tg	tg	nt	right	tg	ht	0.55557	wh/0940.bmp	0.05	15.45
425.84	1.09046	7	101	mem	lib	mod	mod	low	tg	tg	nt	nt	right	tg	ht	0.69046	nh/0660_nh.bmp	0.05	15.5
430.16	0.92863	7	102	mem	lib	mod	mod	low	tg	tg	tg	tg	left	tg	ht	0.52863	wh/0080.bmp	0.05	15.55
433.04	1.14591	7	103	mem	lib	mod	mod	low	tg	tg	tg	nt	right	tg	ht	0.74591	wh/0032.bmp	0.05	15.6
435.92	1.29075	7	104	mem	lib	mod	mod	low	tg	tg	nt	nt	right	tg	ht	0.89075	nh/0035_nh.bmp	0.05	15.65
438.8	1.14479	7	105	mem	lib	mod	mod	low	tg	tg	nt	tg	left	tg	ht	0.74479	nh/0963_nh.bmp	0.05	15.7
443.12	1.16088	7	106	mem	lib	mod	mod	low	nt	nt	tg	tg	left	tg	fa	0.76088	wh/0519.bmp	0	15.7
447.44	1.13787	7	107	mem	lib	mod	mod	low	nt	nt	nt	nt	left	nt	cr	0.73787	nh/0253_nh.bmp	0.05	15.75
450.32	1.01774	7	108	mem	lib	mod	mod	low	nt	nt	tg	tg	left	tg	fa	0.61774	wh/0024.bmp	0	15.75
453.2	1.17891	7	109	mem	lib	mod	mod	low	nt	nt	tg	nt	right	tg	fa	0.77891	wh/0612.bmp	0	15.75
457.52	1.04762	7	110	mem	lib	mod	mod	low	nt	nt	nt	tg	left	tg	fa	0.64762	nh/0297_nh.bmp	0	15.75
460.4	1.579	7	111	mem	lib	mod	mod	low	tg	tg	nt	nt	right	tg	ht	1.179	nh/0194_nh.bmp	0.05	15.8
463.28	1.4168	7	112	mem	lib	mod	mod	low	nt	nt	tg	tg	right	nt	cr	1.0168	wh/0863.bmp	0.05	15.85
465.84	3.6	7	n/a	mem	lib	mod	n/a	n/a	feedback	n/a	n/a	n/a	n/a	n/a	n/a	n/a	n/a	n/a	n/a
469.44	7.2	8	n/a	per	lib	mod	n/a	n/a	instructions	n/a	n/a	n/a	n/a	n/a	n/a	n/a	n/a	n/a	n/a
476.96	1.31088	8	113	per	lib	mod	low	mod	nt	nt	nt	nt	right	tg	fa	0.91088	nh/0611_nh.bmp	0	15.85
480.56	1.15679	8	114	per	lib	mod	low	mod	tg	tg	tg	tg	left	tg	ht	0.75679	wh/0426.bmp	0.05	15.9
483.44	1.27295	8	115	per	lib	mod	low	mod	nt	tg	nt	nt	left	nt	cr	0.87295	nh/0729_nh.bmp	0.05	15.95
487.04	1.5679	8	116	per	lib	mod	low	mod	tg	nt	tg	nt	right	tg	ht	1.1679	wh/0227.bmp	0.05	16
489.92	1.09403	8	117	per	lib	mod	low	mod	nt	nt	nt	tg	left	tg	fa	0.69403	nh/0186_nh.bmp	0	16
494.24	1.37375	8	118	per	lib	mod	low	mod	tg	nt	tg	nt	right	tg	ht	0.97375	wh/0347.bmp	0.05	16.05
497.12	1.21489	8	119	per	lib	mod	low	mod	nt	nt	nt	nt	right	tg	fa	0.81489	nh/0349_nh.bmp	0	16.05
500	1.19195	8	120	per	lib	mod	low	mod	nt	tg	nt	tg	right	nt	cr	0.79195	nh/0044_nh.bmp	0.05	16.1
504.32	1.2338	8	121	per	lib	mod	low	mod	tg	nt	tg	tg	right	nt	ms	0.8338	wh/0046.bmp	-0.1	16
507.2	1.14786	8	122	per	lib	mod	low	mod	tg	tg	tg	nt	right	tg	ht	0.74786	wh/0569.bmp	0.05	16.05
510.8	1.31273	8	123	per	lib	mod	low	mod	nt	tg	nt	nt	left	nt	cr	0.91273	nh/0306_nh.bmp	0.05	16.1
513.68	1.34986	8	124	per	lib	mod	low	mod	tg	tg	tg	nt	left	nt	ms	0.94986	wh/0626.bmp	-0.1	16
517.28	1.26281	8	125	per	lib	mod	low	mod	nt	nt	nt	tg	left	tg	fa	0.86281	nh/0839_nh.bmp	0	16
521.6	0.941	8	126	per	lib	mod	low	mod	tg	tg	tg	nt	right	tg	ht	0.541	wh/0096.bmp	0.05	16.05
524.48	0.95985	8	127	per	lib	mod	low	mod	tg	nt	tg	nt	right	tg	ht	0.55985	wh/0921.bmp	0.05	16.1
528.08	1.20288	8	128	per	lib	mod	low	mod	nt	tg	nt	tg	left	tg	fa	0.80288	nh/0693_nh.bmp	0	16.1
530.64	3.6	8	n/a	per	lib	mod	n/a	n/a	feedback	n/a	n/a	n/a	n/a	n/a	n/a	n/a	n/a	n/a	n/a
