onset	duration	block	trial	task	crit	disc	mem_disc	per_disc	trial_type	mem_type	per_type	left_option	resp_hand	response	accuracy	response_time	stim_file	pay	pay_tot
7.2	7.2	1	n/a	mem	lib	mod	n/a	n/a	instructions	n/a	n/a	n/a	n/a	n/a	n/a	n/a	n/a	n/a	n/a
14.72	0.912	1	1	mem	lib	mod	mod	low	nt	nt	tg	nt	right	tg	fa	0.512	wh/0111.bmp	0	13.15
17.6	0.89923	1	2	mem	lib	mod	mod	low	nt	nt	nt	nt	right	tg	fa	0.49923	nh/0780_nh.bmp	0	13.15
20.48	0.85886	1	3	mem	lib	mod	mod	low	nt	nt	nt	tg	left	tg	fa	0.45886	nh/0139_nh.bmp	0	13.15
23.36	0.87179	1	4	mem	lib	mod	mod	low	tg	tg	nt	tg	left	tg	ht	0.47179	nh/0417_nh.bmp	0.05	13.2
26.24	0.92239	1	5	mem	lib	mod	mod	low	tg	tg	nt	tg	left	tg	ht	0.52239	nh/0613_nh.bmp	0.05	13.25
29.84	0.87169	1	6	mem	lib	mod	mod	low	tg	tg	tg	nt	right	tg	ht	0.47169	wh/0079.bmp	0.05	13.3
32.72	0.8069	1	7	mem	lib	mod	mod	low	nt	nt	tg	tg	left	tg	fa	0.4069	wh/0064.bmp	0	13.3
35.6	0.97846	1	8	mem	lib	mod	mod	low	nt	nt	nt	tg	left	tg	fa	0.57846	nh/0012_nh.bmp	0	13.3
38.48	1.13889	1	9	mem	lib	mod	mod	low	nt	nt	tg	tg	right	nt	cr	0.73889	wh/1014.bmp	0.05	13.35
41.36	0.89639	1	10	mem	lib	mod	mod	low	tg	tg	tg	tg	left	tg	ht	0.49639	wh/0336.bmp	0.05	13.4
44.96	0.87099	1	11	mem	lib	mod	mod	low	nt	nt	tg	tg	left	tg	fa	0.47099	wh/0640.bmp	0	13.4
48.56	0.93509	1	12	mem	lib	mod	mod	low	nt	nt	nt	tg	left	tg	fa	0.53509	nh/0254_nh.bmp	0	13.4
52.88	1.0119	1	13	mem	lib	mod	mod	low	tg	tg	tg	tg	left	tg	ht	0.6119	wh/0150.bmp	0.05	13.45
56.48	0.91712	1	14	mem	lib	mod	mod	low	tg	tg	nt	tg	left	tg	ht	0.51712	nh/0153_nh.bmp	0.05	13.5
60.8	0.9848	1	15	mem	lib	mod	mod	low	tg	tg	nt	nt	right	tg	ht	0.5848	nh/0802_nh.bmp	0.05	13.55
63.68	1.07642	1	16	mem	lib	mod	mod	low	tg	tg	tg	nt	right	tg	ht	0.67642	wh/0451.bmp	0.05	13.6
67.68	3.6	1	n/a	mem	lib	mod	n/a	n/a	feedback	n/a	n/a	n/a	n/a	n/a	n/a	n/a	n/a	n/a	n/a
71.28	7.2	2	n/a	mem	con	mod	n/a	n/a	instructions	n/a	n/a	n/a	n/a	n/a	n/a	n/a	n/a	n/a	n/a
78.8	0.93102	2	17	mem	con	mod	mod	mod	tg	tg	tg	nt	left	nt	ms	0.53102	wh/0462.bmp	0	13.6
81.68	1.07338	2	18	mem	con	mod	mod	mod	tg	tg	tg	tg	right	nt	ms	0.67338	wh/0947.bmp	0	13.6
86	1.26074	2	19	mem	con	mod	mod	mod	nt	nt	tg	nt	left	nt	cr	0.86074	wh/0952.bmp	0.05	13.65
88.88	0.95714	2	20	mem	con	mod	mod	mod	tg	tg	tg	tg	right	nt	ms	0.55714	wh/0397.bmp	0	13.65
93.2	0.86835	2	21	mem	con	mod	mod	mod	tg	tg	nt	nt	left	nt	ms	0.46835	nh/0784_nh.bmp	0	13.65
96.8	0.92516	2	22	mem	con	mod	mod	mod	nt	nt	nt	tg	right	nt	cr	0.52516	nh/0694_nh.bmp	0.05	13.7
99.68	0.94077	2	23	mem	con	mod	mod	mod	nt	nt	nt	tg	right	nt	cr	0.54077	nh/0603_nh.bmp	0.05	13.75
103.28	0.94693	2	24	mem	con	mod	mod	mod	tg	tg	nt	tg	right	nt	ms	0.54693	nh/0563_nh.bmp	0	13.75
106.16	1.19191	2	25	mem	con	mod	mod	mod	nt	nt	tg	tg	right	nt	cr	0.79191	wh/0020.bmp	0.05	13.8
109.04	1.1847	2	26	mem	con	mod	mod	mod	tg	tg	tg	tg	left	tg	ht	0.7847	wh/0973.bmp	0.05	13.85
111.92	0.97842	2	27	mem	con	mod	mod	mod	nt	nt	nt	nt	left	nt	cr	0.57842	nh/0556_nh.bmp	0.05	13.9
114.8	1.29287	2	28	mem	con	mod	mod	mod	nt	nt	tg	tg	right	nt	cr	0.89287	wh/0378.bmp	0.05	13.95
117.68	1.37192	2	29	mem	con	mod	mod	mod	tg	tg	nt	tg	right	nt	ms	0.97192	nh/0447_nh.bmp	0	13.95
120.56	1.09029	2	30	mem	con	mod	mod	mod	nt	nt	nt	tg	right	nt	cr	0.69029	nh/0239_nh.bmp	0.05	14
123.44	1.7219	2	31	mem	con	mod	mod	mod	nt	nt	tg	tg	right	nt	cr	1.3219	wh/0717.bmp	0.05	14.05
127.76	0.98806	2	32	mem	con	mod	mod	mod	tg	tg	nt	nt	left	nt	ms	0.58806	nh/0548_nh.bmp	0	14.05
131.04	3.6	2	n/a	mem	con	mod	n/a	n/a	feedback	n/a	n/a	n/a	n/a	n/a	n/a	n/a	n/a	n/a	n/a
135.36	7.2	3	n/a	per	con	low	n/a	n/a	instructions	n/a	n/a	n/a	n/a	n/a	n/a	n/a	n/a	n/a	n/a
143.6	1.3798	3	33	per	con	low	low	low	nt	tg	nt	nt	left	nt	cr	0.9798	nh/0055_nh.bmp	0.05	14.1
147.2	0.97914	3	34	per	con	low	low	low	nt	tg	nt	tg	right	nt	cr	0.57914	nh/0768_nh.bmp	0.05	14.15
150.08	1.38492	3	35	per	con	low	low	low	nt	nt	nt	nt	right	tg	fa	0.98492	nh/0352_nh.bmp	-0.1	14.05
154.4	1.12594	3	36	per	con	low	low	low	nt	tg	nt	tg	right	nt	cr	0.72594	nh/0261_nh.bmp	0.05	14.1
158.72	1.06721	3	37	per	con	low	low	low	tg	nt	tg	tg	left	tg	ht	0.66721	wh/0135.bmp	0.05	14.15
162.32	0.97968	3	38	per	con	low	low	low	tg	tg	tg	nt	left	nt	ms	0.57968	wh/0706.bmp	0	14.15
165.92	0.98472	3	39	per	con	low	low	low	nt	nt	nt	tg	right	nt	cr	0.58472	nh/0767_nh.bmp	0.05	14.2
169.52	1.1429	3	40	per	con	low	low	low	tg	tg	tg	nt	left	nt	ms	0.7429	wh/0458.bmp	0	14.2
173.12	1.05875	3	41	per	con	low	low	low	nt	nt	nt	tg	right	nt	cr	0.65875	nh/0480_nh.bmp	0.05	14.25
176	1.04786	3	42	per	con	low	low	low	tg	nt	tg	tg	right	nt	ms	0.64786	wh/0260.bmp	0	14.25
178.88	1.02071	3	43	per	con	low	low	low	nt	tg	nt	tg	right	nt	cr	0.62071	nh/0433_nh.bmp	0.05	14.3
181.76	0.96885	3	44	per	con	low	low	low	tg	nt	tg	nt	left	nt	ms	0.56885	wh/0566.bmp	0	14.3
186.08	1.9158	3	45	per	con	low	low	low	tg	tg	tg	tg	right	nt	ms	1.5158	wh/0845.bmp	0	14.3
188.96	1.03155	3	46	per	con	low	low	low	tg	tg	tg	tg	right	nt	ms	0.63155	wh/0513.bmp	0	14.3
192.56	1.22187	3	47	per	con	low	low	low	nt	nt	nt	tg	right	nt	cr	0.82187	nh/0376_nh.bmp	0.05	14.35
195.44	1.7039	3	48	per	con	low	low	low	tg	nt	tg	tg	right	nt	ms	1.3039	wh/0268.bmp	0	14.35
198	3.6	3	n/a	per	con	low	n/a	n/a	feedback	n/a	n/a	n/a	n/a	n/a	n/a	n/a	n/a	n/a	n/a
201.6	7.2	4	n/a	per	lib	low	n/a	n/a	instructions	n/a	n/a	n/a	n/a	n/a	n/a	n/a	n/a	n/a	n/a
209.84	0.99129	4	49	per	lib	low	mod	low	tg	nt	tg	tg	left	tg	ht	0.59129	wh/0165.bmp	0.05	14.4
212.72	0.87814	4	50	per	lib	low	mod	low	nt	tg	nt	nt	right	tg	fa	0.47814	nh/0361_nh.bmp	0	14.4
215.6	0.90017	4	51	per	lib	low	mod	low	nt	tg	nt	tg	left	tg	fa	0.50017	nh/0690_nh.bmp	0	14.4
219.2	1.24191	4	52	per	lib	low	mod	low	nt	tg	nt	tg	right	nt	cr	0.84191	nh/0760_nh.bmp	0.05	14.45
222.08	1.7879	4	53	per	lib	low	mod	low	nt	nt	nt	nt	right	tg	fa	1.3879	nh/0793_nh.bmp	0	14.45
224.96	1.00664	4	54	per	lib	low	mod	low	nt	tg	nt	nt	left	nt	cr	0.60664	nh/0443_nh.bmp	0.05	14.5
227.84	1.00323	4	55	per	lib	low	mod	low	tg	tg	tg	nt	right	tg	ht	0.60323	wh/0036.bmp	0.05	14.55
230.72	0.92421	4	56	per	lib	low	mod	low	tg	nt	tg	tg	left	tg	ht	0.52421	wh/0374.bmp	0.05	14.6
234.32	1.07397	4	57	per	lib	low	mod	low	tg	nt	tg	nt	right	tg	ht	0.67397	wh/0578.bmp	0.05	14.65
238.64	1.01972	4	58	per	lib	low	mod	low	tg	tg	tg	nt	right	tg	ht	0.61972	wh/0077.bmp	0.05	14.7
241.52	0.99548	4	59	per	lib	low	mod	low	nt	nt	nt	tg	left	tg	fa	0.59548	nh/0403_nh.bmp	0	14.7
245.84	1.00115	4	60	per	lib	low	mod	low	tg	nt	tg	nt	right	tg	ht	0.60115	wh/0193.bmp	0.05	14.75
248.72	1.01578	4	61	per	lib	low	mod	low	tg	tg	tg	nt	right	tg	ht	0.61578	wh/0818.bmp	0.05	14.8
253.04	1.32184	4	62	per	lib	low	mod	low	nt	nt	nt	nt	left	nt	cr	0.92184	nh/0746_nh.bmp	0.05	14.85
257.36	1.5128	4	63	per	lib	low	mod	low	nt	nt	nt	tg	left	tg	fa	1.1128	nh/0118_nh.bmp	0	14.85
261.68	1.06033	4	64	per	lib	low	mod	low	tg	tg	tg	nt	left	nt	ms	0.66033	wh/0232.bmp	-0.1	14.75
264.24	3.6	4	n/a	per	lib	low	n/a	n/a	feedback	n/a	n/a	n/a	n/a	n/a	n/a	n/a	n/a	n/a	n/a
267.84	7.2	5	n/a	mem	con	low	n/a	n/a	instructions	n/a	n/a	n/a	n/a	n/a	n/a	n/a	n/a	n/a	n/a
276.8	0.85713	5	65	mem	con	low	low	mod	nt	nt	tg	nt	left	nt	cr	0.45713	wh/0308.bmp	0.05	14.8
281.12	1.2099	5	66	mem	con	low	low	mod	tg	tg	tg	nt	left	nt	ms	0.8099	wh/0669.bmp	0	14.8
284	0.99953	5	67	mem	con	low	low	mod	nt	nt	nt	tg	right	nt	cr	0.59953	nh/0418_nh.bmp	0.05	14.85
286.88	1.20191	5	68	mem	con	low	low	mod	nt	nt	tg	tg	right	nt	cr	0.80191	wh/0869.bmp	0.05	14.9
290.48	0.96821	5	69	mem	con	low	low	mod	nt	nt	nt	tg	right	nt	cr	0.56821	nh/0188_nh.bmp	0.05	14.95
293.36	1.13391	5	70	mem	con	low	low	mod	tg	tg	tg	tg	right	nt	ms	0.73391	wh/0598.bmp	0	14.95
296.24	0.85459	5	71	mem	con	low	low	mod	tg	tg	tg	nt	left	nt	ms	0.45459	wh/0059.bmp	0	14.95
299.12	0.86249	5	72	mem	con	low	low	mod	tg	tg	nt	tg	right	nt	ms	0.46249	nh/0782_nh.bmp	0	14.95
302	0.86615	5	73	mem	con	low	low	mod	nt	nt	nt	tg	right	nt	cr	0.46615	nh/0093_nh.bmp	0.05	15
305.6	0.81358	5	74	mem	con	low	low	mod	nt	nt	tg	tg	right	nt	cr	0.41358	wh/0779.bmp	0.05	15.05
309.2	1.08084	5	75	mem	con	low	low	mod	nt	nt	nt	nt	left	nt	cr	0.68084	nh/0951_nh.bmp	0.05	15.1
313.52	1.5499	5	76	mem	con	low	low	mod	tg	tg	nt	nt	left	nt	ms	1.1499	nh/0340_nh.bmp	0	15.1
316.4	1.27782	5	77	mem	con	low	low	mod	tg	tg	tg	nt	left	nt	ms	0.87782	wh/0290.bmp	0	15.1
320.72	0.81627	5	78	mem	con	low	low	mod	tg	tg	nt	nt	left	nt	ms	0.41627	nh/0316_nh.bmp	0	15.1
323.6	0.89593	5	79	mem	con	low	low	mod	nt	nt	tg	tg	right	nt	cr	0.49593	wh/0953.bmp	0.05	15.15
326.48	0.94828	5	80	mem	con	low	low	mod	tg	tg	nt	tg	right	nt	ms	0.54828	nh/0708_nh.bmp	0	15.15
330.48	3.6	5	n/a	mem	con	low	n/a	n/a	feedback	n/a	n/a	n/a	n/a	n/a	n/a	n/a	n/a	n/a	n/a
335.52	7.2	6	n/a	per	con	mod	n/a	n/a	instructions	n/a	n/a	n/a	n/a	n/a	n/a	n/a	n/a	n/a	n/a
343.04	1.06587	6	81	per	con	mod	mod	mod	nt	nt	nt	nt	left	nt	cr	0.66587	nh/0599_nh.bmp	0.05	15.2
345.92	1.34791	6	82	per	con	mod	mod	mod	tg	tg	tg	tg	right	nt	ms	0.94791	wh/0904.bmp	0	15.2
348.8	0.98523	6	83	per	con	mod	mod	mod	nt	nt	nt	nt	left	nt	cr	0.58523	nh/0408_nh.bmp	0.05	15.25
351.68	1.05589	6	84	per	con	mod	mod	mod	tg	nt	tg	tg	left	tg	ht	0.65589	wh/0337.bmp	0.05	15.3
356	1.19885	6	85	per	con	mod	mod	mod	nt	tg	nt	nt	left	nt	cr	0.79885	nh/0428_nh.bmp	0.05	15.35
358.88	1.18088	6	86	per	con	mod	mod	mod	tg	tg	tg	tg	right	nt	ms	0.78088	wh/0810.bmp	0	15.35
361.76	1.05027	6	87	per	con	mod	mod	mod	nt	tg	nt	tg	right	nt	cr	0.65027	nh/0209_nh.bmp	0.05	15.4
365.36	0.98802	6	88	per	con	mod	mod	mod	tg	nt	tg	nt	left	nt	ms	0.58802	wh/0995.bmp	0	15.4
368.24	1.14788	6	89	per	con	mod	mod	mod	tg	tg	tg	tg	right	nt	ms	0.74788	wh/0182.bmp	0	15.4
371.84	0.92059	6	90	per	con	mod	mod	mod	tg	tg	tg	nt	left	nt	ms	0.52059	wh/0650.bmp	0	15.4
374.72	1.34989	6	91	per	con	mod	mod	mod	tg	nt	tg	nt	left	nt	ms	0.94989	wh/0623.bmp	0	15.4
377.6	1.01041	6	92	per	con	mod	mod	mod	nt	nt	nt	nt	left	nt	cr	0.61041	nh/0833_nh.bmp	0.05	15.45
380.48	1.18395	6	93	per	con	mod	mod	mod	nt	tg	nt	nt	right	tg	fa	0.78395	nh/0805_nh.bmp	-0.1	15.35
384.08	1.9589	6	94	per	con	mod	mod	mod	tg	nt	tg	tg	left	tg	ht	1.5589	wh/0560.bmp	0.05	15.4
386.96	1.12488	6	95	per	con	mod	mod	mod	nt	tg	nt	nt	left	nt	cr	0.72488	nh/0273_nh.bmp	0.05	15.45
390.56	1.04679	6	96	per	con	mod	mod	mod	nt	nt	nt	tg	right	nt	cr	0.64679	nh/0797_nh.bmp	0.05	15.5
393.12	3.6	6	n/a	per	con	mod	n/a	n/a	feedback	n/a	n/a	n/a	n/a	n/a	n/a	n/a	n/a	n/a	n/a
398.16	7.2	7	n/a	mem	lib	low	n/a	n/a	instructions	n/a	n/a	n/a	n/a	n/a	n/a	n/a	n/a	n/a	n/a
407.12	0.92463	7	97	mem	lib	low	low	low	nt	nt	tg	tg	left	tg	fa	0.52463	wh/0175.bmp	0	15.5
410	1.03288	7	98	mem	lib	low	low	low	tg	tg	tg	tg	right	nt	ms	0.63288	wh/0999.bmp	-0.1	15.4
413.6	0.81173	7	99	mem	lib	low	low	low	tg	tg	tg	tg	left	tg	ht	0.41173	wh/0112.bmp	0.05	15.45
416.48	0.79051	7	100	mem	lib	low	low	low	nt	nt	nt	tg	left	tg	fa	0.39051	nh/0360_nh.bmp	0	15.45
419.36	0.89732	7	101	mem	lib	low	low	low	nt	nt	tg	tg	left	tg	fa	0.49732	wh/0138.bmp	0	15.45
422.24	0.92496	7	102	mem	lib	low	low	low	tg	tg	tg	tg	left	tg	ht	0.52496	wh/1007.bmp	0.05	15.5
425.12	0.8665	7	103	mem	lib	low	low	low	tg	tg	nt	tg	left	tg	ht	0.4665	nh/0215_nh.bmp	0.05	15.55
428	0.79501	7	104	mem	lib	low	low	low	nt	nt	tg	tg	left	tg	fa	0.39501	wh/0825.bmp	0	15.55
430.88	0.95688	7	105	mem	lib	low	low	low	tg	tg	tg	nt	right	tg	ht	0.55688	wh/0431.bmp	0.05	15.6
433.76	0.79041	7	106	mem	lib	low	low	low	tg	tg	nt	tg	left	tg	ht	0.39041	nh/0148_nh.bmp	0.05	15.65
436.64	0.81775	7	107	mem	lib	low	low	low	nt	nt	nt	nt	right	tg	fa	0.41775	nh/0842_nh.bmp	0	15.65
439.52	0.92335	7	108	mem	lib	low	low	low	tg	tg	nt	tg	left	tg	ht	0.52335	nh/0528_nh.bmp	0.05	15.7
442.4	0.94635	7	109	mem	lib	low	low	low	nt	nt	tg	tg	left	tg	fa	0.54635	wh/0677.bmp	0	15.7
445.28	0.99896	7	110	mem	lib	low	low	low	nt	nt	nt	tg	left	tg	fa	0.59896	nh/0676_nh.bmp	0	15.7
448.16	0.82628	7	111	mem	lib	low	low	low	nt	nt	nt	tg	left	tg	fa	0.42628	nh/0859_nh.bmp	0	15.7
451.04	0.89652	7	112	mem	lib	low	low	low	tg	tg	nt	nt	right	tg	ht	0.49652	nh/0488_nh.bmp	0.05	15.75
455.04	3.6	7	n/a	mem	lib	low	n/a	n/a	feedback	n/a	n/a	n/a	n/a	n/a	n/a	n/a	n/a	n/a	n/a
458.64	7.2	8	n/a	per	lib	mod	n/a	n/a	instructions	n/a	n/a	n/a	n/a	n/a	n/a	n/a	n/a	n/a	n/a
467.6	0.91264	8	113	per	lib	mod	low	mod	nt	tg	nt	tg	left	tg	fa	0.51264	nh/0849_nh.bmp	0	15.75
471.2	0.96193	8	114	per	lib	mod	low	mod	tg	tg	tg	nt	right	tg	ht	0.56193	wh/0736.bmp	0.05	15.8
474.08	1.20089	8	115	per	lib	mod	low	mod	tg	tg	tg	tg	left	tg	ht	0.80089	wh/1018.bmp	0.05	15.85
476.96	1.02769	8	116	per	lib	mod	low	mod	tg	nt	tg	tg	left	tg	ht	0.62769	wh/1008.bmp	0.05	15.9
479.84	0.98843	8	117	per	lib	mod	low	mod	tg	nt	tg	nt	right	tg	ht	0.58843	wh/0389.bmp	0.05	15.95
483.44	1.02548	8	118	per	lib	mod	low	mod	nt	tg	nt	tg	right	nt	cr	0.62548	nh/1024_nh.bmp	0.05	16
487.76	1.3619	8	119	per	lib	mod	low	mod	nt	nt	nt	tg	right	nt	cr	0.9619	nh/0631_nh.bmp	0.05	16.05
490.64	1.06431	8	120	per	lib	mod	low	mod	tg	tg	tg	tg	left	tg	ht	0.66431	wh/0781.bmp	0.05	16.1
494.24	1.01048	8	121	per	lib	mod	low	mod	nt	tg	nt	tg	left	tg	fa	0.61048	nh/0461_nh.bmp	0	16.1
497.12	0.94695	8	122	per	lib	mod	low	mod	nt	tg	nt	tg	left	tg	fa	0.54695	nh/0949_nh.bmp	0	16.1
500.72	1.01833	8	123	per	lib	mod	low	mod	nt	nt	nt	nt	left	nt	cr	0.61833	nh/0101_nh.bmp	0.05	16.15
503.6	1.04757	8	124	per	lib	mod	low	mod	tg	nt	tg	nt	left	nt	ms	0.64757	wh/0668.bmp	-0.1	16.05
507.2	1.34285	8	125	per	lib	mod	low	mod	nt	nt	nt	tg	left	tg	fa	0.94285	nh/0532_nh.bmp	0	16.05
510.08	1.16392	8	126	per	lib	mod	low	mod	tg	nt	tg	tg	left	tg	ht	0.76392	wh/0840.bmp	0.05	16.1
512.96	1.01999	8	127	per	lib	mod	low	mod	tg	tg	tg	tg	left	tg	ht	0.61999	wh/0838.bmp	0.05	16.15
515.84	1.28286	8	128	per	lib	mod	low	mod	nt	nt	nt	nt	left	nt	cr	0.88286	nh/0559_nh.bmp	0.05	16.2
519.12	3.6	8	n/a	per	lib	mod	n/a	n/a	feedback	n/a	n/a	n/a	n/a	n/a	n/a	n/a	n/a	n/a	n/a
