onset	duration	trial	pres	ts_blk	ts_trl	task	crit	disc	mem_disc	per_disc	per_type	accuracy	stim_file
7.20	0.72	1	1	4	8	per	lib	low	low	low	tg	ht	wh/0743.bmp
7.92	0.72	2	1	3	126	per	con	mod	mod	mod	nt	cr	nh/0049_nh.bmp
8.64	0.72	3	1	4	91	per	lib	mod	mod	mod	tg	ht	wh/0689.bmp
9.36	0.72	4	1	1	49	mem	lib	mod	mod	mod	tg	ht	wh/1010.bmp
10.08	0.72	5	1	4	56	mem	con	mod	mod	low	tg	ht	wh/0757.bmp
10.80	0.72	6	1	3	62	mem	lib	mod	mod	mod	tg	ht	wh/0445.bmp
11.52	0.72	7	1	2	108	mem	lib	mod	mod	low	nt	ht	nh/0312_nh.bmp
12.24	0.72	8	1	4	60	mem	con	mod	mod	low	tg	ht	wh/0067.bmp
12.96	0.72	9	1	2	118	mem	con	mod	mod	low	nt	ms	nh/0124_nh.bmp
13.68	0.72	10	1	4	84	per	lib	mod	mod	mod	nt	fa	nh/0448_nh.bmp
14.40	0.72	11	1	3	41	per	lib	low	mod	low	tg	ht	wh/0081.bmp
15.12	0.72	12	1	3	49	mem	lib	mod	mod	mod	tg	ht	wh/0753.bmp
15.84	0.72	13	1	1	83	per	lib	mod	mod	mod	nt	cr	nh/0796_nh.bmp
16.56	0.72	14	1	1	89	per	lib	mod	mod	mod	nt	fa	nh/0137_nh.bmp
17.28	0.72	15	1	2	72	mem	con	low	low	mod	nt	ms	nh/0467_nh.bmp
18.00	0.72	16	1	1	44	per	con	low	mod	low	tg	ms	wh/0671.bmp
18.72	0.72	17	1	2	36	mem	lib	low	low	low	nt	ht	nh/0524_nh.bmp
19.44	0.72	18	1	1	118	mem	con	mod	mod	mod	tg	ms	wh/0970.bmp
20.16	0.72	19	1	2	59	per	lib	low	mod	low	nt	cr	nh/0412_nh.bmp
20.88	0.72	20	1	3	111	mem	con	mod	mod	mod	tg	ms	wh/0358.bmp
21.60	0.72	21	2	3	111	mem	con	mod	mod	mod	tg	ms	wh/0358.bmp
22.32	0.72	22	1	1	127	mem	con	mod	mod	mod	tg	ht	wh/0583.bmp
23.04	0.72	23	1	2	7	per	lib	mod	low	mod	tg	ht	wh/0616.bmp
23.76	0.72	24	1	3	50	mem	lib	mod	mod	mod	tg	ht	wh/0490.bmp
24.48	0.72	25	1	1	90	per	lib	mod	mod	mod	tg	ht	wh/0279.bmp
25.20	0.72	26	1	3	106	mem	con	mod	mod	mod	nt	ht	nh/0809_nh.bmp
25.92	0.72	27	1	3	127	per	con	mod	mod	mod	tg	ms	wh/0427.bmp
26.64	0.72	28	1	4	105	mem	lib	mod	mod	low	tg	ht	wh/0236.bmp
27.36	0.72	29	1	1	42	per	con	low	mod	low	nt	cr	nh/0496_nh.bmp
28.08	0.72	30	1	1	82	per	lib	mod	mod	mod	tg	ms	wh/0925.bmp
28.80	0.72	31	1	3	116	per	con	mod	mod	mod	tg	ms	wh/0072.bmp
29.52	0.72	32	1	4	50	mem	con	mod	mod	low	nt	ms	nh/0792_nh.bmp
30.24	0.72	33	1	1	55	mem	lib	mod	mod	mod	nt	ht	nh/0320_nh.bmp
30.96	0.72	34	1	2	50	per	lib	low	mod	low	nt	fa	nh/0263_nh.bmp
31.68	0.72	35	1	2	13	per	lib	mod	low	mod	nt	fa	nh/0033_nh.bmp
32.40	0.72	36	1	4	109	mem	lib	mod	mod	low	nt	ht	nh/0523_nh.bmp
33.12	0.72	37	1	3	86	per	con	low	mod	low	tg	ms	wh/1000.bmp
33.84	0.72	38	1	1	119	mem	con	mod	mod	mod	tg	ms	wh/0674.bmp
34.56	0.72	39	1	2	51	per	lib	low	mod	low	nt	cr	nh/0293_nh.bmp
35.28	0.72	40	1	3	91	per	con	low	mod	low	nt	cr	nh/0703_nh.bmp
36.00	0.72	41	1	1	62	mem	lib	mod	mod	mod	tg	ht	wh/0487.bmp
36.72	0.72	42	2	4	84	per	lib	mod	mod	mod	nt	fa	nh/0448_nh.bmp
37.44	0.72	43	1	3	83	per	con	low	mod	low	tg	ms	wh/0400.bmp
38.16	0.72	44	1	1	104	per	con	mod	mod	mod	tg	ht	wh/0359.bmp
38.88	0.72	45	1	1	122	mem	con	mod	mod	mod	nt	ms	nh/0983_nh.bmp
39.60	0.72	46	2	4	91	per	lib	mod	mod	mod	tg	ht	wh/0689.bmp
40.32	0.72	47	2	4	56	mem	con	mod	mod	low	tg	ht	wh/0757.bmp
41.04	0.72	48	1	3	74	per	lib	mod	low	mod	nt	cr	nh/0317_nh.bmp
41.76	0.72	49	1	2	111	mem	lib	mod	mod	low	nt	ht	nh/0415_nh.bmp
42.48	0.72	50	1	1	81	per	lib	mod	mod	mod	nt	cr	nh/0961_nh.bmp
43.20	0.72	51	1	3	72	per	lib	mod	low	mod	tg	ht	wh/0826.bmp
43.92	0.72	52	1	4	107	mem	lib	mod	mod	low	nt	ht	nh/0291_nh.bmp
44.64	0.72	53	2	4	107	mem	lib	mod	mod	low	nt	ht	nh/0291_nh.bmp
45.36	0.72	54	1	3	123	per	con	mod	mod	mod	nt	cr	nh/0931_nh.bmp
46.08	0.72	55	1	1	41	per	con	low	mod	low	nt	cr	nh/0212_nh.bmp
46.80	0.72	56	1	2	49	per	lib	low	mod	low	nt	fa	nh/0459_nh.bmp
47.52	0.72	57	2	1	41	per	con	low	mod	low	nt	cr	nh/0212_nh.bmp
48.24	0.72	58	1	2	39	mem	lib	low	low	low	nt	ht	nh/0363_nh.bmp
48.96	0.72	59	1	4	98	mem	lib	mod	mod	low	tg	ht	wh/0615.bmp
49.68	0.72	60	1	3	44	per	lib	low	mod	low	nt	fa	nh/0166_nh.bmp
50.40	0.72	61	2	1	89	per	lib	mod	mod	mod	nt	fa	nh/0137_nh.bmp
51.12	0.72	62	1	3	46	per	lib	low	mod	low	tg	ht	wh/0575.bmp
51.84	0.72	63	1	3	103	mem	con	mod	mod	mod	tg	ht	wh/0344.bmp
52.56	0.72	64	2	3	83	per	con	low	mod	low	tg	ms	wh/0400.bmp
53.28	0.72	65	1	4	11	per	lib	low	low	low	nt	fa	nh/0824_nh.bmp
54.00	0.72	66	2	3	91	per	con	low	mod	low	nt	cr	nh/0703_nh.bmp
54.72	0.72	67	2	3	49	mem	lib	mod	mod	mod	tg	ht	wh/0753.bmp
55.44	0.72	68	1	1	84	per	lib	mod	mod	mod	tg	ht	wh/0665.bmp
56.16	0.72	69	1	1	93	per	lib	mod	mod	mod	tg	ms	wh/0645.bmp
56.88	0.72	70	2	1	127	mem	con	mod	mod	mod	tg	ht	wh/0583.bmp
57.60	0.72	71	1	3	43	per	lib	low	mod	low	tg	ht	wh/0315.bmp
58.32	0.72	72	2	1	83	per	lib	mod	mod	mod	nt	cr	nh/0796_nh.bmp
59.04	0.72	73	1	1	123	mem	con	mod	mod	mod	nt	ms	nh/0104_nh.bmp
59.76	0.72	74	2	1	55	mem	lib	mod	mod	mod	nt	ht	nh/0320_nh.bmp
60.48	0.72	75	1	1	111	per	con	mod	mod	mod	tg	ms	wh/0331.bmp
61.20	0.72	76	1	3	112	mem	con	mod	mod	mod	nt	ht	nh/0861_nh.bmp
61.92	0.72	77	1	1	53	mem	lib	mod	mod	mod	tg	ht	wh/1006.bmp
62.64	0.72	78	1	2	19	per	con	mod	low	mod	tg	ms	wh/0517.bmp
63.36	0.72	79	1	3	32	mem	con	low	low	mod	tg	ms	wh/0214.bmp
64.08	0.72	80	2	2	51	per	lib	low	mod	low	nt	cr	nh/0293_nh.bmp
64.80	0.72	81	1	2	112	mem	lib	mod	mod	low	nt	ht	nh/0444_nh.bmp
65.52	0.72	82	1	4	30	per	con	low	low	low	tg	ms	wh/0430.bmp
66.24	0.72	83	2	3	127	per	con	mod	mod	mod	tg	ms	wh/0427.bmp
66.96	0.72	84	2	2	112	mem	lib	mod	mod	low	nt	ht	nh/0444_nh.bmp
67.68	0.72	85	1	3	94	per	con	low	mod	low	nt	cr	nh/0641_nh.bmp
68.40	0.72	86	3	2	112	mem	lib	mod	mod	low	nt	ht	nh/0444_nh.bmp
69.12	0.72	87	2	2	49	per	lib	low	mod	low	nt	fa	nh/0459_nh.bmp
69.84	0.72	88	1	2	3	per	lib	mod	low	mod	nt	cr	nh/0062_nh.bmp
70.56	0.72	89	1	1	109	per	con	mod	mod	mod	nt	cr	nh/0628_nh.bmp
71.28	0.72	90	1	2	124	mem	con	mod	mod	low	tg	ht	wh/0203.bmp
72.00	0.72	91	3	3	127	per	con	mod	mod	mod	tg	ms	wh/0427.bmp
72.72	0.72	92	1	1	34	per	con	low	mod	low	nt	cr	nh/0882_nh.bmp
73.44	0.72	93	1	1	116	mem	con	mod	mod	mod	nt	ms	nh/0761_nh.bmp
74.16	0.72	94	1	4	72	per	con	mod	low	mod	nt	cr	nh/0557_nh.bmp
74.88	0.72	95	3	3	111	mem	con	mod	mod	mod	tg	ms	wh/0358.bmp
75.60	0.72	96	1	4	104	mem	lib	mod	mod	low	tg	ht	wh/0798.bmp
76.32	0.72	97	1	3	84	per	con	low	mod	low	nt	cr	nh/0132_nh.bmp
77.04	0.72	98	1	1	38	per	con	low	mod	low	tg	ms	wh/0422.bmp
77.76	0.72	99	1	2	70	mem	con	low	low	mod	nt	ms	nh/0913_nh.bmp
78.48	0.72	100	1	3	115	per	con	mod	mod	mod	tg	ht	wh/0943.bmp
79.20	0.72	101	1	2	29	per	con	mod	low	mod	nt	cr	nh/0069_nh.bmp
79.92	0.72	102	2	3	112	mem	con	mod	mod	mod	nt	ht	nh/0861_nh.bmp
80.64	0.72	103	2	3	46	per	lib	low	mod	low	tg	ht	wh/0575.bmp
81.36	0.72	104	1	2	99	mem	lib	mod	mod	low	tg	ht	wh/0494.bmp
82.08	0.72	105	1	4	118	mem	con	low	low	low	nt	ms	nh/0632_nh.bmp
82.80	0.72	106	2	1	123	mem	con	mod	mod	mod	nt	ms	nh/0104_nh.bmp
83.52	0.72	107	1	2	54	per	lib	low	mod	low	tg	ms	wh/0438.bmp
84.24	0.72	108	2	4	60	mem	con	mod	mod	low	tg	ht	wh/0067.bmp
84.96	0.72	109	1	4	27	per	con	low	low	low	tg	ms	wh/0130.bmp
85.68	0.72	110	2	3	84	per	con	low	mod	low	nt	cr	nh/0132_nh.bmp
86.40	0.72	111	1	1	63	mem	lib	mod	mod	mod	tg	ht	wh/0576.bmp
87.12	0.72	112	4	3	127	per	con	mod	mod	mod	tg	ms	wh/0427.bmp
87.84	0.72	113	1	3	39	per	lib	low	mod	low	nt	fa	nh/0246_nh.bmp
88.56	0.72	114	2	3	86	per	con	low	mod	low	tg	ms	wh/1000.bmp
89.28	0.72	115	1	3	89	per	con	low	mod	low	tg	ms	wh/0283.bmp
90.00	0.72	116	3	1	89	per	lib	mod	mod	mod	nt	fa	nh/0137_nh.bmp
90.72	0.72	117	1	3	96	per	con	low	mod	low	tg	ms	wh/0195.bmp
91.44	0.72	118	2	3	39	per	lib	low	mod	low	nt	fa	nh/0246_nh.bmp
92.16	0.72	119	2	3	126	per	con	mod	mod	mod	nt	cr	nh/0049_nh.bmp
92.88	0.72	120	1	1	9	per	lib	low	low	low	tg	ht	wh/0250.bmp
93.60	0.72	121	1	1	126	mem	con	mod	mod	mod	nt	ht	nh/0413_nh.bmp
94.32	0.72	122	1	1	121	mem	con	mod	mod	mod	tg	ms	wh/0348.bmp
95.04	0.72	123	3	3	91	per	con	low	mod	low	nt	cr	nh/0703_nh.bmp
95.76	0.72	124	2	1	122	mem	con	mod	mod	mod	nt	ms	nh/0983_nh.bmp
96.48	0.72	125	3	4	56	mem	con	mod	mod	low	tg	ht	wh/0757.bmp
97.20	0.72	126	2	1	44	per	con	low	mod	low	tg	ms	wh/0671.bmp
97.92	0.72	127	1	4	53	mem	con	mod	mod	low	nt	ms	nh/0512_nh.bmp
98.64	0.72	128	1	4	1	per	lib	low	low	low	tg	ht	wh/0276.bmp
99.36	0.72	129	1	2	104	mem	lib	mod	mod	low	tg	ht	wh/0791.bmp
100.08	0.72	130	1	2	105	mem	lib	mod	mod	low	tg	ht	wh/1013.bmp
100.80	0.72	131	2	1	90	per	lib	mod	mod	mod	tg	ht	wh/0279.bmp
101.52	0.72	132	2	1	34	per	con	low	mod	low	nt	cr	nh/0882_nh.bmp
102.24	0.72	133	3	1	122	mem	con	mod	mod	mod	nt	ms	nh/0983_nh.bmp
102.96	0.72	134	1	3	64	mem	lib	mod	mod	mod	nt	ht	nh/0705_nh.bmp
103.68	0.72	135	3	3	39	per	lib	low	mod	low	nt	fa	nh/0246_nh.bmp
104.40	0.72	136	1	3	52	mem	lib	mod	mod	mod	nt	ht	nh/0343_nh.bmp
105.12	0.72	137	1	2	86	per	con	low	low	low	nt	cr	nh/0184_nh.bmp
105.84	0.72	138	1	2	44	mem	lib	low	low	low	tg	ht	wh/0828.bmp
106.56	0.72	139	1	2	117	mem	con	mod	mod	low	nt	ht	nh/0511_nh.bmp
107.28	0.72	140	1	1	88	per	lib	mod	mod	mod	nt	cr	nh/0738_nh.bmp
108.00	0.72	141	1	3	40	per	lib	low	mod	low	nt	fa	nh/0030_nh.bmp
108.72	0.72	142	3	1	41	per	con	low	mod	low	nt	cr	nh/0212_nh.bmp
109.44	0.72	143	2	3	115	per	con	mod	mod	mod	tg	ht	wh/0943.bmp
110.16	0.72	144	3	1	123	mem	con	mod	mod	mod	nt	ms	nh/0104_nh.bmp
110.88	0.72	145	1	2	34	mem	lib	low	low	low	nt	ms	nh/0245_nh.bmp
111.60	0.72	146	1	3	61	mem	lib	mod	mod	mod	tg	ht	wh/0282.bmp
112.32	0.72	147	1	4	21	per	con	low	low	low	nt	cr	nh/0808_nh.bmp
113.04	0.72	148	2	2	111	mem	lib	mod	mod	low	nt	ht	nh/0415_nh.bmp
113.76	0.72	149	1	3	36	per	lib	low	mod	low	nt	cr	nh/0410_nh.bmp
114.48	0.72	150	3	1	44	per	con	low	mod	low	tg	ms	wh/0671.bmp
115.20	0.72	151	3	4	60	mem	con	mod	mod	low	tg	ht	wh/0067.bmp
115.92	0.72	152	1	3	85	per	con	low	mod	low	nt	cr	nh/0454_nh.bmp
116.64	0.72	153	3	3	49	mem	lib	mod	mod	mod	tg	ht	wh/0753.bmp
117.36	0.72	154	1	1	46	per	con	low	mod	low	tg	ms	wh/0259.bmp
118.08	0.72	155	2	3	106	mem	con	mod	mod	mod	nt	ht	nh/0809_nh.bmp
118.80	0.72	156	2	3	123	per	con	mod	mod	mod	nt	cr	nh/0931_nh.bmp
119.52	0.72	157	1	3	113	per	con	mod	mod	mod	nt	cr	nh/0365_nh.bmp
120.24	0.72	158	2	1	82	per	lib	mod	mod	mod	tg	ms	wh/0925.bmp
120.96	0.72	159	1	1	80	mem	con	low	low	low	nt	ms	nh/0783_nh.bmp
121.68	0.72	160	3	1	82	per	lib	mod	mod	mod	tg	ms	wh/0925.bmp
122.40	0.72	161	2	3	36	per	lib	low	mod	low	nt	cr	nh/0410_nh.bmp
123.12	0.72	162	1	1	52	mem	lib	mod	mod	mod	nt	ht	nh/0071_nh.bmp
123.84	0.72	163	1	3	109	mem	con	mod	mod	mod	nt	ht	nh/0039_nh.bmp
124.56	0.72	164	1	3	66	per	lib	mod	low	mod	nt	fa	nh/0985_nh.bmp
125.28	0.72	165	1	4	112	mem	lib	mod	mod	low	nt	ht	nh/0131_nh.bmp
126.00	0.72	166	1	4	94	per	lib	mod	mod	mod	tg	ht	wh/0592.bmp
126.72	0.72	167	1	3	69	per	lib	mod	low	mod	tg	ht	wh/0595.bmp
127.44	0.72	168	3	4	84	per	lib	mod	mod	mod	nt	fa	nh/0448_nh.bmp
128.16	0.72	169	1	1	8	per	lib	low	low	low	tg	ms	wh/0160.bmp
128.88	0.72	170	1	2	98	mem	lib	mod	mod	low	nt	ht	nh/0295_nh.bmp
129.60	0.72	171	3	3	84	per	con	low	mod	low	nt	cr	nh/0132_nh.bmp
130.32	0.72	172	2	1	81	per	lib	mod	mod	mod	nt	cr	nh/0961_nh.bmp
131.04	0.72	173	1	1	106	per	con	mod	mod	mod	nt	cr	nh/0799_nh.bmp
131.76	0.72	174	2	2	118	mem	con	mod	mod	low	nt	ms	nh/0124_nh.bmp
132.48	0.72	175	2	1	84	per	lib	mod	mod	mod	tg	ht	wh/0665.bmp
133.20	0.72	176	1	1	70	mem	con	low	low	low	tg	ms	wh/0369.bmp
133.92	0.72	177	1	3	105	mem	con	mod	mod	mod	nt	ht	nh/0477_nh.bmp
134.64	0.72	178	2	2	50	per	lib	low	mod	low	nt	fa	nh/0263_nh.bmp
135.36	0.72	179	4	1	123	mem	con	mod	mod	mod	nt	ms	nh/0104_nh.bmp
136.08	0.72	180	4	1	89	per	lib	mod	mod	mod	nt	fa	nh/0137_nh.bmp
136.80	0.72	181	2	3	64	mem	lib	mod	mod	mod	nt	ht	nh/0705_nh.bmp
137.52	0.72	182	1	4	99	mem	lib	mod	mod	low	nt	ht	nh/0390_nh.bmp
138.24	0.72	183	4	4	84	per	lib	mod	mod	mod	nt	fa	nh/0448_nh.bmp
138.96	0.72	184	4	1	44	per	con	low	mod	low	tg	ms	wh/0671.bmp
139.68	0.72	185	1	3	34	per	lib	low	mod	low	tg	ht	wh/0509.bmp
140.40	0.72	186	2	3	103	mem	con	mod	mod	mod	tg	ht	wh/0344.bmp
141.12	0.72	187	2	1	38	per	con	low	mod	low	tg	ms	wh/0422.bmp
141.84	0.72	188	2	1	88	per	lib	mod	mod	mod	nt	cr	nh/0738_nh.bmp
142.56	0.72	189	2	3	113	per	con	mod	mod	mod	nt	cr	nh/0365_nh.bmp
143.28	0.72	190	1	2	116	mem	con	mod	mod	low	tg	ms	wh/0386.bmp
144.00	0.72	191	1	3	51	mem	lib	mod	mod	mod	nt	ht	nh/0151_nh.bmp
144.72	0.72	192	2	3	50	mem	lib	mod	mod	mod	tg	ht	wh/0490.bmp
145.44	0.72	193	3	3	115	per	con	mod	mod	mod	tg	ht	wh/0943.bmp
146.16	0.72	194	2	1	53	mem	lib	mod	mod	mod	tg	ht	wh/1006.bmp
146.88	0.72	195	1	4	110	mem	lib	mod	mod	low	tg	ht	wh/0424.bmp
147.60	0.72	196	1	1	67	mem	con	low	low	low	tg	n/a	wh/0161.bmp
148.32	0.72	197	2	3	94	per	con	low	mod	low	nt	cr	nh/0641_nh.bmp
149.04	0.72	198	1	3	31	mem	con	low	low	mod	tg	ms	wh/0304.bmp
149.76	0.72	199	2	4	99	mem	lib	mod	mod	low	nt	ht	nh/0390_nh.bmp
150.48	0.72	200	3	1	83	per	lib	mod	mod	mod	nt	cr	nh/0796_nh.bmp
151.20	0.72	201	2	4	53	mem	con	mod	mod	low	nt	ms	nh/0512_nh.bmp
151.92	0.72	202	1	3	120	per	con	mod	mod	mod	nt	cr	nh/0604_nh.bmp
152.64	0.72	203	3	1	90	per	lib	mod	mod	mod	tg	ht	wh/0279.bmp
153.36	0.72	204	1	4	87	per	lib	mod	mod	mod	nt	cr	nh/0664_nh.bmp
154.08	0.72	205	2	3	116	per	con	mod	mod	mod	tg	ms	wh/0072.bmp
154.80	0.72	206	2	3	61	mem	lib	mod	mod	mod	tg	ht	wh/0282.bmp
155.52	0.72	207	1	4	18	per	con	low	low	low	tg	ms	wh/0720.bmp
156.24	0.72	208	2	2	117	mem	con	mod	mod	low	nt	ht	nh/0511_nh.bmp
156.96	0.72	209	1	3	25	mem	con	low	low	mod	tg	ms	wh/0894.bmp
157.68	0.72	210	1	1	108	per	con	mod	mod	mod	nt	cr	nh/0562_nh.bmp
158.40	0.72	211	3	2	117	mem	con	mod	mod	low	nt	ht	nh/0511_nh.bmp
159.12	0.72	212	1	2	128	mem	con	mod	mod	low	nt	ms	nh/0661_nh.bmp
159.84	0.72	213	4	3	39	per	lib	low	mod	low	nt	fa	nh/0246_nh.bmp
160.56	0.72	214	3	3	116	per	con	mod	mod	mod	tg	ms	wh/0072.bmp
161.28	0.72	215	1	1	17	mem	lib	low	low	mod	nt	ht	nh/0944_nh.bmp
162.00	0.72	216	3	1	34	per	con	low	mod	low	nt	cr	nh/0882_nh.bmp
162.72	0.72	217	1	4	14	per	lib	low	low	low	nt	fa	nh/0356_nh.bmp
163.44	0.72	218	1	1	107	per	con	mod	mod	mod	tg	ms	wh/0097.bmp
164.16	0.72	219	1	4	93	per	lib	mod	mod	mod	nt	cr	nh/0895_nh.bmp
164.88	0.72	220	1	3	122	per	con	mod	mod	mod	tg	ms	wh/0061.bmp
165.60	0.72	221	2	4	94	per	lib	mod	mod	mod	tg	ht	wh/0592.bmp
166.32	0.72	222	2	1	116	mem	con	mod	mod	mod	nt	ms	nh/0761_nh.bmp
167.04	0.72	223	3	3	113	per	con	mod	mod	mod	nt	cr	nh/0365_nh.bmp
167.76	0.72	224	2	4	104	mem	lib	mod	mod	low	tg	ht	wh/0798.bmp
168.48	0.72	225	4	3	116	per	con	mod	mod	mod	tg	ms	wh/0072.bmp
169.20	0.72	226	3	1	116	mem	con	mod	mod	mod	nt	ms	nh/0761_nh.bmp
169.92	0.72	227	2	2	54	per	lib	low	mod	low	tg	ms	wh/0438.bmp
170.64	0.72	228	2	1	52	mem	lib	mod	mod	mod	nt	ht	nh/0071_nh.bmp
171.36	0.72	229	2	1	63	mem	lib	mod	mod	mod	tg	ht	wh/0576.bmp
172.08	0.72	230	3	1	84	per	lib	mod	mod	mod	tg	ht	wh/0665.bmp
172.80	0.72	231	2	4	93	per	lib	mod	mod	mod	nt	cr	nh/0895_nh.bmp
173.52	0.72	232	3	3	36	per	lib	low	mod	low	nt	cr	nh/0410_nh.bmp
174.24	0.72	233	3	1	88	per	lib	mod	mod	mod	nt	cr	nh/0738_nh.bmp
174.96	0.72	234	1	1	43	per	con	low	mod	low	tg	ms	wh/0672.bmp
175.68	0.72	235	3	3	123	per	con	mod	mod	mod	nt	cr	nh/0931_nh.bmp
176.40	0.72	236	3	2	51	per	lib	low	mod	low	nt	cr	nh/0293_nh.bmp
177.12	0.72	237	2	1	109	per	con	mod	mod	mod	nt	cr	nh/0628_nh.bmp
177.84	0.72	238	3	3	64	mem	lib	mod	mod	mod	nt	ht	nh/0705_nh.bmp
178.56	0.72	239	2	3	62	mem	lib	mod	mod	mod	tg	ht	wh/0445.bmp
179.28	0.72	240	1	2	125	mem	con	mod	mod	low	tg	ht	wh/0368.bmp
180.00	0.72	241	4	1	90	per	lib	mod	mod	mod	tg	ht	wh/0279.bmp
180.72	0.72	242	1	1	99	per	con	mod	mod	mod	tg	ms	wh/0313.bmp
181.44	0.72	243	2	1	108	per	con	mod	mod	mod	nt	cr	nh/0562_nh.bmp
182.16	0.72	244	2	2	104	mem	lib	mod	mod	low	tg	ht	wh/0791.bmp
182.88	0.72	245	4	3	64	mem	lib	mod	mod	mod	nt	ht	nh/0705_nh.bmp
183.60	0.72	246	1	4	51	mem	con	mod	mod	low	nt	ht	nh/0683_nh.bmp
184.32	0.72	247	2	3	44	per	lib	low	mod	low	nt	fa	nh/0166_nh.bmp
185.04	0.72	248	1	3	55	mem	lib	mod	mod	mod	nt	ht	nh/0538_nh.bmp
185.76	0.72	249	3	2	50	per	lib	low	mod	low	nt	fa	nh/0263_nh.bmp
186.48	0.72	250	2	2	128	mem	con	mod	mod	low	nt	ms	nh/0661_nh.bmp
187.20	0.72	251	1	2	55	per	lib	low	mod	low	tg	ms	wh/0914.bmp
187.92	0.72	252	1	3	10	mem	lib	low	low	low	nt	ht	nh/0242_nh.bmp
188.64	0.72	253	2	1	99	per	con	mod	mod	mod	tg	ms	wh/0313.bmp
189.36	0.72	254	5	1	90	per	lib	mod	mod	mod	tg	ht	wh/0279.bmp
190.08	0.72	255	1	4	58	mem	con	mod	mod	low	tg	ht	wh/0174.bmp
190.80	0.72	256	3	3	126	per	con	mod	mod	mod	nt	cr	nh/0049_nh.bmp
191.52	0.72	257	2	4	51	mem	con	mod	mod	low	nt	ht	nh/0683_nh.bmp
192.24	0.72	258	3	2	104	mem	lib	mod	mod	low	tg	ht	wh/0791.bmp
192.96	0.72	259	4	2	51	per	lib	low	mod	low	nt	cr	nh/0293_nh.bmp
193.68	0.72	260	3	4	94	per	lib	mod	mod	mod	tg	ht	wh/0592.bmp
194.40	0.72	261	4	4	60	mem	con	mod	mod	low	tg	ht	wh/0067.bmp
195.12	0.72	262	3	1	55	mem	lib	mod	mod	mod	nt	ht	nh/0320_nh.bmp
195.84	0.72	263	4	3	126	per	con	mod	mod	mod	nt	cr	nh/0049_nh.bmp
196.56	0.72	264	2	1	43	per	con	low	mod	low	tg	ms	wh/0672.bmp
197.28	0.72	265	2	3	41	per	lib	low	mod	low	tg	ht	wh/0081.bmp
198.00	0.72	266	3	1	53	mem	lib	mod	mod	mod	tg	ht	wh/1006.bmp
198.72	0.72	267	1	3	101	mem	con	mod	mod	mod	tg	ms	wh/0759.bmp
199.44	0.72	268	1	1	110	per	con	mod	mod	mod	nt	cr	nh/0333_nh.bmp
200.16	0.72	269	1	1	54	mem	lib	mod	mod	mod	nt	ht	nh/0742_nh.bmp
200.88	0.72	270	2	4	50	mem	con	mod	mod	low	nt	ms	nh/0792_nh.bmp
201.60	0.72	271	3	3	41	per	lib	low	mod	low	tg	ht	wh/0081.bmp
202.32	0.72	272	3	1	38	per	con	low	mod	low	tg	ms	wh/0422.bmp
203.04	0.72	273	2	1	54	mem	lib	mod	mod	mod	nt	ht	nh/0742_nh.bmp
203.76	0.72	274	1	2	84	per	con	low	low	low	tg	n/a	wh/0309.bmp
204.48	0.72	275	3	3	83	per	con	low	mod	low	tg	ms	wh/0400.bmp
205.20	0.72	276	1	1	45	per	con	low	mod	low	nt	cr	nh/0302_nh.bmp
205.92	0.72	277	3	1	108	per	con	mod	mod	mod	nt	cr	nh/0562_nh.bmp
206.64	0.72	278	1	4	5	per	lib	low	low	low	nt	fa	nh/1003_nh.bmp
207.36	0.72	279	3	1	43	per	con	low	mod	low	tg	ms	wh/0672.bmp
208.08	0.72	280	3	3	86	per	con	low	mod	low	tg	ms	wh/1000.bmp
208.80	0.72	281	2	1	111	per	con	mod	mod	mod	tg	ms	wh/0331.bmp
209.52	0.72	282	2	4	105	mem	lib	mod	mod	low	tg	ht	wh/0236.bmp
210.24	0.72	283	3	3	46	per	lib	low	mod	low	tg	ht	wh/0575.bmp
210.96	0.72	284	3	3	62	mem	lib	mod	mod	mod	tg	ht	wh/0445.bmp
211.68	0.72	285	4	2	50	per	lib	low	mod	low	nt	fa	nh/0263_nh.bmp
212.40	0.72	286	4	1	41	per	con	low	mod	low	nt	cr	nh/0212_nh.bmp
213.12	0.72	287	2	2	105	mem	lib	mod	mod	low	tg	ht	wh/1013.bmp
213.84	0.72	288	1	2	119	mem	con	mod	mod	low	tg	ht	wh/0323.bmp
214.56	0.72	289	4	1	122	mem	con	mod	mod	mod	nt	ms	nh/0983_nh.bmp
215.28	0.72	290	3	1	111	per	con	mod	mod	mod	tg	ms	wh/0331.bmp
216.00	0.72	291	1	2	24	per	con	mod	low	mod	tg	ht	wh/0811.bmp
216.72	0.72	292	4	1	116	mem	con	mod	mod	mod	nt	ms	nh/0761_nh.bmp
217.44	0.72	293	5	1	122	mem	con	mod	mod	mod	nt	ms	nh/0983_nh.bmp
218.16	0.72	294	1	1	31	mem	lib	low	low	mod	tg	ms	wh/0858.bmp
218.88	0.72	295	3	1	109	per	con	mod	mod	mod	nt	cr	nh/0628_nh.bmp
219.60	0.72	296	5	3	116	per	con	mod	mod	mod	tg	ms	wh/0072.bmp
220.32	0.72	297	1	2	96	per	con	low	low	low	tg	ms	wh/0911.bmp
221.04	0.72	298	4	3	123	per	con	mod	mod	mod	nt	cr	nh/0931_nh.bmp
221.76	0.72	299	2	1	46	per	con	low	mod	low	tg	ms	wh/0259.bmp
222.48	0.72	300	4	3	49	mem	lib	mod	mod	mod	tg	ht	wh/0753.bmp
223.20	0.72	301	2	1	126	mem	con	mod	mod	mod	nt	ht	nh/0413_nh.bmp
223.92	0.72	302	4	2	104	mem	lib	mod	mod	low	tg	ht	wh/0791.bmp
224.64	0.72	303	3	1	81	per	lib	mod	mod	mod	nt	cr	nh/0961_nh.bmp
225.36	0.72	304	5	3	126	per	con	mod	mod	mod	nt	cr	nh/0049_nh.bmp
226.08	0.72	305	1	2	22	per	con	mod	low	mod	nt	cr	nh/0102_nh.bmp
226.80	0.72	306	3	3	112	mem	con	mod	mod	mod	nt	ht	nh/0861_nh.bmp
227.52	0.72	307	3	1	127	mem	con	mod	mod	mod	tg	ht	wh/0583.bmp
228.24	0.72	308	1	2	46	mem	lib	low	low	low	nt	ms	nh/0211_nh.bmp
228.96	0.72	309	1	3	8	mem	lib	low	low	low	nt	ms	nh/0026_nh.bmp
229.68	0.72	310	2	1	107	per	con	mod	mod	mod	tg	ms	wh/0097.bmp
230.40	0.72	311	2	3	85	per	con	low	mod	low	nt	cr	nh/0454_nh.bmp
231.12	0.72	312	4	1	109	per	con	mod	mod	mod	nt	cr	nh/0628_nh.bmp
231.84	0.72	313	3	2	111	mem	lib	mod	mod	low	nt	ht	nh/0415_nh.bmp
232.56	0.72	314	1	1	19	mem	lib	low	low	mod	nt	ht	nh/0950_nh.bmp
233.28	0.72	315	2	2	98	mem	lib	mod	mod	low	nt	ht	nh/0295_nh.bmp
234.00	0.72	316	3	2	54	per	lib	low	mod	low	tg	ms	wh/0438.bmp
234.72	0.72	317	2	1	110	per	con	mod	mod	mod	nt	cr	nh/0333_nh.bmp
235.44	0.72	318	1	1	5	per	lib	low	low	low	nt	cr	nh/0916_nh.bmp
236.16	0.72	319	2	3	122	per	con	mod	mod	mod	tg	ms	wh/0061.bmp
236.88	0.72	320	4	1	111	per	con	mod	mod	mod	tg	ms	wh/0331.bmp
237.60	0.72	321	1	2	126	mem	con	mod	mod	low	nt	ms	nh/0988_nh.bmp
238.32	0.72	322	3	3	85	per	con	low	mod	low	nt	cr	nh/0454_nh.bmp
239.04	0.72	323	2	1	45	per	con	low	mod	low	nt	cr	nh/0302_nh.bmp
239.76	0.72	324	1	1	29	mem	lib	low	low	mod	tg	ms	wh/0886.bmp
240.48	0.72	325	1	2	8	per	lib	mod	low	mod	nt	fa	nh/0003_nh.bmp
241.20	0.72	326	2	3	89	per	con	low	mod	low	tg	ms	wh/0283.bmp
241.92	0.72	327	5	2	50	per	lib	low	mod	low	nt	fa	nh/0263_nh.bmp
242.64	0.72	328	5	1	123	mem	con	mod	mod	mod	nt	ms	nh/0104_nh.bmp
243.36	0.72	329	2	3	96	per	con	low	mod	low	tg	ms	wh/0195.bmp
244.08	0.72	330	5	1	111	per	con	mod	mod	mod	tg	ms	wh/0331.bmp
244.80	0.72	331	3	4	51	mem	con	mod	mod	low	nt	ht	nh/0683_nh.bmp
245.52	0.72	332	2	4	87	per	lib	mod	mod	mod	nt	cr	nh/0664_nh.bmp
246.24	0.72	333	2	1	62	mem	lib	mod	mod	mod	tg	ht	wh/0487.bmp
246.96	0.72	334	4	1	38	per	con	low	mod	low	tg	ms	wh/0422.bmp
247.68	0.72	335	1	1	26	mem	lib	low	low	mod	nt	ht	nh/0547_nh.bmp
248.40	0.72	336	4	1	108	per	con	mod	mod	mod	nt	cr	nh/0562_nh.bmp
249.12	0.72	337	6	3	116	per	con	mod	mod	mod	tg	ms	wh/0072.bmp
249.84	0.72	338	2	3	52	mem	lib	mod	mod	mod	nt	ht	nh/0343_nh.bmp
250.56	0.72	339	2	2	55	per	lib	low	mod	low	tg	ms	wh/0914.bmp
251.28	0.72	340	3	2	118	mem	con	mod	mod	low	nt	ms	nh/0124_nh.bmp
252.00	0.72	341	3	3	103	mem	con	mod	mod	mod	tg	ht	wh/0344.bmp
252.72	0.72	342	2	1	42	per	con	low	mod	low	nt	cr	nh/0496_nh.bmp
253.44	0.72	343	3	1	126	mem	con	mod	mod	mod	nt	ht	nh/0413_nh.bmp
254.16	0.72	344	1	2	78	mem	con	low	low	mod	nt	ht	nh/0208_nh.bmp
254.88	0.72	345	1	1	68	mem	con	low	low	low	tg	ms	wh/0010.bmp
255.60	0.72	346	1	3	29	mem	con	low	low	mod	tg	ht	wh/0872.bmp
256.32	0.72	347	2	1	104	per	con	mod	mod	mod	tg	ht	wh/0359.bmp
257.04	0.72	348	4	1	82	per	lib	mod	mod	mod	tg	ms	wh/0925.bmp
257.76	0.72	349	4	4	56	mem	con	mod	mod	low	tg	ht	wh/0757.bmp
258.48	0.72	350	4	4	51	mem	con	mod	mod	low	nt	ht	nh/0683_nh.bmp
259.20	0.72	351	1	3	13	mem	lib	low	low	low	tg	ht	wh/0713.bmp
259.92	0.72	352	1	4	89	per	lib	mod	mod	mod	nt	fa	nh/0229_nh.bmp
260.64	0.72	353	2	2	116	mem	con	mod	mod	low	tg	ms	wh/0386.bmp
261.36	0.72	354	1	4	74	per	con	mod	low	mod	nt	cr	nh/0606_nh.bmp
262.08	0.72	355	2	3	55	mem	lib	mod	mod	mod	nt	ht	nh/0538_nh.bmp
262.80	0.72	356	4	3	83	per	con	low	mod	low	tg	ms	wh/0400.bmp
263.52	0.72	357	2	1	106	per	con	mod	mod	mod	nt	cr	nh/0799_nh.bmp
264.24	0.72	358	1	4	59	mem	con	mod	mod	low	tg	ms	wh/0643.bmp
264.96	0.72	359	3	2	128	mem	con	mod	mod	low	nt	ms	nh/0661_nh.bmp
265.68	0.72	360	2	1	121	mem	con	mod	mod	mod	tg	ms	wh/0348.bmp
266.40	0.72	361	1	2	61	per	lib	low	mod	low	tg	ms	wh/0554.bmp
267.12	0.72	362	3	4	50	mem	con	mod	mod	low	nt	ms	nh/0792_nh.bmp
267.84	0.72	363	4	1	55	mem	lib	mod	mod	mod	nt	ht	nh/0320_nh.bmp
268.56	0.72	364	2	2	61	per	lib	low	mod	low	tg	ms	wh/0554.bmp
269.28	0.72	365	3	3	61	mem	lib	mod	mod	mod	tg	ht	wh/0282.bmp
270.00	0.72	366	3	3	96	per	con	low	mod	low	tg	ms	wh/0195.bmp
270.72	0.72	367	3	3	106	mem	con	mod	mod	mod	nt	ht	nh/0809_nh.bmp
271.44	0.72	368	2	4	98	mem	lib	mod	mod	low	tg	ht	wh/0615.bmp
272.16	0.72	369	3	2	98	mem	lib	mod	mod	low	nt	ht	nh/0295_nh.bmp
272.88	0.72	370	1	4	4	per	lib	low	low	low	tg	ht	wh/0243.bmp
273.60	0.72	371	1	4	48	mem	lib	low	low	mod	tg	ht	wh/0474.bmp
274.32	0.72	372	2	4	59	mem	con	mod	mod	low	tg	ms	wh/0643.bmp
275.04	0.72	373	4	3	111	mem	con	mod	mod	mod	tg	ms	wh/0358.bmp
275.76	0.72	374	3	1	46	per	con	low	mod	low	tg	ms	wh/0259.bmp
276.48	0.72	375	1	2	5	per	lib	mod	low	mod	tg	ms	wh/0891.bmp
277.20	0.72	376	3	1	106	per	con	mod	mod	mod	nt	cr	nh/0799_nh.bmp
277.92	0.72	377	3	4	99	mem	lib	mod	mod	low	nt	ht	nh/0390_nh.bmp
278.64	0.72	378	4	2	118	mem	con	mod	mod	low	nt	ms	nh/0124_nh.bmp
279.36	0.72	379	3	2	61	per	lib	low	mod	low	tg	ms	wh/0554.bmp
280.08	0.72	380	2	2	125	mem	con	mod	mod	low	tg	ht	wh/0368.bmp
280.80	0.72	381	3	3	94	per	con	low	mod	low	nt	cr	nh/0641_nh.bmp
281.52	0.72	382	3	4	104	mem	lib	mod	mod	low	tg	ht	wh/0798.bmp
282.24	0.72	383	1	2	53	per	lib	low	mod	low	tg	ms	wh/0765.bmp
282.96	0.72	384	1	3	100	mem	con	mod	mod	mod	tg	ms	wh/0834.bmp
283.68	0.72	385	3	4	91	per	lib	mod	mod	mod	tg	ht	wh/0689.bmp
284.40	0.72	386	2	1	119	mem	con	mod	mod	mod	tg	ms	wh/0674.bmp
285.12	0.72	387	3	2	49	per	lib	low	mod	low	nt	fa	nh/0459_nh.bmp
285.84	0.72	388	4	2	111	mem	lib	mod	mod	low	nt	ht	nh/0415_nh.bmp
286.56	0.72	389	3	4	98	mem	lib	mod	mod	low	tg	ht	wh/0615.bmp
287.28	0.72	390	1	1	56	mem	lib	mod	mod	mod	nt	ht	nh/0901_nh.bmp
288.00	0.72	391	4	4	98	mem	lib	mod	mod	low	tg	ht	wh/0615.bmp
288.72	0.72	392	2	2	99	mem	lib	mod	mod	low	tg	ht	wh/0494.bmp
289.44	0.72	393	4	1	34	per	con	low	mod	low	nt	cr	nh/0882_nh.bmp
290.16	0.72	394	4	3	112	mem	con	mod	mod	mod	nt	ht	nh/0861_nh.bmp
290.88	0.72	395	4	3	61	mem	lib	mod	mod	mod	tg	ht	wh/0282.bmp
291.60	0.72	396	4	1	53	mem	lib	mod	mod	mod	tg	ht	wh/1006.bmp
292.32	0.72	397	2	4	112	mem	lib	mod	mod	low	nt	ht	nh/0131_nh.bmp
293.04	0.72	398	3	2	125	mem	con	mod	mod	low	tg	ht	wh/0368.bmp
293.76	0.72	399	2	2	119	mem	con	mod	mod	low	tg	ht	wh/0323.bmp
294.48	0.72	400	2	3	109	mem	con	mod	mod	mod	nt	ht	nh/0039_nh.bmp
295.20	0.72	401	5	3	127	per	con	mod	mod	mod	tg	ms	wh/0427.bmp
295.92	0.72	402	1	4	20	per	con	low	low	low	tg	ms	wh/0120.bmp
296.64	0.72	403	2	2	108	mem	lib	mod	mod	low	nt	ht	nh/0312_nh.bmp
297.36	0.72	404	2	3	51	mem	lib	mod	mod	mod	nt	ht	nh/0151_nh.bmp
298.08	0.72	405	3	2	119	mem	con	mod	mod	low	tg	ht	wh/0323.bmp
298.80	0.72	406	3	2	99	mem	lib	mod	mod	low	tg	ht	wh/0494.bmp
299.52	0.72	407	3	1	52	mem	lib	mod	mod	mod	nt	ht	nh/0071_nh.bmp
300.24	0.72	408	4	4	91	per	lib	mod	mod	mod	tg	ht	wh/0689.bmp
300.96	0.72	409	4	2	119	mem	con	mod	mod	low	tg	ht	wh/0323.bmp
301.68	0.72	410	2	3	105	mem	con	mod	mod	mod	nt	ht	nh/0477_nh.bmp
302.40	0.72	411	3	1	62	mem	lib	mod	mod	mod	tg	ht	wh/0487.bmp
303.12	0.72	412	3	2	55	per	lib	low	mod	low	tg	ms	wh/0914.bmp
303.84	0.72	413	1	3	24	mem	con	low	low	mod	nt	ms	nh/0707_nh.bmp
304.56	0.72	414	2	1	93	per	lib	mod	mod	mod	tg	ms	wh/0645.bmp
305.28	0.72	415	2	3	101	mem	con	mod	mod	mod	tg	ms	wh/0759.bmp
306.00	0.72	416	3	4	105	mem	lib	mod	mod	low	tg	ht	wh/0236.bmp
306.72	0.72	417	5	2	51	per	lib	low	mod	low	nt	cr	nh/0293_nh.bmp
307.44	0.72	418	1	2	107	mem	lib	mod	mod	low	tg	ht	wh/0007.bmp
308.16	0.72	419	1	1	20	mem	lib	low	low	mod	tg	ht	wh/0719.bmp
308.88	0.72	420	4	3	84	per	con	low	mod	low	nt	cr	nh/0132_nh.bmp
309.60	0.72	421	2	3	34	per	lib	low	mod	low	tg	ht	wh/0509.bmp
310.32	0.72	422	4	2	55	per	lib	low	mod	low	tg	ms	wh/0914.bmp
311.04	0.72	423	2	4	109	mem	lib	mod	mod	low	nt	ht	nh/0523_nh.bmp
311.76	0.72	424	3	4	107	mem	lib	mod	mod	low	nt	ht	nh/0291_nh.bmp
312.48	0.72	425	3	1	45	per	con	low	mod	low	nt	cr	nh/0302_nh.bmp
313.20	0.72	426	2	4	110	mem	lib	mod	mod	low	tg	ht	wh/0424.bmp
313.92	0.72	427	3	3	50	mem	lib	mod	mod	mod	tg	ht	wh/0490.bmp
314.64	0.72	428	4	2	49	per	lib	low	mod	low	nt	fa	nh/0459_nh.bmp
315.36	0.72	429	3	4	110	mem	lib	mod	mod	low	tg	ht	wh/0424.bmp
316.08	0.72	430	5	1	38	per	con	low	mod	low	tg	ms	wh/0422.bmp
316.80	0.72	431	3	3	105	mem	con	mod	mod	mod	nt	ht	nh/0477_nh.bmp
317.52	0.72	432	3	1	110	per	con	mod	mod	mod	nt	cr	nh/0333_nh.bmp
318.24	0.72	433	3	3	51	mem	lib	mod	mod	mod	nt	ht	nh/0151_nh.bmp
318.96	0.72	434	2	2	126	mem	con	mod	mod	low	nt	ms	nh/0988_nh.bmp
319.68	0.72	435	2	1	118	mem	con	mod	mod	mod	tg	ms	wh/0970.bmp
320.40	0.72	436	3	1	63	mem	lib	mod	mod	mod	tg	ht	wh/0576.bmp
321.12	0.72	437	5	1	44	per	con	low	mod	low	tg	ms	wh/0671.bmp
321.84	0.72	438	1	3	22	mem	con	low	low	mod	nt	ms	nh/0230_nh.bmp
322.56	0.72	439	4	4	107	mem	lib	mod	mod	low	nt	ht	nh/0291_nh.bmp
323.28	0.72	440	4	2	125	mem	con	mod	mod	low	tg	ht	wh/0368.bmp
324.00	0.72	441	5	1	41	per	con	low	mod	low	nt	cr	nh/0212_nh.bmp
324.72	0.72	442	6	1	111	per	con	mod	mod	mod	tg	ms	wh/0331.bmp
325.44	0.72	443	3	1	107	per	con	mod	mod	mod	tg	ms	wh/0097.bmp
326.16	0.72	444	3	2	105	mem	lib	mod	mod	low	tg	ht	wh/1013.bmp
326.88	0.72	445	3	3	122	per	con	mod	mod	mod	tg	ms	wh/0061.bmp
327.60	0.72	446	2	4	89	per	lib	mod	mod	mod	nt	fa	nh/0229_nh.bmp
328.32	0.72	447	1	4	82	per	lib	mod	mod	mod	tg	ht	wh/0806.bmp
329.04	0.72	448	4	4	104	mem	lib	mod	mod	low	tg	ht	wh/0798.bmp
329.76	0.72	449	4	3	106	mem	con	mod	mod	mod	nt	ht	nh/0809_nh.bmp
330.48	0.72	450	1	4	38	mem	lib	low	low	mod	nt	ht	nh/0969_nh.bmp
331.20	0.72	451	4	4	110	mem	lib	mod	mod	low	tg	ht	wh/0424.bmp
331.92	0.72	452	4	1	45	per	con	low	mod	low	nt	cr	nh/0302_nh.bmp
332.64	0.72	453	3	3	55	mem	lib	mod	mod	mod	nt	ht	nh/0538_nh.bmp
333.36	0.72	454	4	3	46	per	lib	low	mod	low	tg	ht	wh/0575.bmp
334.08	0.72	455	1	3	9	mem	lib	low	low	low	tg	ht	wh/0171.bmp
334.80	0.72	456	1	4	23	per	con	low	low	low	nt	cr	nh/0607_nh.bmp
335.52	0.72	457	5	1	108	per	con	mod	mod	mod	nt	cr	nh/0562_nh.bmp
336.24	0.72	458	4	3	115	per	con	mod	mod	mod	tg	ht	wh/0943.bmp
336.96	0.72	459	3	3	34	per	lib	low	mod	low	tg	ht	wh/0509.bmp
337.68	0.72	460	3	3	101	mem	con	mod	mod	mod	tg	ms	wh/0759.bmp
338.40	0.72	461	3	2	116	mem	con	mod	mod	low	tg	ms	wh/0386.bmp
339.12	0.72	462	1	4	24	per	con	low	low	low	nt	cr	nh/0492_nh.bmp
339.84	0.72	463	1	4	78	per	con	mod	low	mod	nt	cr	nh/0993_nh.bmp
340.56	0.72	464	2	3	40	per	lib	low	mod	low	nt	fa	nh/0030_nh.bmp
341.28	0.72	465	2	4	58	mem	con	mod	mod	low	tg	ht	wh/0174.bmp
342.00	0.72	466	1	3	26	mem	con	low	low	mod	nt	ms	nh/0004_nh.bmp
342.72	0.72	467	4	1	52	mem	lib	mod	mod	mod	nt	ht	nh/0071_nh.bmp
343.44	0.72	468	2	4	82	per	lib	mod	mod	mod	tg	ht	wh/0806.bmp
344.16	0.72	469	5	1	116	mem	con	mod	mod	mod	nt	ms	nh/0761_nh.bmp
344.88	0.72	470	4	3	34	per	lib	low	mod	low	tg	ht	wh/0509.bmp
345.60	0.72	471	3	3	40	per	lib	low	mod	low	nt	fa	nh/0030_nh.bmp
346.32	0.72	472	3	1	118	mem	con	mod	mod	mod	tg	ms	wh/0970.bmp
347.04	0.72	473	3	4	93	per	lib	mod	mod	mod	nt	cr	nh/0895_nh.bmp
347.76	0.72	474	4	2	128	mem	con	mod	mod	low	nt	ms	nh/0661_nh.bmp
348.48	0.72	475	5	4	104	mem	lib	mod	mod	low	tg	ht	wh/0798.bmp
349.20	0.72	476	5	3	61	mem	lib	mod	mod	mod	tg	ht	wh/0282.bmp
349.92	0.72	477	2	2	107	mem	lib	mod	mod	low	tg	ht	wh/0007.bmp
350.64	0.72	478	2	3	100	mem	con	mod	mod	mod	tg	ms	wh/0834.bmp
351.36	0.72	479	3	2	108	mem	lib	mod	mod	low	nt	ht	nh/0312_nh.bmp
352.08	0.72	480	5	4	51	mem	con	mod	mod	low	nt	ht	nh/0683_nh.bmp
352.80	0.72	481	4	1	118	mem	con	mod	mod	mod	tg	ms	wh/0970.bmp
353.52	0.72	482	1	2	27	per	con	mod	low	mod	tg	ht	wh/0773.bmp
354.24	0.72	483	2	2	53	per	lib	low	mod	low	tg	ms	wh/0765.bmp
354.96	0.72	484	4	2	99	mem	lib	mod	mod	low	tg	ht	wh/0494.bmp
355.68	0.72	485	3	4	89	per	lib	mod	mod	mod	nt	fa	nh/0229_nh.bmp
356.40	0.72	486	5	3	123	per	con	mod	mod	mod	nt	cr	nh/0931_nh.bmp
357.12	0.72	487	5	2	125	mem	con	mod	mod	low	tg	ht	wh/0368.bmp
357.84	0.72	488	3	2	126	mem	con	mod	mod	low	nt	ms	nh/0988_nh.bmp
358.56	0.72	489	1	4	90	per	lib	mod	mod	mod	tg	ht	wh/0479.bmp
359.28	0.72	490	3	3	89	per	con	low	mod	low	tg	ms	wh/0283.bmp
360.00	0.72	491	4	1	46	per	con	low	mod	low	tg	ms	wh/0259.bmp
360.72	0.72	492	4	3	101	mem	con	mod	mod	mod	tg	ms	wh/0759.bmp
361.44	0.72	493	4	3	50	mem	lib	mod	mod	mod	tg	ht	wh/0490.bmp
362.16	0.72	494	1	4	52	mem	con	mod	mod	low	nt	ht	nh/0976_nh.bmp
362.88	0.72	495	5	1	46	per	con	low	mod	low	tg	ms	wh/0259.bmp
363.60	0.72	496	4	1	107	per	con	mod	mod	mod	tg	ms	wh/0097.bmp
364.32	0.72	497	4	1	110	per	con	mod	mod	mod	nt	cr	nh/0333_nh.bmp
365.04	0.72	498	2	4	52	mem	con	mod	mod	low	nt	ht	nh/0976_nh.bmp
365.76	0.72	499	3	1	121	mem	con	mod	mod	mod	tg	ms	wh/0348.bmp
366.48	0.72	500	4	1	126	mem	con	mod	mod	mod	nt	ht	nh/0413_nh.bmp
367.20	0.72	501	1	3	77	per	lib	mod	low	mod	nt	cr	nh/0937_nh.bmp
367.92	0.72	502	5	1	107	per	con	mod	mod	mod	tg	ms	wh/0097.bmp
368.64	0.72	503	3	4	112	mem	lib	mod	mod	low	nt	ht	nh/0131_nh.bmp
369.36	0.72	504	5	4	60	mem	con	mod	mod	low	tg	ht	wh/0067.bmp
370.08	0.72	505	4	1	81	per	lib	mod	mod	mod	nt	cr	nh/0961_nh.bmp
370.80	0.72	506	6	3	61	mem	lib	mod	mod	mod	tg	ht	wh/0282.bmp
371.52	0.72	507	3	4	52	mem	con	mod	mod	low	nt	ht	nh/0976_nh.bmp
372.24	0.72	508	4	3	96	per	con	low	mod	low	tg	ms	wh/0195.bmp
372.96	0.72	509	4	2	116	mem	con	mod	mod	low	tg	ms	wh/0386.bmp
373.68	0.72	510	4	1	127	mem	con	mod	mod	mod	tg	ht	wh/0583.bmp
374.40	0.72	511	4	3	105	mem	con	mod	mod	mod	nt	ht	nh/0477_nh.bmp
375.12	0.72	512	4	3	103	mem	con	mod	mod	mod	tg	ht	wh/0344.bmp
375.84	0.72	513	5	2	55	per	lib	low	mod	low	tg	ms	wh/0914.bmp
376.56	0.72	514	2	2	124	mem	con	mod	mod	low	tg	ht	wh/0203.bmp
377.28	0.72	515	3	1	42	per	con	low	mod	low	nt	cr	nh/0496_nh.bmp
378.00	0.72	516	4	3	51	mem	lib	mod	mod	mod	nt	ht	nh/0151_nh.bmp
378.72	0.72	517	1	2	16	per	lib	mod	low	mod	tg	ht	wh/0567.bmp
379.44	0.72	518	4	3	85	per	con	low	mod	low	nt	cr	nh/0454_nh.bmp
380.16	0.72	519	1	4	117	mem	con	low	low	low	tg	ms	wh/0252.bmp
380.88	0.72	520	6	3	126	per	con	mod	mod	mod	nt	cr	nh/0049_nh.bmp
381.60	0.72	521	4	3	122	per	con	mod	mod	mod	tg	ms	wh/0061.bmp
382.32	0.72	522	4	1	84	per	lib	mod	mod	mod	tg	ht	wh/0665.bmp
383.04	0.72	523	5	1	109	per	con	mod	mod	mod	nt	cr	nh/0628_nh.bmp
383.76	0.72	524	4	2	117	mem	con	mod	mod	low	nt	ht	nh/0511_nh.bmp
384.48	0.72	525	1	2	48	mem	lib	low	low	low	tg	ht	wh/0908.bmp
385.20	0.72	526	3	1	99	per	con	mod	mod	mod	tg	ms	wh/0313.bmp
385.92	0.72	527	3	4	58	mem	con	mod	mod	low	tg	ht	wh/0174.bmp
386.64	0.72	528	1	4	39	mem	lib	low	low	mod	nt	ms	nh/0726_nh.bmp
387.36	0.72	529	4	1	43	per	con	low	mod	low	tg	ms	wh/0672.bmp
388.08	0.72	530	3	1	54	mem	lib	mod	mod	mod	nt	ht	nh/0742_nh.bmp
388.80	0.72	531	4	1	42	per	con	low	mod	low	nt	cr	nh/0496_nh.bmp
389.52	0.72	532	5	2	119	mem	con	mod	mod	low	tg	ht	wh/0323.bmp
390.24	0.72	533	5	3	64	mem	lib	mod	mod	mod	nt	ht	nh/0705_nh.bmp
390.96	0.72	534	5	4	56	mem	con	mod	mod	low	tg	ht	wh/0757.bmp
391.68	0.72	535	1	1	10	per	lib	low	low	low	nt	cr	nh/0989_nh.bmp
392.40	0.72	536	5	2	117	mem	con	mod	mod	low	nt	ht	nh/0511_nh.bmp
393.12	0.72	537	4	4	112	mem	lib	mod	mod	low	nt	ht	nh/0131_nh.bmp
393.84	0.72	538	1	3	3	mem	lib	low	low	low	nt	ht	nh/0877_nh.bmp
394.56	0.72	539	3	3	109	mem	con	mod	mod	mod	nt	ht	nh/0039_nh.bmp
395.28	0.72	540	3	4	87	per	lib	mod	mod	mod	nt	cr	nh/0664_nh.bmp
396.00	0.72	541	2	3	120	per	con	mod	mod	mod	nt	cr	nh/0604_nh.bmp
396.72	0.72	542	1	3	6	mem	lib	low	low	low	tg	ht	wh/0500.bmp
397.44	0.72	543	4	1	99	per	con	mod	mod	mod	tg	ms	wh/0313.bmp
398.16	0.72	544	3	2	124	mem	con	mod	mod	low	tg	ht	wh/0203.bmp
398.88	0.72	545	5	3	50	mem	lib	mod	mod	mod	tg	ht	wh/0490.bmp
399.60	0.72	546	5	1	42	per	con	low	mod	low	nt	cr	nh/0496_nh.bmp
400.32	0.72	547	3	2	107	mem	lib	mod	mod	low	tg	ht	wh/0007.bmp
401.04	0.72	548	1	4	12	per	lib	low	low	low	nt	fa	nh/0314_nh.bmp
401.76	0.72	549	1	1	11	per	lib	low	low	low	nt	fa	nh/0169_nh.bmp
402.48	0.72	550	4	1	121	mem	con	mod	mod	mod	tg	ms	wh/0348.bmp
403.20	0.72	551	5	2	49	per	lib	low	mod	low	nt	fa	nh/0459_nh.bmp
403.92	0.72	552	4	4	87	per	lib	mod	mod	mod	nt	cr	nh/0664_nh.bmp
404.64	0.72	553	4	3	109	mem	con	mod	mod	mod	nt	ht	nh/0039_nh.bmp
405.36	0.72	554	6	1	46	per	con	low	mod	low	tg	ms	wh/0259.bmp
406.08	0.72	555	4	4	105	mem	lib	mod	mod	low	tg	ht	wh/0236.bmp
406.80	0.72	556	5	4	84	per	lib	mod	mod	mod	nt	fa	nh/0448_nh.bmp
407.52	0.72	557	5	2	111	mem	lib	mod	mod	low	nt	ht	nh/0415_nh.bmp
408.24	0.72	558	4	4	58	mem	con	mod	mod	low	tg	ht	wh/0174.bmp
408.96	0.72	559	4	1	63	mem	lib	mod	mod	mod	tg	ht	wh/0576.bmp
409.68	0.72	560	5	3	115	per	con	mod	mod	mod	tg	ht	wh/0943.bmp
410.40	0.72	561	6	1	107	per	con	mod	mod	mod	tg	ms	wh/0097.bmp
411.12	0.72	562	4	3	41	per	lib	low	mod	low	tg	ht	wh/0081.bmp
411.84	0.72	563	3	4	109	mem	lib	mod	mod	low	nt	ht	nh/0523_nh.bmp
412.56	0.72	564	5	1	110	per	con	mod	mod	mod	nt	cr	nh/0333_nh.bmp
413.28	0.72	565	4	3	113	per	con	mod	mod	mod	nt	cr	nh/0365_nh.bmp
414.00	0.72	566	5	2	99	mem	lib	mod	mod	low	tg	ht	wh/0494.bmp
414.72	0.72	567	1	2	83	per	con	low	low	low	nt	cr	nh/0011_nh.bmp
415.44	0.72	568	4	2	108	mem	lib	mod	mod	low	nt	ht	nh/0312_nh.bmp
416.16	0.72	569	4	3	36	per	lib	low	mod	low	nt	cr	nh/0410_nh.bmp
416.88	0.72	570	5	3	46	per	lib	low	mod	low	tg	ht	wh/0575.bmp
417.60	0.72	571	6	1	108	per	con	mod	mod	mod	nt	cr	nh/0562_nh.bmp
418.32	0.72	572	5	1	118	mem	con	mod	mod	mod	tg	ms	wh/0970.bmp
419.04	0.72	573	4	4	52	mem	con	mod	mod	low	nt	ht	nh/0976_nh.bmp
419.76	0.72	574	4	2	54	per	lib	low	mod	low	tg	ms	wh/0438.bmp
420.48	0.72	575	1	4	126	mem	con	low	low	low	tg	ms	wh/0271.bmp
421.20	0.72	576	4	4	93	per	lib	mod	mod	mod	nt	cr	nh/0895_nh.bmp
421.92	0.72	577	6	1	42	per	con	low	mod	low	nt	cr	nh/0496_nh.bmp
422.64	0.72	578	5	3	84	per	con	low	mod	low	nt	cr	nh/0132_nh.bmp
423.36	0.72	579	5	3	103	mem	con	mod	mod	mod	tg	ht	wh/0344.bmp
424.08	0.72	580	5	1	55	mem	lib	mod	mod	mod	nt	ht	nh/0320_nh.bmp
424.80	0.72	581	5	4	52	mem	con	mod	mod	low	nt	ht	nh/0976_nh.bmp
425.52	0.72	582	1	4	45	mem	lib	low	low	mod	nt	ms	nh/0620_nh.bmp
426.24	0.72	583	5	1	99	per	con	mod	mod	mod	tg	ms	wh/0313.bmp
426.96	0.72	584	2	4	90	per	lib	mod	mod	mod	tg	ht	wh/0479.bmp
427.68	0.72	585	1	1	71	mem	con	low	low	low	nt	ms	nh/0327_nh.bmp
428.40	0.72	586	4	3	62	mem	lib	mod	mod	mod	tg	ht	wh/0445.bmp
429.12	0.72	587	3	4	59	mem	con	mod	mod	low	tg	ms	wh/0643.bmp
429.84	0.72	588	1	4	32	per	con	low	low	low	nt	cr	nh/0127_nh.bmp
430.56	0.72	589	6	1	55	mem	lib	mod	mod	mod	nt	ht	nh/0320_nh.bmp
431.28	0.72	590	4	1	54	mem	lib	mod	mod	mod	nt	ht	nh/0742_nh.bmp
432.00	0.72	591	4	3	86	per	con	low	mod	low	tg	ms	wh/1000.bmp
432.72	0.72	592	2	2	59	per	lib	low	mod	low	nt	cr	nh/0412_nh.bmp
433.44	0.72	593	5	2	118	mem	con	mod	mod	low	nt	ms	nh/0124_nh.bmp
434.16	0.72	594	4	2	61	per	lib	low	mod	low	tg	ms	wh/0554.bmp
434.88	0.72	595	2	3	43	per	lib	low	mod	low	tg	ht	wh/0315.bmp
435.60	0.72	596	4	4	109	mem	lib	mod	mod	low	nt	ht	nh/0523_nh.bmp
436.32	0.72	597	3	3	52	mem	lib	mod	mod	mod	nt	ht	nh/0343_nh.bmp
437.04	0.72	598	4	1	106	per	con	mod	mod	mod	nt	cr	nh/0799_nh.bmp
437.76	0.72	599	4	2	126	mem	con	mod	mod	low	nt	ms	nh/0988_nh.bmp
438.48	0.72	600	6	2	55	per	lib	low	mod	low	tg	ms	wh/0914.bmp
439.20	0.72	601	5	3	85	per	con	low	mod	low	nt	cr	nh/0454_nh.bmp
439.92	0.72	602	5	1	63	mem	lib	mod	mod	mod	tg	ht	wh/0576.bmp
440.64	0.72	603	1	2	28	per	con	mod	low	mod	tg	ms	wh/0917.bmp
441.36	0.72	604	3	1	93	per	lib	mod	mod	mod	tg	ms	wh/0645.bmp
442.08	0.72	605	6	1	38	per	con	low	mod	low	tg	ms	wh/0422.bmp
442.80	0.72	606	6	1	122	mem	con	mod	mod	mod	nt	ms	nh/0983_nh.bmp
443.52	0.72	607	5	3	34	per	lib	low	mod	low	tg	ht	wh/0509.bmp
444.24	0.72	608	5	1	106	per	con	mod	mod	mod	nt	cr	nh/0799_nh.bmp
444.96	0.72	609	5	4	98	mem	lib	mod	mod	low	tg	ht	wh/0615.bmp
445.68	0.72	610	3	2	53	per	lib	low	mod	low	tg	ms	wh/0765.bmp
446.40	0.72	611	6	1	109	per	con	mod	mod	mod	nt	cr	nh/0628_nh.bmp
447.12	0.72	612	4	1	93	per	lib	mod	mod	mod	tg	ms	wh/0645.bmp
447.84	0.72	613	5	2	61	per	lib	low	mod	low	tg	ms	wh/0554.bmp
448.56	0.72	614	4	2	124	mem	con	mod	mod	low	tg	ht	wh/0203.bmp
449.28	0.72	615	4	4	59	mem	con	mod	mod	low	tg	ms	wh/0643.bmp
450.00	0.72	616	6	2	125	mem	con	mod	mod	low	tg	ht	wh/0368.bmp
450.72	0.72	617	6	3	127	per	con	mod	mod	mod	tg	ms	wh/0427.bmp
451.44	0.72	618	3	3	43	per	lib	low	mod	low	tg	ht	wh/0315.bmp
452.16	0.72	619	5	4	58	mem	con	mod	mod	low	tg	ht	wh/0174.bmp
452.88	0.72	620	4	2	53	per	lib	low	mod	low	tg	ms	wh/0765.bmp
453.60	0.72	621	5	3	51	mem	lib	mod	mod	mod	nt	ht	nh/0151_nh.bmp
454.32	0.72	622	5	1	93	per	lib	mod	mod	mod	tg	ms	wh/0645.bmp
455.04	0.72	623	6	3	84	per	con	low	mod	low	nt	cr	nh/0132_nh.bmp
455.76	0.72	624	6	1	63	mem	lib	mod	mod	mod	tg	ht	wh/0576.bmp
456.48	0.72	625	5	1	45	per	con	low	mod	low	nt	cr	nh/0302_nh.bmp
457.20	0.72	626	5	3	113	per	con	mod	mod	mod	nt	cr	nh/0365_nh.bmp
457.92	0.72	627	5	3	101	mem	con	mod	mod	mod	tg	ms	wh/0759.bmp
458.64	0.72	628	4	3	89	per	con	low	mod	low	tg	ms	wh/0283.bmp
459.36	0.72	629	4	2	105	mem	lib	mod	mod	low	tg	ht	wh/1013.bmp
460.08	0.72	630	4	2	98	mem	lib	mod	mod	low	nt	ht	nh/0295_nh.bmp
460.80	0.72	631	5	2	116	mem	con	mod	mod	low	tg	ms	wh/0386.bmp
461.52	0.72	632	3	1	104	per	con	mod	mod	mod	tg	ht	wh/0359.bmp
462.24	0.72	633	6	1	93	per	lib	mod	mod	mod	tg	ms	wh/0645.bmp
462.96	0.72	634	5	2	126	mem	con	mod	mod	low	nt	ms	nh/0988_nh.bmp
463.68	0.72	635	1	2	67	mem	con	low	low	mod	tg	ms	wh/0502.bmp
464.40	0.72	636	3	4	82	per	lib	mod	mod	mod	tg	ht	wh/0806.bmp
465.12	0.72	637	1	1	27	mem	lib	low	low	mod	tg	ht	wh/0440.bmp
465.84	0.72	638	2	1	49	mem	lib	mod	mod	mod	tg	ht	wh/1010.bmp
466.56	0.72	639	4	4	89	per	lib	mod	mod	mod	nt	fa	nh/0229_nh.bmp
467.28	0.72	640	1	2	69	mem	con	low	low	mod	tg	ms	wh/0555.bmp
468.00	0.72	641	5	1	89	per	lib	mod	mod	mod	nt	fa	nh/0137_nh.bmp
468.72	0.72	642	4	1	83	per	lib	mod	mod	mod	nt	cr	nh/0796_nh.bmp
469.44	0.72	643	3	4	90	per	lib	mod	mod	mod	tg	ht	wh/0479.bmp
470.16	0.72	644	5	1	53	mem	lib	mod	mod	mod	tg	ht	wh/1006.bmp
470.88	0.72	645	5	3	106	mem	con	mod	mod	mod	nt	ht	nh/0809_nh.bmp
471.60	0.72	646	3	3	44	per	lib	low	mod	low	nt	fa	nh/0166_nh.bmp
472.32	0.72	647	5	2	98	mem	lib	mod	mod	low	nt	ht	nh/0295_nh.bmp
473.04	0.72	648	4	2	107	mem	lib	mod	mod	low	tg	ht	wh/0007.bmp
473.76	0.72	649	6	4	56	mem	con	mod	mod	low	tg	ht	wh/0757.bmp
474.48	0.72	650	5	2	104	mem	lib	mod	mod	low	tg	ht	wh/0791.bmp
475.20	0.72	651	6	2	49	per	lib	low	mod	low	nt	fa	nh/0459_nh.bmp
475.92	0.72	652	1	2	81	per	con	low	low	low	nt	cr	nh/0471_nh.bmp
476.64	0.72	653	6	3	115	per	con	mod	mod	mod	tg	ht	wh/0943.bmp
477.36	0.72	654	5	1	126	mem	con	mod	mod	mod	nt	ht	nh/0413_nh.bmp
478.08	0.72	655	4	4	99	mem	lib	mod	mod	low	nt	ht	nh/0390_nh.bmp
478.80	0.72	656	6	1	90	per	lib	mod	mod	mod	tg	ht	wh/0279.bmp
479.52	0.72	657	2	1	56	mem	lib	mod	mod	mod	nt	ht	nh/0901_nh.bmp
480.24	0.72	658	5	2	105	mem	lib	mod	mod	low	tg	ht	wh/1013.bmp
480.96	0.72	659	1	2	45	mem	lib	low	low	low	tg	ht	wh/0504.bmp
481.68	0.72	660	5	2	53	per	lib	low	mod	low	tg	ms	wh/0765.bmp
482.40	0.72	661	6	1	126	mem	con	mod	mod	mod	nt	ht	nh/0413_nh.bmp
483.12	0.72	662	1	2	88	per	con	low	low	low	tg	ms	wh/0505.bmp
483.84	0.72	663	5	1	52	mem	lib	mod	mod	mod	nt	ht	nh/0071_nh.bmp
484.56	0.72	664	6	1	41	per	con	low	mod	low	nt	cr	nh/0212_nh.bmp
485.28	0.72	665	3	1	119	mem	con	mod	mod	mod	tg	ms	wh/0674.bmp
486.00	0.72	666	5	1	127	mem	con	mod	mod	mod	tg	ht	wh/0583.bmp
486.72	0.72	667	6	3	123	per	con	mod	mod	mod	nt	cr	nh/0931_nh.bmp
487.44	0.72	668	6	4	51	mem	con	mod	mod	low	nt	ht	nh/0683_nh.bmp
488.16	0.72	669	6	2	105	mem	lib	mod	mod	low	tg	ht	wh/1013.bmp
488.88	0.72	670	6	3	85	per	con	low	mod	low	nt	cr	nh/0454_nh.bmp
489.60	0.72	671	1	4	114	mem	con	low	low	low	nt	ms	nh/0264_nh.bmp
490.32	0.72	672	4	3	91	per	con	low	mod	low	nt	cr	nh/0703_nh.bmp
491.04	0.72	673	4	3	44	per	lib	low	mod	low	nt	fa	nh/0166_nh.bmp
491.76	0.72	674	6	4	60	mem	con	mod	mod	low	tg	ht	wh/0067.bmp
492.48	0.72	675	3	2	59	per	lib	low	mod	low	nt	cr	nh/0412_nh.bmp
493.20	0.72	676	3	1	56	mem	lib	mod	mod	mod	nt	ht	nh/0901_nh.bmp
493.92	0.72	677	6	2	99	mem	lib	mod	mod	low	tg	ht	wh/0494.bmp
494.64	0.72	678	4	4	50	mem	con	mod	mod	low	nt	ms	nh/0792_nh.bmp
495.36	0.72	679	5	4	59	mem	con	mod	mod	low	tg	ms	wh/0643.bmp
496.08	0.72	680	5	1	83	per	lib	mod	mod	mod	nt	cr	nh/0796_nh.bmp
496.80	0.72	681	1	4	73	per	con	mod	low	mod	tg	ms	wh/1020.bmp
497.52	0.72	682	1	1	3	per	lib	low	low	low	tg	ht	wh/0535.bmp
498.24	0.72	683	4	1	62	mem	lib	mod	mod	mod	tg	ht	wh/0487.bmp
498.96	0.72	684	4	3	43	per	lib	low	mod	low	tg	ht	wh/0315.bmp
499.68	0.72	685	6	2	117	mem	con	mod	mod	low	nt	ht	nh/0511_nh.bmp
500.40	0.72	686	6	4	84	per	lib	mod	mod	mod	nt	fa	nh/0448_nh.bmp
501.12	0.72	687	5	4	89	per	lib	mod	mod	mod	nt	fa	nh/0229_nh.bmp
501.84	0.72	688	5	4	99	mem	lib	mod	mod	low	nt	ht	nh/0390_nh.bmp
502.56	0.72	689	1	2	74	mem	con	low	low	mod	tg	ms	wh/0050.bmp
503.28	0.72	690	1	4	75	per	con	mod	low	mod	tg	ht	wh/0670.bmp
504.00	0.72	691	1	2	40	mem	lib	low	low	low	tg	ht	wh/0107.bmp
504.72	0.72	692	1	1	72	mem	con	low	low	low	nt	ms	nh/0335_nh.bmp
505.44	0.72	693	4	1	104	per	con	mod	mod	mod	tg	ht	wh/0359.bmp
506.16	0.72	694	6	3	103	mem	con	mod	mod	mod	tg	ht	wh/0344.bmp
506.88	0.72	695	5	4	105	mem	lib	mod	mod	low	tg	ht	wh/0236.bmp
507.60	0.72	696	5	3	43	per	lib	low	mod	low	tg	ht	wh/0315.bmp
508.32	0.72	697	5	2	128	mem	con	mod	mod	low	nt	ms	nh/0661_nh.bmp
509.04	0.72	698	6	3	113	per	con	mod	mod	mod	nt	cr	nh/0365_nh.bmp
509.76	0.72	699	5	2	108	mem	lib	mod	mod	low	nt	ht	nh/0312_nh.bmp
510.48	0.72	700	1	3	4	mem	lib	low	low	low	nt	ht	nh/0117_nh.bmp
511.20	0.72	701	3	1	49	mem	lib	mod	mod	mod	tg	ht	wh/1010.bmp
511.92	0.72	702	3	3	120	per	con	mod	mod	mod	nt	cr	nh/0604_nh.bmp
512.64	0.72	703	1	1	12	per	lib	low	low	low	nt	fa	nh/0357_nh.bmp
513.36	0.72	704	3	3	100	mem	con	mod	mod	mod	tg	ms	wh/0834.bmp
514.08	0.72	705	3	4	53	mem	con	mod	mod	low	nt	ms	nh/0512_nh.bmp
514.80	0.72	706	4	3	100	mem	con	mod	mod	mod	tg	ms	wh/0834.bmp
515.52	0.72	707	5	1	82	per	lib	mod	mod	mod	tg	ms	wh/0925.bmp
516.24	0.72	708	6	3	34	per	lib	low	mod	low	tg	ht	wh/0509.bmp
516.96	0.72	709	5	3	39	per	lib	low	mod	low	nt	fa	nh/0246_nh.bmp
517.68	0.72	710	4	4	90	per	lib	mod	mod	mod	tg	ht	wh/0479.bmp
518.40	0.72	711	6	2	111	mem	lib	mod	mod	low	nt	ht	nh/0415_nh.bmp
519.12	0.72	712	5	2	107	mem	lib	mod	mod	low	tg	ht	wh/0007.bmp
519.84	0.72	713	6	3	43	per	lib	low	mod	low	tg	ht	wh/0315.bmp
520.56	0.72	714	5	3	89	per	con	low	mod	low	tg	ms	wh/0283.bmp
521.28	0.72	715	6	4	59	mem	con	mod	mod	low	tg	ms	wh/0643.bmp
522.00	0.72	716	1	1	32	mem	lib	low	low	mod	nt	ht	nh/0991_nh.bmp
522.72	0.72	717	1	3	70	per	lib	mod	low	mod	nt	fa	nh/0052_nh.bmp
523.44	0.72	718	6	4	58	mem	con	mod	mod	low	tg	ht	wh/0174.bmp
524.16	0.72	719	1	2	93	per	con	low	low	low	tg	ms	wh/0375.bmp
524.88	0.72	720	6	2	126	mem	con	mod	mod	low	nt	ms	nh/0988_nh.bmp
525.60	0.72	721	1	2	14	per	lib	mod	low	mod	tg	ht	wh/0754.bmp
526.32	0.72	722	1	3	75	per	lib	mod	low	mod	tg	ht	wh/0498.bmp
527.04	0.72	723	5	1	62	mem	lib	mod	mod	mod	tg	ht	wh/0487.bmp
527.76	0.72	724	6	3	51	mem	lib	mod	mod	mod	nt	ht	nh/0151_nh.bmp
528.48	0.72	725	5	4	87	per	lib	mod	mod	mod	nt	cr	nh/0664_nh.bmp
529.20	0.72	726	6	2	50	per	lib	low	mod	low	nt	fa	nh/0263_nh.bmp
529.92	0.72	727	5	2	54	per	lib	low	mod	low	tg	ms	wh/0438.bmp
530.64	0.72	728	5	3	91	per	con	low	mod	low	nt	cr	nh/0703_nh.bmp
531.36	0.72	729	5	3	86	per	con	low	mod	low	tg	ms	wh/1000.bmp
532.08	0.72	730	6	3	39	per	lib	low	mod	low	nt	fa	nh/0246_nh.bmp
532.80	0.72	731	4	3	55	mem	lib	mod	mod	mod	nt	ht	nh/0538_nh.bmp
533.52	0.72	732	6	2	108	mem	lib	mod	mod	low	nt	ht	nh/0312_nh.bmp
534.24	0.72	733	5	1	54	mem	lib	mod	mod	mod	nt	ht	nh/0742_nh.bmp
534.96	0.72	734	5	3	83	per	con	low	mod	low	tg	ms	wh/0400.bmp
535.68	0.72	735	6	4	99	mem	lib	mod	mod	low	nt	ht	nh/0390_nh.bmp
536.40	0.72	736	4	2	59	per	lib	low	mod	low	nt	cr	nh/0412_nh.bmp
537.12	0.72	737	6	3	106	mem	con	mod	mod	mod	nt	ht	nh/0809_nh.bmp
537.84	0.72	738	5	4	112	mem	lib	mod	mod	low	nt	ht	nh/0131_nh.bmp
538.56	0.72	739	5	3	100	mem	con	mod	mod	mod	tg	ms	wh/0834.bmp
539.28	0.72	740	1	1	1	per	lib	low	low	low	tg	n/a	wh/0078.bmp
540.00	0.72	741	4	3	40	per	lib	low	mod	low	nt	fa	nh/0030_nh.bmp
540.72	0.72	742	6	1	99	per	con	mod	mod	mod	tg	ms	wh/0313.bmp
541.44	0.72	743	5	4	109	mem	lib	mod	mod	low	nt	ht	nh/0523_nh.bmp
542.16	0.72	744	5	4	93	per	lib	mod	mod	mod	nt	cr	nh/0895_nh.bmp
542.88	0.72	745	5	1	121	mem	con	mod	mod	mod	tg	ms	wh/0348.bmp
543.60	0.72	746	6	1	82	per	lib	mod	mod	mod	tg	ms	wh/0925.bmp
544.32	0.72	747	6	4	109	mem	lib	mod	mod	low	nt	ht	nh/0523_nh.bmp
545.04	0.72	748	5	3	41	per	lib	low	mod	low	tg	ht	wh/0081.bmp
545.76	0.72	749	1	2	12	per	lib	mod	low	mod	nt	cr	nh/0630_nh.bmp
546.48	0.72	750	4	1	56	mem	lib	mod	mod	mod	nt	ht	nh/0901_nh.bmp
547.20	0.72	751	4	3	94	per	con	low	mod	low	nt	cr	nh/0641_nh.bmp
547.92	0.72	752	4	1	119	mem	con	mod	mod	mod	tg	ms	wh/0674.bmp
548.64	0.72	753	4	3	120	per	con	mod	mod	mod	nt	cr	nh/0604_nh.bmp
549.36	0.72	754	6	4	93	per	lib	mod	mod	mod	nt	cr	nh/0895_nh.bmp
550.08	0.72	755	6	1	106	per	con	mod	mod	mod	nt	cr	nh/0799_nh.bmp
550.80	0.72	756	6	3	46	per	lib	low	mod	low	tg	ht	wh/0575.bmp
551.52	0.72	757	4	4	94	per	lib	mod	mod	mod	tg	ht	wh/0592.bmp
552.24	0.72	758	6	1	89	per	lib	mod	mod	mod	nt	fa	nh/0137_nh.bmp
552.96	0.72	759	4	1	88	per	lib	mod	mod	mod	nt	cr	nh/0738_nh.bmp
553.68	0.72	760	6	2	61	per	lib	low	mod	low	tg	ms	wh/0554.bmp
554.40	0.72	761	5	3	111	mem	con	mod	mod	mod	tg	ms	wh/0358.bmp
555.12	0.72	762	5	4	107	mem	lib	mod	mod	low	nt	ht	nh/0291_nh.bmp
555.84	0.72	763	1	1	75	mem	con	low	low	low	tg	ms	wh/0167.bmp
556.56	0.72	764	1	2	21	per	con	mod	low	mod	nt	cr	nh/0854_nh.bmp
557.28	0.72	765	6	4	52	mem	con	mod	mod	low	nt	ht	nh/0976_nh.bmp
558.00	0.72	766	1	4	9	per	lib	low	low	low	tg	ht	wh/0819.bmp
558.72	0.72	767	1	4	115	mem	con	low	low	low	tg	ms	wh/0021.bmp
559.44	0.72	768	4	4	82	per	lib	mod	mod	mod	tg	ht	wh/0806.bmp
560.16	0.72	769	1	3	17	mem	con	low	low	mod	nt	ms	nh/0192_nh.bmp
560.88	0.72	770	5	3	122	per	con	mod	mod	mod	tg	ms	wh/0061.bmp
561.60	0.72	771	6	1	44	per	con	low	mod	low	tg	ms	wh/0671.bmp
562.32	0.72	772	5	3	105	mem	con	mod	mod	mod	nt	ht	nh/0477_nh.bmp
563.04	0.72	773	5	3	109	mem	con	mod	mod	mod	nt	ht	nh/0039_nh.bmp
563.76	0.72	774	6	2	53	per	lib	low	mod	low	tg	ms	wh/0765.bmp
564.48	0.72	775	6	1	118	mem	con	mod	mod	mod	tg	ms	wh/0970.bmp
565.20	0.72	776	1	2	71	mem	con	low	low	mod	nt	ms	nh/0470_nh.bmp
565.92	0.72	777	5	3	120	per	con	mod	mod	mod	nt	cr	nh/0604_nh.bmp
566.64	0.72	778	5	4	82	per	lib	mod	mod	mod	tg	ht	wh/0806.bmp
567.36	0.72	779	6	3	105	mem	con	mod	mod	mod	nt	ht	nh/0477_nh.bmp
568.08	0.72	780	4	1	49	mem	lib	mod	mod	mod	tg	ht	wh/1010.bmp
568.80	0.72	781	5	4	50	mem	con	mod	mod	low	nt	ms	nh/0792_nh.bmp
569.52	0.72	782	5	1	88	per	lib	mod	mod	mod	nt	cr	nh/0738_nh.bmp
570.24	0.72	783	5	3	49	mem	lib	mod	mod	mod	tg	ht	wh/0753.bmp
570.96	0.72	784	6	2	107	mem	lib	mod	mod	low	tg	ht	wh/0007.bmp
571.68	0.72	785	5	3	62	mem	lib	mod	mod	mod	tg	ht	wh/0445.bmp
572.40	0.72	786	5	1	49	mem	lib	mod	mod	mod	tg	ht	wh/1010.bmp
573.12	0.72	787	5	1	119	mem	con	mod	mod	mod	tg	ms	wh/0674.bmp
573.84	0.72	788	6	3	64	mem	lib	mod	mod	mod	nt	ht	nh/0705_nh.bmp
574.56	0.72	789	5	1	84	per	lib	mod	mod	mod	tg	ht	wh/0665.bmp
575.28	0.72	790	6	1	52	mem	lib	mod	mod	mod	nt	ht	nh/0071_nh.bmp
576.00	0.72	791	6	1	121	mem	con	mod	mod	mod	tg	ms	wh/0348.bmp
576.72	0.72	792	5	3	94	per	con	low	mod	low	nt	cr	nh/0641_nh.bmp
577.44	0.72	793	6	1	45	per	con	low	mod	low	nt	cr	nh/0302_nh.bmp
578.16	0.72	794	6	3	120	per	con	mod	mod	mod	nt	cr	nh/0604_nh.bmp
578.88	0.72	795	5	3	55	mem	lib	mod	mod	mod	nt	ht	nh/0538_nh.bmp
579.60	0.72	796	6	4	50	mem	con	mod	mod	low	nt	ms	nh/0792_nh.bmp
580.32	0.72	797	1	4	116	mem	con	low	low	low	tg	ms	wh/0310.bmp
581.04	0.72	798	6	3	89	per	con	low	mod	low	tg	ms	wh/0283.bmp
581.76	0.72	799	4	2	112	mem	lib	mod	mod	low	nt	ht	nh/0444_nh.bmp
582.48	0.72	800	4	4	53	mem	con	mod	mod	low	nt	ms	nh/0512_nh.bmp
583.20	0.72	801	1	4	65	per	con	mod	low	mod	tg	ht	wh/0539.bmp
583.92	0.72	802	6	2	51	per	lib	low	mod	low	nt	cr	nh/0293_nh.bmp
584.64	0.72	803	1	2	91	per	con	low	low	low	nt	cr	nh/0987_nh.bmp
585.36	0.72	804	5	3	96	per	con	low	mod	low	tg	ms	wh/0195.bmp
586.08	0.72	805	5	1	104	per	con	mod	mod	mod	tg	ht	wh/0359.bmp
586.80	0.72	806	6	2	128	mem	con	mod	mod	low	nt	ms	nh/0661_nh.bmp
587.52	0.72	807	5	2	124	mem	con	mod	mod	low	tg	ht	wh/0203.bmp
588.24	0.72	808	1	4	36	mem	lib	low	low	mod	tg	ht	wh/0201.bmp
588.96	0.72	809	6	3	83	per	con	low	mod	low	tg	ms	wh/0400.bmp
589.68	0.72	810	5	1	56	mem	lib	mod	mod	mod	nt	ht	nh/0901_nh.bmp
590.40	0.72	811	6	4	104	mem	lib	mod	mod	low	tg	ht	wh/0798.bmp
591.12	0.72	812	6	1	110	per	con	mod	mod	mod	nt	cr	nh/0333_nh.bmp
591.84	0.72	813	5	4	91	per	lib	mod	mod	mod	tg	ht	wh/0689.bmp
592.56	0.72	814	5	1	34	per	con	low	mod	low	nt	cr	nh/0882_nh.bmp
593.28	0.72	815	6	4	105	mem	lib	mod	mod	low	tg	ht	wh/0236.bmp
594.00	0.72	816	6	4	89	per	lib	mod	mod	mod	nt	fa	nh/0229_nh.bmp
594.72	0.72	817	1	4	128	mem	con	low	low	low	nt	ms	nh/0565_nh.bmp
595.44	0.72	818	5	4	94	per	lib	mod	mod	mod	tg	ht	wh/0592.bmp
596.16	0.72	819	6	3	101	mem	con	mod	mod	mod	tg	ms	wh/0759.bmp
596.88	0.72	820	5	3	112	mem	con	mod	mod	mod	nt	ht	nh/0861_nh.bmp
597.60	0.72	821	6	1	49	mem	lib	mod	mod	mod	tg	ht	wh/1010.bmp
598.32	0.72	822	6	4	107	mem	lib	mod	mod	low	nt	ht	nh/0291_nh.bmp
599.04	0.72	823	6	3	86	per	con	low	mod	low	tg	ms	wh/1000.bmp
599.76	0.72	824	6	1	123	mem	con	mod	mod	mod	nt	ms	nh/0104_nh.bmp
600.48	0.72	825	5	1	81	per	lib	mod	mod	mod	nt	cr	nh/0961_nh.bmp
601.20	0.72	826	4	3	52	mem	lib	mod	mod	mod	nt	ht	nh/0343_nh.bmp
601.92	0.72	827	1	4	42	mem	lib	low	low	mod	tg	ht	wh/0409.bmp
602.64	0.72	828	6	1	104	per	con	mod	mod	mod	tg	ht	wh/0359.bmp
603.36	0.72	829	5	2	112	mem	lib	mod	mod	low	nt	ht	nh/0444_nh.bmp
604.08	0.72	830	6	1	53	mem	lib	mod	mod	mod	tg	ht	wh/1006.bmp
604.80	0.72	831	6	3	62	mem	lib	mod	mod	mod	tg	ht	wh/0445.bmp
605.52	0.72	832	6	3	111	mem	con	mod	mod	mod	tg	ms	wh/0358.bmp
606.24	0.72	833	5	4	90	per	lib	mod	mod	mod	tg	ht	wh/0479.bmp
606.96	0.72	834	6	1	81	per	lib	mod	mod	mod	nt	cr	nh/0961_nh.bmp
607.68	0.72	835	5	4	110	mem	lib	mod	mod	low	tg	ht	wh/0424.bmp
608.40	0.72	836	1	4	113	mem	con	low	low	low	nt	ms	nh/0484_nh.bmp
609.12	0.72	837	5	3	40	per	lib	low	mod	low	nt	fa	nh/0030_nh.bmp
609.84	0.72	838	6	3	94	per	con	low	mod	low	nt	cr	nh/0641_nh.bmp
610.56	0.72	839	5	4	53	mem	con	mod	mod	low	nt	ms	nh/0512_nh.bmp
611.28	0.72	840	6	4	90	per	lib	mod	mod	mod	tg	ht	wh/0479.bmp
612.00	0.72	841	6	4	87	per	lib	mod	mod	mod	nt	cr	nh/0664_nh.bmp
612.72	0.72	842	6	4	91	per	lib	mod	mod	mod	tg	ht	wh/0689.bmp
613.44	0.72	843	6	1	127	mem	con	mod	mod	mod	tg	ht	wh/0583.bmp
614.16	0.72	844	6	3	40	per	lib	low	mod	low	nt	fa	nh/0030_nh.bmp
614.88	0.72	845	6	1	54	mem	lib	mod	mod	mod	nt	ht	nh/0742_nh.bmp
615.60	0.72	846	1	4	33	mem	lib	low	low	mod	nt	ht	nh/0457_nh.bmp
616.32	0.72	847	6	1	62	mem	lib	mod	mod	mod	tg	ht	wh/0487.bmp
617.04	0.72	848	6	3	109	mem	con	mod	mod	mod	nt	ht	nh/0039_nh.bmp
617.76	0.72	849	1	2	18	per	con	mod	low	mod	nt	cr	nh/0723_nh.bmp
618.48	0.72	850	6	4	110	mem	lib	mod	mod	low	tg	ht	wh/0424.bmp
619.20	0.72	851	6	4	82	per	lib	mod	mod	mod	tg	ht	wh/0806.bmp
619.92	0.72	852	5	3	44	per	lib	low	mod	low	nt	fa	nh/0166_nh.bmp
620.64	0.72	853	5	3	52	mem	lib	mod	mod	mod	nt	ht	nh/0343_nh.bmp
621.36	0.72	854	6	4	98	mem	lib	mod	mod	low	tg	ht	wh/0615.bmp
622.08	0.72	855	6	4	53	mem	con	mod	mod	low	nt	ms	nh/0512_nh.bmp
622.80	0.72	856	5	1	43	per	con	low	mod	low	tg	ms	wh/0672.bmp
623.52	0.72	857	6	1	84	per	lib	mod	mod	mod	tg	ht	wh/0665.bmp
624.24	0.72	858	6	2	124	mem	con	mod	mod	low	tg	ht	wh/0203.bmp
624.96	0.72	859	6	2	98	mem	lib	mod	mod	low	nt	ht	nh/0295_nh.bmp
625.68	0.72	860	1	4	44	mem	lib	low	low	mod	tg	ht	wh/0085.bmp
626.40	0.72	861	6	4	112	mem	lib	mod	mod	low	nt	ht	nh/0131_nh.bmp
627.12	0.72	862	6	1	56	mem	lib	mod	mod	mod	nt	ht	nh/0901_nh.bmp
627.84	0.72	863	6	3	112	mem	con	mod	mod	mod	nt	ht	nh/0861_nh.bmp
628.56	0.72	864	6	3	44	per	lib	low	mod	low	nt	fa	nh/0166_nh.bmp
629.28	0.72	865	1	4	80	per	con	mod	low	mod	nt	cr	nh/0346_nh.bmp
630.00	0.72	866	6	3	41	per	lib	low	mod	low	tg	ht	wh/0081.bmp
630.72	0.72	867	6	3	50	mem	lib	mod	mod	mod	tg	ht	wh/0490.bmp
631.44	0.72	868	1	3	1	mem	lib	low	low	low	tg	ht	wh/0653.bmp
632.16	0.72	869	6	1	116	mem	con	mod	mod	mod	nt	ms	nh/0761_nh.bmp
632.88	0.72	870	6	1	119	mem	con	mod	mod	mod	tg	ms	wh/0674.bmp
633.60	0.72	871	6	1	34	per	con	low	mod	low	nt	cr	nh/0882_nh.bmp
634.32	0.72	872	1	4	79	per	con	mod	low	mod	tg	ht	wh/0667.bmp
635.04	0.72	873	5	2	59	per	lib	low	mod	low	nt	cr	nh/0412_nh.bmp
635.76	0.72	874	5	3	36	per	lib	low	mod	low	nt	cr	nh/0410_nh.bmp
636.48	0.72	875	6	3	96	per	con	low	mod	low	tg	ms	wh/0195.bmp
637.20	0.72	876	6	2	59	per	lib	low	mod	low	nt	cr	nh/0412_nh.bmp
637.92	0.72	877	6	3	55	mem	lib	mod	mod	mod	nt	ht	nh/0538_nh.bmp
638.64	0.72	878	6	1	43	per	con	low	mod	low	tg	ms	wh/0672.bmp
639.36	0.72	879	1	2	73	mem	con	low	low	mod	tg	ms	wh/0813.bmp
640.08	0.72	880	6	3	100	mem	con	mod	mod	mod	tg	ms	wh/0834.bmp
640.80	0.72	881	6	2	118	mem	con	mod	mod	low	nt	ms	nh/0124_nh.bmp
641.52	0.72	882	6	2	54	per	lib	low	mod	low	tg	ms	wh/0438.bmp
642.24	0.72	883	6	2	112	mem	lib	mod	mod	low	nt	ht	nh/0444_nh.bmp
642.96	0.72	884	6	1	83	per	lib	mod	mod	mod	nt	cr	nh/0796_nh.bmp
643.68	0.72	885	6	3	49	mem	lib	mod	mod	mod	tg	ht	wh/0753.bmp
644.40	0.72	886	6	3	36	per	lib	low	mod	low	nt	cr	nh/0410_nh.bmp
645.12	0.72	887	1	3	78	per	lib	mod	low	mod	tg	ht	wh/0644.bmp
645.84	0.72	888	6	4	94	per	lib	mod	mod	mod	tg	ht	wh/0592.bmp
646.56	0.72	889	6	3	91	per	con	low	mod	low	nt	cr	nh/0703_nh.bmp
647.28	0.72	890	1	1	74	mem	con	low	low	low	nt	ht	nh/0110_nh.bmp
648.00	0.72	891	6	3	52	mem	lib	mod	mod	mod	nt	ht	nh/0343_nh.bmp
648.72	0.72	892	6	2	104	mem	lib	mod	mod	low	tg	ht	wh/0791.bmp
649.44	0.72	893	6	1	88	per	lib	mod	mod	mod	nt	cr	nh/0738_nh.bmp
650.16	0.72	894	6	2	116	mem	con	mod	mod	low	tg	ms	wh/0386.bmp
650.88	0.72	895	6	2	119	mem	con	mod	mod	low	tg	ht	wh/0323.bmp
651.60	0.72	896	6	3	122	per	con	mod	mod	mod	tg	ms	wh/0061.bmp
