onset	duration	trial	pres	ts_blk	ts_trl	task	crit	disc	mem_disc	per_disc	per_type	accuracy	stim_file
7.20	0.72	1	1	8	20	per	con	mod	mod	mod	tg	ht	wh/0187.bmp
7.92	0.72	2	1	6	121	per	lib	mod	mod	mod	tg	ht	wh/0772.bmp
8.64	0.72	3	1	8	7	per	con	low	mod	low	nt	cr	nh/0355_nh.bmp
9.36	0.72	4	1	6	78	mem	con	mod	mod	low	tg	ms	wh/0489.bmp
10.08	0.72	5	1	5	115	per	lib	mod	low	mod	tg	ht	wh/1018.bmp
10.80	0.72	6	1	5	93	per	con	mod	mod	mod	nt	fa	nh/0805_nh.bmp
11.52	0.72	7	1	5	51	per	lib	low	mod	low	nt	fa	nh/0690_nh.bmp
12.24	0.72	8	1	5	64	per	lib	low	mod	low	tg	ms	wh/0232.bmp
12.96	0.72	9	1	6	66	mem	con	mod	mod	low	nt	ms	nh/0508_nh.bmp
13.68	0.72	10	1	6	52	mem	lib	mod	mod	mod	nt	ht	nh/0748_nh.bmp
14.40	0.72	11	1	7	128	mem	lib	mod	mod	low	nt	ht	nh/0934_nh.bmp
15.12	0.72	12	1	8	83	mem	lib	mod	mod	mod	nt	ht	nh/0684_nh.bmp
15.84	0.72	13	1	6	62	mem	lib	mod	mod	mod	nt	ht	nh/0962_nh.bmp
16.56	0.72	14	1	5	122	per	lib	mod	low	mod	nt	fa	nh/0949_nh.bmp
17.28	0.72	15	1	8	16	per	con	low	mod	low	tg	ms	wh/0351.bmp
18.00	0.72	16	1	8	114	mem	con	mod	mod	low	tg	ms	wh/0074.bmp
18.72	0.72	17	1	6	51	mem	lib	mod	mod	mod	tg	ht	wh/0339.bmp
19.44	0.72	18	1	7	124	mem	lib	mod	mod	low	tg	ht	wh/0082.bmp
20.16	0.72	19	1	6	3	per	con	low	mod	low	tg	ms	wh/0284.bmp
20.88	0.72	20	1	8	128	mem	con	mod	mod	low	nt	ms	nh/0383_nh.bmp
21.60	0.72	21	1	5	55	per	lib	low	mod	low	tg	ht	wh/0036.bmp
22.32	0.72	22	1	6	60	mem	lib	mod	mod	mod	tg	ht	wh/0558.bmp
23.04	0.72	23	1	8	96	mem	lib	mod	mod	mod	tg	ht	wh/0328.bmp
23.76	0.72	24	1	5	112	mem	lib	low	low	low	nt	ht	nh/0488_nh.bmp
24.48	0.72	25	1	7	85	per	lib	low	mod	low	nt	cr	nh/0963_nh.bmp
25.20	0.72	26	1	8	2	per	con	low	mod	low	nt	cr	nh/0404_nh.bmp
25.92	0.72	27	1	7	109	per	lib	mod	mod	mod	nt	fa	nh/0099_nh.bmp
26.64	0.72	28	2	6	66	mem	con	mod	mod	low	nt	ms	nh/0508_nh.bmp
27.36	0.72	29	1	5	21	mem	con	mod	mod	mod	nt	ms	nh/0784_nh.bmp
28.08	0.72	30	1	8	125	mem	con	mod	mod	low	tg	ms	wh/0190.bmp
28.80	0.72	31	1	7	126	mem	lib	mod	mod	low	tg	ht	wh/0608.bmp
29.52	0.72	32	1	6	126	per	lib	mod	mod	mod	nt	fa	nh/0909_nh.bmp
30.24	0.72	33	2	8	125	mem	con	mod	mod	low	tg	ms	wh/0190.bmp
30.96	0.72	34	1	5	29	mem	con	mod	mod	mod	nt	ms	nh/0447_nh.bmp
31.68	0.72	35	1	5	6	mem	lib	mod	mod	low	tg	ht	wh/0079.bmp
32.40	0.72	36	1	7	63	mem	con	mod	mod	mod	tg	ht	wh/0954.bmp
33.12	0.72	37	1	6	80	mem	con	mod	mod	low	nt	ms	nh/0568_nh.bmp
33.84	0.72	38	1	5	103	mem	lib	low	low	low	nt	ht	nh/0215_nh.bmp
34.56	0.72	39	1	6	73	mem	con	mod	mod	low	tg	ht	wh/0619.bmp
35.28	0.72	40	1	8	90	mem	lib	mod	mod	mod	nt	ht	nh/0380_nh.bmp
36.00	0.72	41	2	6	51	mem	lib	mod	mod	mod	tg	ht	wh/0339.bmp
36.72	0.72	42	1	6	117	per	lib	mod	mod	mod	tg	ht	wh/0540.bmp
37.44	0.72	43	1	5	34	per	con	low	low	low	nt	cr	nh/0768_nh.bmp
38.16	0.72	44	1	7	50	mem	con	mod	mod	mod	tg	ht	wh/0697.bmp
38.88	0.72	45	1	7	88	per	lib	low	mod	low	nt	fa	nh/0194_nh.bmp
39.60	0.72	46	1	8	35	mem	lib	low	low	mod	nt	ht	nh/0306_nh.bmp
40.32	0.72	47	1	7	115	mem	lib	mod	mod	low	tg	ht	wh/0964.bmp
41.04	0.72	48	2	5	64	per	lib	low	mod	low	tg	ms	wh/0232.bmp
41.76	0.72	49	1	5	4	mem	lib	mod	mod	low	nt	ht	nh/0417_nh.bmp
42.48	0.72	50	1	7	123	mem	lib	mod	mod	low	nt	ht	nh/0123_nh.bmp
43.20	0.72	51	1	7	94	per	lib	low	mod	low	tg	ms	wh/0032.bmp
43.92	0.72	52	1	8	32	per	con	mod	mod	mod	tg	ms	wh/0319.bmp
44.64	0.72	53	1	8	43	mem	lib	low	low	mod	tg	ht	wh/0626.bmp
45.36	0.72	54	1	7	64	mem	con	mod	mod	mod	tg	ms	wh/0876.bmp
46.08	0.72	55	2	7	128	mem	lib	mod	mod	low	nt	ht	nh/0934_nh.bmp
46.80	0.72	56	1	8	82	mem	lib	mod	mod	mod	nt	ht	nh/0795_nh.bmp
47.52	0.72	57	1	5	58	per	lib	low	mod	low	tg	ht	wh/0077.bmp
48.24	0.72	58	1	8	65	mem	con	low	low	mod	tg	ms	wh/0933.bmp
48.96	0.72	59	1	8	84	mem	lib	mod	mod	mod	tg	ht	wh/0398.bmp
49.68	0.72	60	2	6	60	mem	lib	mod	mod	mod	tg	ht	wh/0558.bmp
50.40	0.72	61	1	7	89	per	lib	low	mod	low	nt	fa	nh/0035_nh.bmp
51.12	0.72	62	3	6	66	mem	con	mod	mod	low	nt	ms	nh/0508_nh.bmp
51.84	0.72	63	2	8	84	mem	lib	mod	mod	mod	tg	ht	wh/0398.bmp
52.56	0.72	64	1	7	103	per	lib	mod	mod	mod	nt	fa	nh/0714_nh.bmp
53.28	0.72	65	2	8	83	mem	lib	mod	mod	mod	nt	ht	nh/0684_nh.bmp
54.00	0.72	66	1	8	19	per	con	mod	mod	mod	nt	cr	nh/0222_nh.bmp
54.72	0.72	67	1	8	5	per	con	low	mod	low	nt	cr	nh/0744_nh.bmp
55.44	0.72	68	1	8	89	mem	lib	mod	mod	mod	tg	ht	wh/0591.bmp
56.16	0.72	69	2	7	50	mem	con	mod	mod	mod	tg	ht	wh/0697.bmp
56.88	0.72	70	1	6	128	per	lib	mod	mod	mod	nt	fa	nh/0928_nh.bmp
57.60	0.72	71	1	7	95	per	lib	low	mod	low	tg	ms	wh/0080.bmp
58.32	0.72	72	2	7	115	mem	lib	mod	mod	low	tg	ht	wh/0964.bmp
59.04	0.72	73	1	6	12	per	con	low	mod	low	tg	ms	wh/0299.bmp
59.76	0.72	74	1	6	58	mem	lib	mod	mod	mod	nt	ht	nh/0957_nh.bmp
60.48	0.72	75	1	5	85	per	con	mod	mod	mod	nt	cr	nh/0428_nh.bmp
61.20	0.72	76	2	6	126	per	lib	mod	mod	mod	nt	fa	nh/0909_nh.bmp
61.92	0.72	77	1	6	124	per	lib	mod	mod	mod	tg	ht	wh/0807.bmp
62.64	0.72	78	2	6	128	per	lib	mod	mod	mod	nt	fa	nh/0928_nh.bmp
63.36	0.72	79	1	5	16	mem	lib	mod	mod	low	tg	ht	wh/0451.bmp
64.08	0.72	80	1	5	52	per	lib	low	mod	low	nt	cr	nh/0760_nh.bmp
64.80	0.72	81	1	7	106	per	lib	mod	mod	mod	nt	fa	nh/0196_nh.bmp
65.52	0.72	82	2	5	6	mem	lib	mod	mod	low	tg	ht	wh/0079.bmp
66.24	0.72	83	1	5	127	per	lib	mod	low	mod	tg	ht	wh/0838.bmp
66.96	0.72	84	1	8	27	per	con	mod	mod	mod	tg	ms	wh/0855.bmp
67.68	0.72	85	2	8	32	per	con	mod	mod	mod	tg	ms	wh/0319.bmp
68.40	0.72	86	1	7	102	per	lib	mod	mod	mod	tg	ht	wh/0542.bmp
69.12	0.72	87	1	5	24	mem	con	mod	mod	mod	nt	ms	nh/0563_nh.bmp
69.84	0.72	88	1	7	110	per	lib	mod	mod	mod	nt	fa	nh/0446_nh.bmp
70.56	0.72	89	1	7	93	per	lib	low	mod	low	tg	ht	wh/0646.bmp
71.28	0.72	90	1	6	11	per	con	low	mod	low	nt	cr	nh/0338_nh.bmp
72.00	0.72	91	1	5	82	per	con	mod	mod	mod	tg	ms	wh/0904.bmp
72.72	0.72	92	1	6	4	per	con	low	mod	low	nt	cr	nh/0134_nh.bmp
73.44	0.72	93	2	5	58	per	lib	low	mod	low	tg	ht	wh/0077.bmp
74.16	0.72	94	2	7	123	mem	lib	mod	mod	low	nt	ht	nh/0123_nh.bmp
74.88	0.72	95	2	7	63	mem	con	mod	mod	mod	tg	ht	wh/0954.bmp
75.60	0.72	96	2	6	3	per	con	low	mod	low	tg	ms	wh/0284.bmp
76.32	0.72	97	1	6	57	mem	lib	mod	mod	mod	nt	ht	nh/0946_nh.bmp
77.04	0.72	98	3	6	3	per	con	low	mod	low	tg	ms	wh/0284.bmp
77.76	0.72	99	1	7	53	mem	con	mod	mod	mod	nt	ms	nh/0843_nh.bmp
78.48	0.72	100	2	6	58	mem	lib	mod	mod	mod	nt	ht	nh/0957_nh.bmp
79.20	0.72	101	1	5	32	mem	con	mod	mod	mod	nt	ms	nh/0548_nh.bmp
79.92	0.72	102	2	8	19	per	con	mod	mod	mod	nt	cr	nh/0222_nh.bmp
80.64	0.72	103	3	7	128	mem	lib	mod	mod	low	nt	ht	nh/0934_nh.bmp
81.36	0.72	104	2	6	80	mem	con	mod	mod	low	nt	ms	nh/0568_nh.bmp
82.08	0.72	105	4	7	128	mem	lib	mod	mod	low	nt	ht	nh/0934_nh.bmp
82.80	0.72	106	1	6	116	per	lib	mod	mod	mod	nt	fa	nh/0803_nh.bmp
83.52	0.72	107	3	7	50	mem	con	mod	mod	mod	tg	ht	wh/0697.bmp
84.24	0.72	108	2	8	114	mem	con	mod	mod	low	tg	ms	wh/0074.bmp
84.96	0.72	109	1	8	117	mem	con	mod	mod	low	nt	ms	nh/0465_nh.bmp
85.68	0.72	110	2	6	121	per	lib	mod	mod	mod	tg	ht	wh/0772.bmp
86.40	0.72	111	4	7	50	mem	con	mod	mod	mod	tg	ht	wh/0697.bmp
87.12	0.72	112	2	5	85	per	con	mod	mod	mod	nt	cr	nh/0428_nh.bmp
87.84	0.72	113	3	5	85	per	con	mod	mod	mod	nt	cr	nh/0428_nh.bmp
88.56	0.72	114	1	6	2	per	con	low	mod	low	nt	cr	nh/0510_nh.bmp
89.28	0.72	115	1	5	87	per	con	mod	mod	mod	nt	cr	nh/0209_nh.bmp
90.00	0.72	116	2	5	24	mem	con	mod	mod	mod	nt	ms	nh/0563_nh.bmp
90.72	0.72	117	1	7	125	mem	lib	mod	mod	low	nt	ht	nh/1023_nh.bmp
91.44	0.72	118	2	5	16	mem	lib	mod	mod	low	tg	ht	wh/0451.bmp
92.16	0.72	119	1	7	97	per	lib	mod	mod	mod	tg	ht	wh/0594.bmp
92.88	0.72	120	2	7	93	per	lib	low	mod	low	tg	ht	wh/0646.bmp
93.60	0.72	121	3	6	60	mem	lib	mod	mod	mod	tg	ht	wh/0558.bmp
94.32	0.72	122	1	8	126	mem	con	mod	mod	low	tg	ms	wh/0967.bmp
95.04	0.72	123	1	6	6	per	con	low	mod	low	nt	cr	nh/0345_nh.bmp
95.76	0.72	124	2	6	62	mem	lib	mod	mod	mod	nt	ht	nh/0962_nh.bmp
96.48	0.72	125	1	8	53	per	lib	low	low	low	nt	fa	nh/0225_nh.bmp
97.20	0.72	126	3	8	125	mem	con	mod	mod	low	tg	ms	wh/0190.bmp
97.92	0.72	127	2	7	85	per	lib	low	mod	low	nt	cr	nh/0963_nh.bmp
98.64	0.72	128	2	7	64	mem	con	mod	mod	mod	tg	ms	wh/0876.bmp
99.36	0.72	129	1	7	119	mem	lib	mod	mod	low	nt	ht	nh/0493_nh.bmp
100.08	0.72	130	1	7	58	mem	con	mod	mod	mod	nt	ms	nh/0396_nh.bmp
100.80	0.72	131	2	7	88	per	lib	low	mod	low	nt	fa	nh/0194_nh.bmp
101.52	0.72	132	2	6	78	mem	con	mod	mod	low	tg	ms	wh/0489.bmp
102.24	0.72	133	2	7	103	per	lib	mod	mod	mod	nt	fa	nh/0714_nh.bmp
102.96	0.72	134	1	5	10	mem	lib	mod	mod	low	tg	ht	wh/0336.bmp
103.68	0.72	135	1	6	70	mem	con	mod	mod	low	tg	ms	wh/0893.bmp
104.40	0.72	136	1	6	72	mem	con	mod	mod	low	nt	ms	nh/0503_nh.bmp
105.12	0.72	137	1	5	18	mem	con	mod	mod	mod	tg	ms	wh/0947.bmp
105.84	0.72	138	2	7	110	per	lib	mod	mod	mod	nt	fa	nh/0446_nh.bmp
106.56	0.72	139	2	6	52	mem	lib	mod	mod	mod	nt	ht	nh/0748_nh.bmp
107.28	0.72	140	3	8	84	mem	lib	mod	mod	mod	tg	ht	wh/0398.bmp
108.00	0.72	141	2	5	52	per	lib	low	mod	low	nt	cr	nh/0760_nh.bmp
108.72	0.72	142	2	5	18	mem	con	mod	mod	mod	tg	ms	wh/0947.bmp
109.44	0.72	143	2	5	29	mem	con	mod	mod	mod	nt	ms	nh/0447_nh.bmp
110.16	0.72	144	3	8	114	mem	con	mod	mod	low	tg	ms	wh/0074.bmp
110.88	0.72	145	2	8	82	mem	lib	mod	mod	mod	nt	ht	nh/0795_nh.bmp
111.60	0.72	146	2	8	7	per	con	low	mod	low	nt	cr	nh/0355_nh.bmp
112.32	0.72	147	2	5	4	mem	lib	mod	mod	low	nt	ht	nh/0417_nh.bmp
113.04	0.72	148	2	7	119	mem	lib	mod	mod	low	nt	ht	nh/0493_nh.bmp
113.76	0.72	149	1	8	26	per	con	mod	mod	mod	nt	fa	nh/0199_nh.bmp
114.48	0.72	150	2	8	117	mem	con	mod	mod	low	nt	ms	nh/0465_nh.bmp
115.20	0.72	151	1	6	90	per	con	mod	low	mod	nt	cr	nh/0966_nh.bmp
115.92	0.72	152	3	7	119	mem	lib	mod	mod	low	nt	ht	nh/0493_nh.bmp
116.64	0.72	153	2	6	73	mem	con	mod	mod	low	tg	ht	wh/0619.bmp
117.36	0.72	154	1	7	113	mem	lib	mod	mod	low	tg	ht	wh/0635.bmp
118.08	0.72	155	1	7	84	per	lib	low	mod	low	nt	fa	nh/0660_nh.bmp
118.80	0.72	156	3	6	128	per	lib	mod	mod	mod	nt	fa	nh/0928_nh.bmp
119.52	0.72	157	1	8	118	mem	con	mod	mod	low	nt	ht	nh/0125_nh.bmp
120.24	0.72	158	2	7	102	per	lib	mod	mod	mod	tg	ht	wh/0542.bmp
120.96	0.72	159	3	8	82	mem	lib	mod	mod	mod	nt	ht	nh/0795_nh.bmp
121.68	0.72	160	1	7	101	per	lib	mod	mod	mod	tg	ht	wh/0543.bmp
122.40	0.72	161	4	8	82	mem	lib	mod	mod	mod	nt	ht	nh/0795_nh.bmp
123.12	0.72	162	3	5	16	mem	lib	mod	mod	low	tg	ht	wh/0451.bmp
123.84	0.72	163	2	6	124	per	lib	mod	mod	mod	tg	ht	wh/0807.bmp
124.56	0.72	164	1	6	42	per	lib	low	low	low	tg	ht	wh/0197.bmp
125.28	0.72	165	2	5	32	mem	con	mod	mod	mod	nt	ms	nh/0548_nh.bmp
126.00	0.72	166	3	8	19	per	con	mod	mod	mod	nt	cr	nh/0222_nh.bmp
126.72	0.72	167	1	5	86	per	con	mod	mod	mod	tg	ms	wh/0810.bmp
127.44	0.72	168	1	5	54	per	lib	low	mod	low	nt	cr	nh/0443_nh.bmp
128.16	0.72	169	1	7	79	per	con	mod	low	mod	tg	ms	wh/0129.bmp
128.88	0.72	170	1	8	8	per	con	low	mod	low	tg	ms	wh/0256.bmp
129.60	0.72	171	1	6	76	mem	con	mod	mod	low	nt	ms	nh/0577_nh.bmp
130.32	0.72	172	5	8	82	mem	lib	mod	mod	mod	nt	ht	nh/0795_nh.bmp
131.04	0.72	173	1	8	101	per	lib	mod	low	mod	tg	ms	wh/0870.bmp
131.76	0.72	174	1	7	87	per	lib	low	mod	low	tg	ht	wh/0940.bmp
132.48	0.72	175	3	6	62	mem	lib	mod	mod	mod	nt	ht	nh/0962_nh.bmp
133.20	0.72	176	3	6	80	mem	con	mod	mod	low	nt	ms	nh/0568_nh.bmp
133.92	0.72	177	2	5	55	per	lib	low	mod	low	tg	ht	wh/0036.bmp
134.64	0.72	178	1	6	127	per	lib	mod	mod	mod	nt	fa	nh/0371_nh.bmp
135.36	0.72	179	2	8	8	per	con	low	mod	low	tg	ms	wh/0256.bmp
136.08	0.72	180	4	6	80	mem	con	mod	mod	low	nt	ms	nh/0568_nh.bmp
136.80	0.72	181	1	8	23	per	con	mod	mod	mod	nt	cr	nh/0941_nh.bmp
137.52	0.72	182	2	7	95	per	lib	low	mod	low	tg	ms	wh/0080.bmp
138.24	0.72	183	1	7	105	per	lib	mod	mod	mod	tg	ht	wh/0680.bmp
138.96	0.72	184	2	7	101	per	lib	mod	mod	mod	tg	ht	wh/0543.bmp
139.68	0.72	185	1	5	118	per	lib	mod	low	mod	nt	cr	nh/1024_nh.bmp
140.40	0.72	186	1	5	26	mem	con	mod	mod	mod	tg	ht	wh/0973.bmp
141.12	0.72	187	3	7	110	per	lib	mod	mod	mod	nt	fa	nh/0446_nh.bmp
141.84	0.72	188	3	7	88	per	lib	low	mod	low	nt	fa	nh/0194_nh.bmp
142.56	0.72	189	2	6	72	mem	con	mod	mod	low	nt	ms	nh/0503_nh.bmp
143.28	0.72	190	2	6	76	mem	con	mod	mod	low	nt	ms	nh/0577_nh.bmp
144.00	0.72	191	2	8	23	per	con	mod	mod	mod	nt	cr	nh/0941_nh.bmp
144.72	0.72	192	3	6	124	per	lib	mod	mod	mod	tg	ht	wh/0807.bmp
145.44	0.72	193	1	5	66	mem	con	low	low	mod	tg	ms	wh/0669.bmp
146.16	0.72	194	2	6	6	per	con	low	mod	low	nt	cr	nh/0345_nh.bmp
146.88	0.72	195	1	6	85	per	con	mod	low	mod	nt	cr	nh/0531_nh.bmp
147.60	0.72	196	1	7	7	mem	con	low	low	low	nt	ms	nh/0483_nh.bmp
148.32	0.72	197	2	8	20	per	con	mod	mod	mod	tg	ht	wh/0187.bmp
149.04	0.72	198	4	5	16	mem	lib	mod	mod	low	tg	ht	wh/0451.bmp
149.76	0.72	199	2	8	128	mem	con	mod	mod	low	nt	ms	nh/0383_nh.bmp
150.48	0.72	200	2	5	54	per	lib	low	mod	low	nt	cr	nh/0443_nh.bmp
151.20	0.72	201	1	8	103	per	lib	mod	low	mod	tg	ht	wh/0025.bmp
151.92	0.72	202	2	8	27	per	con	mod	mod	mod	tg	ms	wh/0855.bmp
152.64	0.72	203	1	8	127	mem	con	mod	mod	low	tg	ms	wh/0075.bmp
153.36	0.72	204	1	5	14	mem	lib	mod	mod	low	nt	ht	nh/0153_nh.bmp
154.08	0.72	205	5	6	80	mem	con	mod	mod	low	nt	ms	nh/0568_nh.bmp
154.80	0.72	206	4	6	66	mem	con	mod	mod	low	nt	ms	nh/0508_nh.bmp
155.52	0.72	207	2	5	87	per	con	mod	mod	mod	nt	cr	nh/0209_nh.bmp
156.24	0.72	208	2	6	70	mem	con	mod	mod	low	tg	ms	wh/0893.bmp
156.96	0.72	209	3	5	18	mem	con	mod	mod	mod	tg	ms	wh/0947.bmp
157.68	0.72	210	3	6	121	per	lib	mod	mod	mod	tg	ht	wh/0772.bmp
158.40	0.72	211	3	5	55	per	lib	low	mod	low	tg	ht	wh/0036.bmp
159.12	0.72	212	3	6	51	mem	lib	mod	mod	mod	tg	ht	wh/0339.bmp
159.84	0.72	213	2	8	2	per	con	low	mod	low	nt	cr	nh/0404_nh.bmp
160.56	0.72	214	1	7	56	mem	con	mod	mod	mod	tg	ms	wh/0095.bmp
161.28	0.72	215	4	6	3	per	con	low	mod	low	tg	ms	wh/0284.bmp
162.00	0.72	216	2	6	116	per	lib	mod	mod	mod	nt	fa	nh/0803_nh.bmp
162.72	0.72	217	1	7	9	mem	con	low	low	low	tg	ms	wh/0710.bmp
163.44	0.72	218	2	7	56	mem	con	mod	mod	mod	tg	ms	wh/0095.bmp
164.16	0.72	219	2	7	126	mem	lib	mod	mod	low	tg	ht	wh/0608.bmp
164.88	0.72	220	3	7	101	per	lib	mod	mod	mod	tg	ht	wh/0543.bmp
165.60	0.72	221	1	8	80	mem	con	low	low	mod	nt	ms	nh/0846_nh.bmp
166.32	0.72	222	5	6	3	per	con	low	mod	low	tg	ms	wh/0284.bmp
167.04	0.72	223	2	6	11	per	con	low	mod	low	nt	cr	nh/0338_nh.bmp
167.76	0.72	224	4	6	121	per	lib	mod	mod	mod	tg	ht	wh/0772.bmp
168.48	0.72	225	1	5	45	per	con	low	low	low	tg	ms	wh/0845.bmp
169.20	0.72	226	3	8	2	per	con	low	mod	low	nt	cr	nh/0404_nh.bmp
169.92	0.72	227	1	7	20	mem	lib	low	low	low	tg	ht	wh/0439.bmp
170.64	0.72	228	2	7	87	per	lib	low	mod	low	tg	ht	wh/0940.bmp
171.36	0.72	229	1	8	116	mem	con	mod	mod	low	nt	ms	nh/0238_nh.bmp
172.08	0.72	230	3	6	58	mem	lib	mod	mod	mod	nt	ht	nh/0957_nh.bmp
172.80	0.72	231	2	5	93	per	con	mod	mod	mod	nt	fa	nh/0805_nh.bmp
173.52	0.72	232	1	7	52	mem	con	mod	mod	mod	nt	ms	nh/0588_nh.bmp
174.24	0.72	233	6	8	82	mem	lib	mod	mod	mod	nt	ht	nh/0795_nh.bmp
174.96	0.72	234	1	6	74	mem	con	mod	mod	low	tg	ms	wh/0029.bmp
175.68	0.72	235	2	6	74	mem	con	mod	mod	low	tg	ms	wh/0029.bmp
176.40	0.72	236	1	8	57	per	lib	low	low	low	tg	ht	wh/0013.bmp
177.12	0.72	237	1	6	13	per	con	low	mod	low	tg	ms	wh/0329.bmp
177.84	0.72	238	1	5	5	mem	lib	mod	mod	low	nt	ht	nh/0613_nh.bmp
178.56	0.72	239	5	6	66	mem	con	mod	mod	low	nt	ms	nh/0508_nh.bmp
179.28	0.72	240	1	8	94	mem	lib	mod	mod	mod	nt	ht	nh/0442_nh.bmp
180.00	0.72	241	1	8	10	per	con	low	mod	low	nt	cr	nh/0730_nh.bmp
180.72	0.72	242	1	5	17	mem	con	mod	mod	mod	tg	ms	wh/0462.bmp
181.44	0.72	243	4	5	18	mem	con	mod	mod	mod	tg	ms	wh/0947.bmp
182.16	0.72	244	2	6	2	per	con	low	mod	low	nt	cr	nh/0510_nh.bmp
182.88	0.72	245	1	5	89	per	con	mod	mod	mod	tg	ms	wh/0182.bmp
183.60	0.72	246	2	6	4	per	con	low	mod	low	nt	cr	nh/0134_nh.bmp
184.32	0.72	247	2	7	52	mem	con	mod	mod	mod	nt	ms	nh/0588_nh.bmp
185.04	0.72	248	2	5	82	per	con	mod	mod	mod	tg	ms	wh/0904.bmp
185.76	0.72	249	1	8	13	per	con	low	mod	low	tg	n/a	wh/0758.bmp
186.48	0.72	250	4	7	110	per	lib	mod	mod	mod	nt	fa	nh/0446_nh.bmp
187.20	0.72	251	2	7	124	mem	lib	mod	mod	low	tg	ht	wh/0082.bmp
187.92	0.72	252	2	5	10	mem	lib	mod	mod	low	tg	ht	wh/0336.bmp
188.64	0.72	253	1	7	35	per	con	low	low	low	tg	ms	wh/0823.bmp
189.36	0.72	254	1	6	21	mem	con	low	low	low	tg	ms	wh/0579.bmp
190.08	0.72	255	2	7	89	per	lib	low	mod	low	nt	fa	nh/0035_nh.bmp
190.80	0.72	256	2	5	51	per	lib	low	mod	low	nt	fa	nh/0690_nh.bmp
191.52	0.72	257	1	5	95	per	con	mod	mod	mod	nt	cr	nh/0273_nh.bmp
192.24	0.72	258	3	5	4	mem	lib	mod	mod	low	nt	ht	nh/0417_nh.bmp
192.96	0.72	259	2	8	16	per	con	low	mod	low	tg	ms	wh/0351.bmp
193.68	0.72	260	1	7	16	mem	con	low	low	low	tg	ms	wh/0571.bmp
194.40	0.72	261	3	8	32	per	con	mod	mod	mod	tg	ms	wh/0319.bmp
195.12	0.72	262	1	6	109	mem	lib	low	low	mod	nt	ht	nh/0216_nh.bmp
195.84	0.72	263	1	6	8	per	con	low	mod	low	tg	ms	wh/0382.bmp
196.56	0.72	264	3	6	11	per	con	low	mod	low	nt	cr	nh/0338_nh.bmp
197.28	0.72	265	4	6	51	mem	lib	mod	mod	mod	tg	ht	wh/0339.bmp
198.00	0.72	266	1	8	4	per	con	low	mod	low	tg	ms	wh/0364.bmp
198.72	0.72	267	3	5	52	per	lib	low	mod	low	nt	cr	nh/0760_nh.bmp
199.44	0.72	268	4	6	58	mem	lib	mod	mod	mod	nt	ht	nh/0957_nh.bmp
200.16	0.72	269	1	6	119	per	lib	mod	mod	mod	tg	ht	wh/0716.bmp
200.88	0.72	270	3	7	103	per	lib	mod	mod	mod	nt	fa	nh/0714_nh.bmp
201.60	0.72	271	1	6	103	mem	lib	low	low	mod	tg	ht	wh/0923.bmp
202.32	0.72	272	2	7	113	mem	lib	mod	mod	low	tg	ht	wh/0635.bmp
203.04	0.72	273	4	6	124	per	lib	mod	mod	mod	tg	ht	wh/0807.bmp
203.76	0.72	274	3	7	124	mem	lib	mod	mod	low	tg	ht	wh/0082.bmp
204.48	0.72	275	3	6	70	mem	con	mod	mod	low	tg	ms	wh/0893.bmp
205.20	0.72	276	3	7	52	mem	con	mod	mod	mod	nt	ms	nh/0588_nh.bmp
205.92	0.72	277	3	5	29	mem	con	mod	mod	mod	nt	ms	nh/0447_nh.bmp
206.64	0.72	278	2	8	4	per	con	low	mod	low	tg	ms	wh/0364.bmp
207.36	0.72	279	2	6	8	per	con	low	mod	low	tg	ms	wh/0382.bmp
208.08	0.72	280	1	6	25	mem	con	low	low	low	nt	ms	nh/0930_nh.bmp
208.80	0.72	281	3	6	8	per	con	low	mod	low	tg	ms	wh/0382.bmp
209.52	0.72	282	1	8	87	mem	lib	mod	mod	mod	tg	ht	wh/0902.bmp
210.24	0.72	283	3	7	56	mem	con	mod	mod	mod	tg	ms	wh/0095.bmp
210.96	0.72	284	1	8	76	mem	con	low	low	mod	nt	ms	nh/0721_nh.bmp
211.68	0.72	285	4	7	52	mem	con	mod	mod	mod	nt	ms	nh/0588_nh.bmp
212.40	0.72	286	3	6	76	mem	con	mod	mod	low	nt	ms	nh/0577_nh.bmp
213.12	0.72	287	2	8	126	mem	con	mod	mod	low	tg	ms	wh/0967.bmp
213.84	0.72	288	2	8	94	mem	lib	mod	mod	mod	nt	ht	nh/0442_nh.bmp
214.56	0.72	289	2	7	125	mem	lib	mod	mod	low	nt	ht	nh/1023_nh.bmp
215.28	0.72	290	1	8	66	mem	con	low	low	mod	nt	ms	nh/0038_nh.bmp
216.00	0.72	291	2	5	26	mem	con	mod	mod	mod	tg	ht	wh/0973.bmp
216.72	0.72	292	3	7	102	per	lib	mod	mod	mod	tg	ht	wh/0542.bmp
217.44	0.72	293	2	8	90	mem	lib	mod	mod	mod	nt	ht	nh/0380_nh.bmp
218.16	0.72	294	2	5	5	mem	lib	mod	mod	low	nt	ht	nh/0613_nh.bmp
218.88	0.72	295	2	6	119	per	lib	mod	mod	mod	tg	ht	wh/0716.bmp
219.60	0.72	296	1	6	53	mem	lib	mod	mod	mod	tg	ht	wh/0350.bmp
220.32	0.72	297	2	7	106	per	lib	mod	mod	mod	nt	fa	nh/0196_nh.bmp
221.04	0.72	298	3	8	7	per	con	low	mod	low	nt	cr	nh/0355_nh.bmp
221.76	0.72	299	1	5	46	per	con	low	low	low	tg	ms	wh/0513.bmp
222.48	0.72	300	2	7	105	per	lib	mod	mod	mod	tg	ht	wh/0680.bmp
223.20	0.72	301	4	6	8	per	con	low	mod	low	tg	ms	wh/0382.bmp
223.92	0.72	302	5	6	8	per	con	low	mod	low	tg	ms	wh/0382.bmp
224.64	0.72	303	1	7	55	mem	con	mod	mod	mod	nt	ms	nh/0497_nh.bmp
225.36	0.72	304	2	8	26	per	con	mod	mod	mod	nt	fa	nh/0199_nh.bmp
226.08	0.72	305	2	6	53	mem	lib	mod	mod	mod	tg	ht	wh/0350.bmp
226.80	0.72	306	3	7	63	mem	con	mod	mod	mod	tg	ht	wh/0954.bmp
227.52	0.72	307	5	6	58	mem	lib	mod	mod	mod	nt	ht	nh/0957_nh.bmp
228.24	0.72	308	3	8	16	per	con	low	mod	low	tg	ms	wh/0351.bmp
228.96	0.72	309	3	6	6	per	con	low	mod	low	nt	cr	nh/0345_nh.bmp
229.68	0.72	310	2	5	86	per	con	mod	mod	mod	tg	ms	wh/0810.bmp
230.40	0.72	311	3	6	2	per	con	low	mod	low	nt	cr	nh/0510_nh.bmp
231.12	0.72	312	4	7	101	per	lib	mod	mod	mod	tg	ht	wh/0543.bmp
231.84	0.72	313	3	7	123	mem	lib	mod	mod	low	nt	ht	nh/0123_nh.bmp
232.56	0.72	314	1	8	104	per	lib	mod	low	mod	tg	ms	wh/0220.bmp
233.28	0.72	315	3	8	27	per	con	mod	mod	mod	tg	ms	wh/0855.bmp
234.00	0.72	316	3	6	78	mem	con	mod	mod	low	tg	ms	wh/0489.bmp
234.72	0.72	317	1	8	45	mem	lib	low	low	mod	tg	ht	wh/0569.bmp
235.44	0.72	318	2	8	89	mem	lib	mod	mod	mod	tg	ht	wh/0591.bmp
236.16	0.72	319	1	6	105	mem	lib	low	low	mod	nt	ht	nh/0068_nh.bmp
236.88	0.72	320	3	8	126	mem	con	mod	mod	low	tg	ms	wh/0967.bmp
237.60	0.72	321	2	8	127	mem	con	mod	mod	low	tg	ms	wh/0075.bmp
238.32	0.72	322	1	6	19	mem	con	low	low	low	nt	ms	nh/0701_nh.bmp
239.04	0.72	323	5	5	16	mem	lib	mod	mod	low	tg	ht	wh/0451.bmp
239.76	0.72	324	1	8	31	per	con	mod	mod	mod	tg	ms	wh/0094.bmp
240.48	0.72	325	1	5	106	mem	lib	low	low	low	nt	ht	nh/0148_nh.bmp
241.20	0.72	326	2	5	95	per	con	mod	mod	mod	nt	cr	nh/0273_nh.bmp
241.92	0.72	327	3	7	64	mem	con	mod	mod	mod	tg	ms	wh/0876.bmp
242.64	0.72	328	1	8	55	per	lib	low	low	low	tg	ht	wh/0881.bmp
243.36	0.72	329	1	5	99	mem	lib	low	low	low	tg	ht	wh/0112.bmp
244.08	0.72	330	2	7	55	mem	con	mod	mod	mod	nt	ms	nh/0497_nh.bmp
244.80	0.72	331	3	7	87	per	lib	low	mod	low	tg	ht	wh/0940.bmp
245.52	0.72	332	1	6	30	mem	con	low	low	low	tg	ms	wh/0185.bmp
246.24	0.72	333	3	5	51	per	lib	low	mod	low	nt	fa	nh/0690_nh.bmp
246.96	0.72	334	4	7	119	mem	lib	mod	mod	low	nt	ht	nh/0493_nh.bmp
247.68	0.72	335	2	6	57	mem	lib	mod	mod	mod	nt	ht	nh/0946_nh.bmp
248.40	0.72	336	4	7	102	per	lib	mod	mod	mod	tg	ht	wh/0542.bmp
249.12	0.72	337	1	5	15	mem	lib	mod	mod	low	nt	ht	nh/0802_nh.bmp
249.84	0.72	338	3	7	95	per	lib	low	mod	low	tg	ms	wh/0080.bmp
250.56	0.72	339	2	7	94	per	lib	low	mod	low	tg	ms	wh/0032.bmp
251.28	0.72	340	3	8	94	mem	lib	mod	mod	mod	nt	ht	nh/0442_nh.bmp
252.00	0.72	341	3	7	115	mem	lib	mod	mod	low	tg	ht	wh/0964.bmp
252.72	0.72	342	3	5	54	per	lib	low	mod	low	nt	cr	nh/0443_nh.bmp
253.44	0.72	343	1	5	61	per	lib	low	mod	low	tg	ht	wh/0818.bmp
254.16	0.72	344	3	5	26	mem	con	mod	mod	mod	tg	ht	wh/0973.bmp
254.88	0.72	345	4	8	84	mem	lib	mod	mod	mod	tg	ht	wh/0398.bmp
255.60	0.72	346	2	6	117	per	lib	mod	mod	mod	tg	ht	wh/0540.bmp
256.32	0.72	347	2	6	13	per	con	low	mod	low	tg	ms	wh/0329.bmp
257.04	0.72	348	2	6	127	per	lib	mod	mod	mod	nt	fa	nh/0371_nh.bmp
257.76	0.72	349	4	5	29	mem	con	mod	mod	mod	nt	ms	nh/0447_nh.bmp
258.48	0.72	350	2	7	109	per	lib	mod	mod	mod	nt	fa	nh/0099_nh.bmp
259.20	0.72	351	4	8	2	per	con	low	mod	low	nt	cr	nh/0404_nh.bmp
259.92	0.72	352	2	7	97	per	lib	mod	mod	mod	tg	ht	wh/0594.bmp
260.64	0.72	353	1	7	14	mem	con	low	low	low	tg	ms	wh/0695.bmp
261.36	0.72	354	3	7	94	per	lib	low	mod	low	tg	ms	wh/0032.bmp
262.08	0.72	355	3	7	85	per	lib	low	mod	low	nt	cr	nh/0963_nh.bmp
262.80	0.72	356	3	5	6	mem	lib	mod	mod	low	tg	ht	wh/0079.bmp
263.52	0.72	357	2	5	15	mem	lib	mod	mod	low	nt	ht	nh/0802_nh.bmp
264.24	0.72	358	1	7	45	per	con	low	low	low	nt	cr	nh/0956_nh.bmp
264.96	0.72	359	2	5	17	mem	con	mod	mod	mod	tg	ms	wh/0462.bmp
265.68	0.72	360	3	5	86	per	con	mod	mod	mod	tg	ms	wh/0810.bmp
266.40	0.72	361	3	6	117	per	lib	mod	mod	mod	tg	ht	wh/0540.bmp
267.12	0.72	362	3	6	72	mem	con	mod	mod	low	nt	ms	nh/0503_nh.bmp
267.84	0.72	363	2	8	116	mem	con	mod	mod	low	nt	ms	nh/0238_nh.bmp
268.56	0.72	364	3	8	116	mem	con	mod	mod	low	nt	ms	nh/0238_nh.bmp
269.28	0.72	365	2	8	31	per	con	mod	mod	mod	tg	ms	wh/0094.bmp
270.00	0.72	366	1	7	68	per	con	mod	low	mod	nt	cr	nh/0520_nh.bmp
270.72	0.72	367	1	8	18	per	con	mod	mod	mod	nt	cr	nh/0874_nh.bmp
271.44	0.72	368	2	5	89	per	con	mod	mod	mod	tg	ms	wh/0182.bmp
272.16	0.72	369	3	8	90	mem	lib	mod	mod	mod	nt	ht	nh/0380_nh.bmp
272.88	0.72	370	3	8	89	mem	lib	mod	mod	mod	tg	ht	wh/0591.bmp
273.60	0.72	371	5	6	121	per	lib	mod	mod	mod	tg	ht	wh/0772.bmp
274.32	0.72	372	4	7	115	mem	lib	mod	mod	low	tg	ht	wh/0964.bmp
275.04	0.72	373	4	8	32	per	con	mod	mod	mod	tg	ms	wh/0319.bmp
275.76	0.72	374	4	8	7	per	con	low	mod	low	nt	cr	nh/0355_nh.bmp
276.48	0.72	375	3	8	83	mem	lib	mod	mod	mod	nt	ht	nh/0684_nh.bmp
277.20	0.72	376	4	7	103	per	lib	mod	mod	mod	nt	fa	nh/0714_nh.bmp
277.92	0.72	377	3	8	26	per	con	mod	mod	mod	nt	fa	nh/0199_nh.bmp
278.64	0.72	378	4	7	94	per	lib	low	mod	low	tg	ms	wh/0032.bmp
279.36	0.72	379	1	8	107	per	lib	mod	low	mod	nt	cr	nh/0092_nh.bmp
280.08	0.72	380	3	5	5	mem	lib	mod	mod	low	nt	ht	nh/0613_nh.bmp
280.80	0.72	381	5	7	94	per	lib	low	mod	low	tg	ms	wh/0032.bmp
281.52	0.72	382	4	7	87	per	lib	low	mod	low	tg	ht	wh/0940.bmp
282.24	0.72	383	3	8	4	per	con	low	mod	low	tg	ms	wh/0364.bmp
282.96	0.72	384	1	5	90	per	con	mod	mod	mod	tg	ms	wh/0650.bmp
283.68	0.72	385	3	5	15	mem	lib	mod	mod	low	nt	ht	nh/0802_nh.bmp
284.40	0.72	386	3	6	119	per	lib	mod	mod	mod	tg	ht	wh/0716.bmp
285.12	0.72	387	4	7	85	per	lib	low	mod	low	nt	cr	nh/0963_nh.bmp
285.84	0.72	388	2	6	12	per	con	low	mod	low	tg	ms	wh/0299.bmp
286.56	0.72	389	3	6	126	per	lib	mod	mod	mod	nt	fa	nh/0909_nh.bmp
287.28	0.72	390	1	7	77	per	con	mod	low	mod	tg	ht	wh/0718.bmp
288.00	0.72	391	3	7	55	mem	con	mod	mod	mod	nt	ms	nh/0497_nh.bmp
288.72	0.72	392	1	5	105	mem	lib	low	low	low	tg	ht	wh/0431.bmp
289.44	0.72	393	4	5	54	per	lib	low	mod	low	nt	cr	nh/0443_nh.bmp
290.16	0.72	394	2	8	118	mem	con	mod	mod	low	nt	ht	nh/0125_nh.bmp
290.88	0.72	395	5	5	54	per	lib	low	mod	low	nt	cr	nh/0443_nh.bmp
291.60	0.72	396	3	5	24	mem	con	mod	mod	mod	nt	ms	nh/0563_nh.bmp
292.32	0.72	397	3	6	53	mem	lib	mod	mod	mod	tg	ht	wh/0350.bmp
293.04	0.72	398	3	8	20	per	con	mod	mod	mod	tg	ht	wh/0187.bmp
293.76	0.72	399	2	7	53	mem	con	mod	mod	mod	nt	ms	nh/0843_nh.bmp
294.48	0.72	400	2	5	61	per	lib	low	mod	low	tg	ht	wh/0818.bmp
295.20	0.72	401	2	8	13	per	con	low	mod	low	tg	n/a	wh/0758.bmp
295.92	0.72	402	1	5	50	per	lib	low	mod	low	nt	fa	nh/0361_nh.bmp
296.64	0.72	403	1	6	28	mem	con	low	low	low	tg	ms	wh/0815.bmp
297.36	0.72	404	1	5	114	per	lib	mod	low	mod	tg	ht	wh/0736.bmp
298.08	0.72	405	3	7	93	per	lib	low	mod	low	tg	ht	wh/0646.bmp
298.80	0.72	406	4	5	6	mem	lib	mod	mod	low	tg	ht	wh/0079.bmp
299.52	0.72	407	2	8	5	per	con	low	mod	low	nt	cr	nh/0744_nh.bmp
300.24	0.72	408	3	6	116	per	lib	mod	mod	mod	nt	fa	nh/0803_nh.bmp
300.96	0.72	409	2	8	10	per	con	low	mod	low	nt	cr	nh/0730_nh.bmp
301.68	0.72	410	3	6	4	per	con	low	mod	low	nt	cr	nh/0134_nh.bmp
302.40	0.72	411	2	8	96	mem	lib	mod	mod	mod	tg	ht	wh/0328.bmp
303.12	0.72	412	4	6	62	mem	lib	mod	mod	mod	nt	ht	nh/0962_nh.bmp
303.84	0.72	413	3	6	13	per	con	low	mod	low	tg	ms	wh/0329.bmp
304.56	0.72	414	4	6	117	per	lib	mod	mod	mod	tg	ht	wh/0540.bmp
305.28	0.72	415	4	7	55	mem	con	mod	mod	mod	nt	ms	nh/0497_nh.bmp
306.00	0.72	416	4	5	55	per	lib	low	mod	low	tg	ht	wh/0036.bmp
306.72	0.72	417	1	6	111	mem	lib	low	low	mod	tg	ht	wh/0419.bmp
307.44	0.72	418	3	7	113	mem	lib	mod	mod	low	tg	ht	wh/0635.bmp
308.16	0.72	419	1	8	75	mem	con	low	low	mod	nt	ms	nh/0652_nh.bmp
308.88	0.72	420	4	5	4	mem	lib	mod	mod	low	nt	ht	nh/0417_nh.bmp
309.60	0.72	421	5	6	62	mem	lib	mod	mod	mod	nt	ht	nh/0962_nh.bmp
310.32	0.72	422	4	8	114	mem	con	mod	mod	low	tg	ms	wh/0074.bmp
311.04	0.72	423	1	6	24	mem	con	low	low	low	nt	ms	nh/0864_nh.bmp
311.76	0.72	424	3	7	106	per	lib	mod	mod	mod	nt	fa	nh/0196_nh.bmp
312.48	0.72	425	4	6	4	per	con	low	mod	low	nt	cr	nh/0134_nh.bmp
313.20	0.72	426	2	5	50	per	lib	low	mod	low	nt	fa	nh/0361_nh.bmp
313.92	0.72	427	4	6	78	mem	con	mod	mod	low	tg	ms	wh/0489.bmp
314.64	0.72	428	3	7	53	mem	con	mod	mod	mod	nt	ms	nh/0843_nh.bmp
315.36	0.72	429	4	5	86	per	con	mod	mod	mod	tg	ms	wh/0810.bmp
316.08	0.72	430	5	5	6	mem	lib	mod	mod	low	tg	ht	wh/0079.bmp
316.80	0.72	431	3	5	87	per	con	mod	mod	mod	nt	cr	nh/0209_nh.bmp
317.52	0.72	432	1	7	44	per	con	low	low	low	nt	cr	nh/0384_nh.bmp
318.24	0.72	433	2	5	14	mem	lib	mod	mod	low	nt	ht	nh/0153_nh.bmp
318.96	0.72	434	1	6	86	per	con	mod	low	mod	nt	cr	nh/0936_nh.bmp
319.68	0.72	435	3	6	73	mem	con	mod	mod	low	tg	ht	wh/0619.bmp
320.40	0.72	436	3	7	109	per	lib	mod	mod	mod	nt	fa	nh/0099_nh.bmp
321.12	0.72	437	5	7	55	mem	con	mod	mod	mod	nt	ms	nh/0497_nh.bmp
321.84	0.72	438	5	8	84	mem	lib	mod	mod	mod	tg	ht	wh/0398.bmp
322.56	0.72	439	1	8	50	per	lib	low	low	low	nt	fa	nh/0731_nh.bmp
323.28	0.72	440	4	5	85	per	con	mod	mod	mod	nt	cr	nh/0428_nh.bmp
324.00	0.72	441	6	6	58	mem	lib	mod	mod	mod	nt	ht	nh/0957_nh.bmp
324.72	0.72	442	1	5	108	mem	lib	low	low	low	nt	ht	nh/0528_nh.bmp
325.44	0.72	443	5	8	114	mem	con	mod	mod	low	tg	ms	wh/0074.bmp
326.16	0.72	444	3	8	8	per	con	low	mod	low	tg	ms	wh/0256.bmp
326.88	0.72	445	6	8	84	mem	lib	mod	mod	mod	tg	ht	wh/0398.bmp
327.60	0.72	446	4	7	63	mem	con	mod	mod	mod	tg	ht	wh/0954.bmp
328.32	0.72	447	1	8	58	per	lib	low	low	low	tg	ht	wh/0434.bmp
329.04	0.72	448	3	6	74	mem	con	mod	mod	low	tg	ms	wh/0029.bmp
329.76	0.72	449	3	5	93	per	con	mod	mod	mod	nt	fa	nh/0805_nh.bmp
330.48	0.72	450	4	8	116	mem	con	mod	mod	low	nt	ms	nh/0238_nh.bmp
331.20	0.72	451	1	6	83	per	con	mod	low	mod	tg	ht	wh/0860.bmp
331.92	0.72	452	2	8	18	per	con	mod	mod	mod	nt	cr	nh/0874_nh.bmp
332.64	0.72	453	4	8	125	mem	con	mod	mod	low	tg	ms	wh/0190.bmp
333.36	0.72	454	4	5	93	per	con	mod	mod	mod	nt	fa	nh/0805_nh.bmp
334.08	0.72	455	3	8	10	per	con	low	mod	low	nt	cr	nh/0730_nh.bmp
334.80	0.72	456	3	8	31	per	con	mod	mod	mod	tg	ms	wh/0094.bmp
335.52	0.72	457	4	6	128	per	lib	mod	mod	mod	nt	fa	nh/0928_nh.bmp
336.24	0.72	458	2	7	58	mem	con	mod	mod	mod	nt	ms	nh/0396_nh.bmp
336.96	0.72	459	4	6	53	mem	lib	mod	mod	mod	tg	ht	wh/0350.bmp
337.68	0.72	460	1	5	40	per	con	low	low	low	tg	ms	wh/0458.bmp
338.40	0.72	461	3	5	10	mem	lib	mod	mod	low	tg	ht	wh/0336.bmp
339.12	0.72	462	4	6	74	mem	con	mod	mod	low	tg	ms	wh/0029.bmp
339.84	0.72	463	3	8	96	mem	lib	mod	mod	mod	tg	ht	wh/0328.bmp
340.56	0.72	464	5	5	93	per	con	mod	mod	mod	nt	fa	nh/0805_nh.bmp
341.28	0.72	465	4	6	73	mem	con	mod	mod	low	tg	ht	wh/0619.bmp
342.00	0.72	466	1	6	64	mem	lib	mod	mod	mod	tg	ht	wh/0593.bmp
342.72	0.72	467	1	8	70	mem	con	low	low	mod	tg	ht	wh/0774.bmp
343.44	0.72	468	2	7	84	per	lib	low	mod	low	nt	fa	nh/0660_nh.bmp
344.16	0.72	469	5	6	73	mem	con	mod	mod	low	tg	ht	wh/0619.bmp
344.88	0.72	470	3	7	58	mem	con	mod	mod	mod	nt	ms	nh/0396_nh.bmp
345.60	0.72	471	3	7	84	per	lib	low	mod	low	nt	fa	nh/0660_nh.bmp
346.32	0.72	472	1	5	80	mem	con	low	low	mod	nt	ms	nh/0708_nh.bmp
347.04	0.72	473	1	7	18	mem	lib	low	low	low	tg	ms	wh/0655.bmp
347.76	0.72	474	3	6	127	per	lib	mod	mod	mod	nt	fa	nh/0371_nh.bmp
348.48	0.72	475	2	6	64	mem	lib	mod	mod	mod	tg	ht	wh/0593.bmp
349.20	0.72	476	4	8	10	per	con	low	mod	low	nt	cr	nh/0730_nh.bmp
349.92	0.72	477	5	7	87	per	lib	low	mod	low	tg	ht	wh/0940.bmp
350.64	0.72	478	3	5	50	per	lib	low	mod	low	nt	fa	nh/0361_nh.bmp
351.36	0.72	479	4	7	106	per	lib	mod	mod	mod	nt	fa	nh/0196_nh.bmp
352.08	0.72	480	4	6	116	per	lib	mod	mod	mod	nt	fa	nh/0803_nh.bmp
352.80	0.72	481	3	5	58	per	lib	low	mod	low	tg	ht	wh/0077.bmp
353.52	0.72	482	4	6	70	mem	con	mod	mod	low	tg	ms	wh/0893.bmp
354.24	0.72	483	4	7	109	per	lib	mod	mod	mod	nt	fa	nh/0099_nh.bmp
354.96	0.72	484	3	7	126	mem	lib	mod	mod	low	tg	ht	wh/0608.bmp
355.68	0.72	485	3	6	64	mem	lib	mod	mod	mod	tg	ht	wh/0593.bmp
356.40	0.72	486	6	6	62	mem	lib	mod	mod	mod	nt	ht	nh/0962_nh.bmp
357.12	0.72	487	4	7	53	mem	con	mod	mod	mod	nt	ms	nh/0843_nh.bmp
357.84	0.72	488	1	8	40	mem	lib	low	low	mod	nt	ht	nh/0044_nh.bmp
358.56	0.72	489	1	5	72	mem	con	low	low	mod	nt	ms	nh/0782_nh.bmp
359.28	0.72	490	1	7	19	mem	lib	low	low	low	tg	ht	wh/0158.bmp
360.00	0.72	491	4	7	113	mem	lib	mod	mod	low	tg	ht	wh/0635.bmp
360.72	0.72	492	2	5	21	mem	con	mod	mod	mod	nt	ms	nh/0784_nh.bmp
361.44	0.72	493	4	5	10	mem	lib	mod	mod	low	tg	ht	wh/0336.bmp
362.16	0.72	494	1	7	47	per	con	low	low	low	tg	ms	wh/0633.bmp
362.88	0.72	495	4	5	24	mem	con	mod	mod	mod	nt	ms	nh/0563_nh.bmp
363.60	0.72	496	4	8	126	mem	con	mod	mod	low	tg	ms	wh/0967.bmp
364.32	0.72	497	4	7	84	per	lib	low	mod	low	nt	fa	nh/0660_nh.bmp
365.04	0.72	498	5	5	10	mem	lib	mod	mod	low	tg	ht	wh/0336.bmp
365.76	0.72	499	5	7	50	mem	con	mod	mod	mod	tg	ht	wh/0697.bmp
366.48	0.72	500	3	5	82	per	con	mod	mod	mod	tg	ms	wh/0904.bmp
367.20	0.72	501	1	5	13	mem	lib	mod	mod	low	tg	ht	wh/0150.bmp
367.92	0.72	502	5	8	116	mem	con	mod	mod	low	nt	ms	nh/0238_nh.bmp
368.64	0.72	503	4	6	13	per	con	low	mod	low	tg	ms	wh/0329.bmp
369.36	0.72	504	3	5	95	per	con	mod	mod	mod	nt	cr	nh/0273_nh.bmp
370.08	0.72	505	1	5	113	per	lib	mod	low	mod	nt	fa	nh/0849_nh.bmp
370.80	0.72	506	3	8	5	per	con	low	mod	low	nt	cr	nh/0744_nh.bmp
371.52	0.72	507	1	5	77	mem	con	low	low	mod	tg	ms	wh/0290.bmp
372.24	0.72	508	4	5	50	per	lib	low	mod	low	nt	fa	nh/0361_nh.bmp
372.96	0.72	509	1	5	36	per	con	low	low	low	nt	cr	nh/0261_nh.bmp
373.68	0.72	510	4	5	26	mem	con	mod	mod	mod	tg	ht	wh/0973.bmp
374.40	0.72	511	1	6	34	per	lib	low	low	low	nt	fa	nh/0292_nh.bmp
375.12	0.72	512	3	8	128	mem	con	mod	mod	low	nt	ms	nh/0383_nh.bmp
375.84	0.72	513	3	5	32	mem	con	mod	mod	mod	nt	ms	nh/0548_nh.bmp
376.56	0.72	514	5	6	53	mem	lib	mod	mod	mod	tg	ht	wh/0350.bmp
377.28	0.72	515	5	8	10	per	con	low	mod	low	nt	cr	nh/0730_nh.bmp
378.00	0.72	516	3	8	117	mem	con	mod	mod	low	nt	ms	nh/0465_nh.bmp
378.72	0.72	517	4	8	83	mem	lib	mod	mod	mod	nt	ht	nh/0684_nh.bmp
379.44	0.72	518	5	6	74	mem	con	mod	mod	low	tg	ms	wh/0029.bmp
380.16	0.72	519	5	8	7	per	con	low	mod	low	nt	cr	nh/0355_nh.bmp
380.88	0.72	520	4	7	123	mem	lib	mod	mod	low	nt	ht	nh/0123_nh.bmp
381.60	0.72	521	1	6	101	mem	lib	low	low	mod	tg	ht	wh/0469.bmp
382.32	0.72	522	4	8	31	per	con	mod	mod	mod	tg	ms	wh/0094.bmp
383.04	0.72	523	3	7	89	per	lib	low	mod	low	nt	fa	nh/0035_nh.bmp
383.76	0.72	524	5	7	85	per	lib	low	mod	low	nt	cr	nh/0963_nh.bmp
384.48	0.72	525	1	5	38	per	con	low	low	low	tg	ms	wh/0706.bmp
385.20	0.72	526	5	5	18	mem	con	mod	mod	mod	tg	ms	wh/0947.bmp
385.92	0.72	527	5	8	2	per	con	low	mod	low	nt	cr	nh/0404_nh.bmp
386.64	0.72	528	5	8	31	per	con	mod	mod	mod	tg	ms	wh/0094.bmp
387.36	0.72	529	4	5	15	mem	lib	mod	mod	low	nt	ht	nh/0802_nh.bmp
388.08	0.72	530	5	6	78	mem	con	mod	mod	low	tg	ms	wh/0489.bmp
388.80	0.72	531	5	5	86	per	con	mod	mod	mod	tg	ms	wh/0810.bmp
389.52	0.72	532	4	6	2	per	con	low	mod	low	nt	cr	nh/0510_nh.bmp
390.24	0.72	533	3	7	105	per	lib	mod	mod	mod	tg	ht	wh/0680.bmp
390.96	0.72	534	5	5	24	mem	con	mod	mod	mod	nt	ms	nh/0563_nh.bmp
391.68	0.72	535	5	8	32	per	con	mod	mod	mod	tg	ms	wh/0319.bmp
392.40	0.72	536	4	7	124	mem	lib	mod	mod	low	tg	ht	wh/0082.bmp
393.12	0.72	537	5	7	53	mem	con	mod	mod	mod	nt	ms	nh/0843_nh.bmp
393.84	0.72	538	4	6	76	mem	con	mod	mod	low	nt	ms	nh/0577_nh.bmp
394.56	0.72	539	1	5	20	mem	con	mod	mod	mod	tg	ms	wh/0397.bmp
395.28	0.72	540	4	8	20	per	con	mod	mod	mod	tg	ht	wh/0187.bmp
396.00	0.72	541	3	7	125	mem	lib	mod	mod	low	nt	ht	nh/1023_nh.bmp
396.72	0.72	542	4	7	126	mem	lib	mod	mod	low	tg	ht	wh/0608.bmp
397.44	0.72	543	5	7	124	mem	lib	mod	mod	low	tg	ht	wh/0082.bmp
398.16	0.72	544	5	6	124	per	lib	mod	mod	mod	tg	ht	wh/0807.bmp
398.88	0.72	545	2	5	90	per	con	mod	mod	mod	tg	ms	wh/0650.bmp
399.60	0.72	546	3	6	52	mem	lib	mod	mod	mod	nt	ht	nh/0748_nh.bmp
400.32	0.72	547	4	7	105	per	lib	mod	mod	mod	tg	ht	wh/0680.bmp
401.04	0.72	548	2	5	20	mem	con	mod	mod	mod	tg	ms	wh/0397.bmp
401.76	0.72	549	4	6	60	mem	lib	mod	mod	mod	tg	ht	wh/0558.bmp
402.48	0.72	550	4	8	117	mem	con	mod	mod	low	nt	ms	nh/0465_nh.bmp
403.20	0.72	551	1	8	34	mem	lib	low	low	mod	tg	ht	wh/0426.bmp
403.92	0.72	552	3	8	18	per	con	mod	mod	mod	nt	cr	nh/0874_nh.bmp
404.64	0.72	553	3	5	64	per	lib	low	mod	low	tg	ms	wh/0232.bmp
405.36	0.72	554	6	8	7	per	con	low	mod	low	nt	cr	nh/0355_nh.bmp
406.08	0.72	555	4	6	11	per	con	low	mod	low	nt	cr	nh/0338_nh.bmp
406.80	0.72	556	4	8	96	mem	lib	mod	mod	mod	tg	ht	wh/0328.bmp
407.52	0.72	557	4	6	64	mem	lib	mod	mod	mod	tg	ht	wh/0593.bmp
408.24	0.72	558	4	6	126	per	lib	mod	mod	mod	nt	fa	nh/0909_nh.bmp
408.96	0.72	559	5	6	64	mem	lib	mod	mod	mod	tg	ht	wh/0593.bmp
409.68	0.72	560	5	6	11	per	con	low	mod	low	nt	cr	nh/0338_nh.bmp
410.40	0.72	561	3	5	20	mem	con	mod	mod	mod	tg	ms	wh/0397.bmp
411.12	0.72	562	5	8	117	mem	con	mod	mod	low	nt	ms	nh/0465_nh.bmp
411.84	0.72	563	6	8	114	mem	con	mod	mod	low	tg	ms	wh/0074.bmp
412.56	0.72	564	4	8	26	per	con	mod	mod	mod	nt	fa	nh/0199_nh.bmp
413.28	0.72	565	3	8	13	per	con	low	mod	low	tg	n/a	wh/0758.bmp
414.00	0.72	566	1	5	71	mem	con	low	low	mod	tg	ms	wh/0059.bmp
414.72	0.72	567	3	8	23	per	con	mod	mod	mod	nt	cr	nh/0941_nh.bmp
415.44	0.72	568	1	8	42	mem	lib	low	low	mod	nt	ht	nh/0729_nh.bmp
416.16	0.72	569	4	5	5	mem	lib	mod	mod	low	nt	ht	nh/0613_nh.bmp
416.88	0.72	570	3	5	17	mem	con	mod	mod	mod	tg	ms	wh/0462.bmp
417.60	0.72	571	3	5	90	per	con	mod	mod	mod	tg	ms	wh/0650.bmp
418.32	0.72	572	3	5	14	mem	lib	mod	mod	low	nt	ht	nh/0153_nh.bmp
419.04	0.72	573	5	8	26	per	con	mod	mod	mod	nt	fa	nh/0199_nh.bmp
419.76	0.72	574	4	8	128	mem	con	mod	mod	low	nt	ms	nh/0383_nh.bmp
420.48	0.72	575	2	8	87	mem	lib	mod	mod	mod	tg	ht	wh/0902.bmp
421.20	0.72	576	2	5	13	mem	lib	mod	mod	low	tg	ht	wh/0150.bmp
421.92	0.72	577	1	6	84	per	con	mod	low	mod	tg	ht	wh/0581.bmp
422.64	0.72	578	1	5	98	mem	lib	low	low	low	tg	ms	wh/0999.bmp
423.36	0.72	579	3	5	89	per	con	mod	mod	mod	tg	ms	wh/0182.bmp
424.08	0.72	580	4	8	8	per	con	low	mod	low	tg	ms	wh/0256.bmp
424.80	0.72	581	4	8	4	per	con	low	mod	low	tg	ms	wh/0364.bmp
425.52	0.72	582	4	5	87	per	con	mod	mod	mod	nt	cr	nh/0209_nh.bmp
426.24	0.72	583	5	7	113	mem	lib	mod	mod	low	tg	ht	wh/0635.bmp
426.96	0.72	584	5	8	125	mem	con	mod	mod	low	tg	ms	wh/0190.bmp
427.68	0.72	585	5	6	117	per	lib	mod	mod	mod	tg	ht	wh/0540.bmp
428.40	0.72	586	5	7	109	per	lib	mod	mod	mod	nt	fa	nh/0099_nh.bmp
429.12	0.72	587	5	7	63	mem	con	mod	mod	mod	tg	ht	wh/0954.bmp
429.84	0.72	588	4	7	64	mem	con	mod	mod	mod	tg	ms	wh/0876.bmp
430.56	0.72	589	4	5	32	mem	con	mod	mod	mod	nt	ms	nh/0548_nh.bmp
431.28	0.72	590	3	8	87	mem	lib	mod	mod	mod	tg	ht	wh/0902.bmp
432.00	0.72	591	4	5	58	per	lib	low	mod	low	tg	ht	wh/0077.bmp
432.72	0.72	592	4	7	56	mem	con	mod	mod	mod	tg	ms	wh/0095.bmp
433.44	0.72	593	5	7	56	mem	con	mod	mod	mod	tg	ms	wh/0095.bmp
434.16	0.72	594	5	5	29	mem	con	mod	mod	mod	nt	ms	nh/0447_nh.bmp
434.88	0.72	595	6	6	80	mem	con	mod	mod	low	nt	ms	nh/0568_nh.bmp
435.60	0.72	596	4	8	19	per	con	mod	mod	mod	nt	cr	nh/0222_nh.bmp
436.32	0.72	597	6	5	93	per	con	mod	mod	mod	nt	fa	nh/0805_nh.bmp
437.04	0.72	598	1	5	121	per	lib	mod	low	mod	nt	fa	nh/0461_nh.bmp
437.76	0.72	599	3	8	118	mem	con	mod	mod	low	nt	ht	nh/0125_nh.bmp
438.48	0.72	600	4	6	127	per	lib	mod	mod	mod	nt	fa	nh/0371_nh.bmp
439.20	0.72	601	4	5	17	mem	con	mod	mod	mod	tg	ms	wh/0462.bmp
439.92	0.72	602	4	5	64	per	lib	low	mod	low	tg	ms	wh/0232.bmp
440.64	0.72	603	5	6	13	per	con	low	mod	low	tg	ms	wh/0329.bmp
441.36	0.72	604	1	8	98	per	lib	mod	low	mod	nt	fa	nh/0277_nh.bmp
442.08	0.72	605	3	5	21	mem	con	mod	mod	mod	nt	ms	nh/0784_nh.bmp
442.80	0.72	606	6	7	50	mem	con	mod	mod	mod	tg	ht	wh/0697.bmp
443.52	0.72	607	1	6	39	per	lib	low	low	low	tg	ms	wh/0090.bmp
444.24	0.72	608	5	5	32	mem	con	mod	mod	mod	nt	ms	nh/0548_nh.bmp
444.96	0.72	609	4	5	21	mem	con	mod	mod	mod	nt	ms	nh/0784_nh.bmp
445.68	0.72	610	4	7	88	per	lib	low	mod	low	nt	fa	nh/0194_nh.bmp
446.40	0.72	611	5	7	52	mem	con	mod	mod	mod	nt	ms	nh/0588_nh.bmp
447.12	0.72	612	4	8	118	mem	con	mod	mod	low	nt	ht	nh/0125_nh.bmp
447.84	0.72	613	5	7	110	per	lib	mod	mod	mod	nt	fa	nh/0446_nh.bmp
448.56	0.72	614	6	7	109	per	lib	mod	mod	mod	nt	fa	nh/0099_nh.bmp
449.28	0.72	615	5	7	102	per	lib	mod	mod	mod	tg	ht	wh/0542.bmp
450.00	0.72	616	5	7	123	mem	lib	mod	mod	low	nt	ht	nh/0123_nh.bmp
450.72	0.72	617	1	7	10	mem	con	low	low	low	nt	ms	nh/0146_nh.bmp
451.44	0.72	618	6	5	6	mem	lib	mod	mod	low	tg	ht	wh/0079.bmp
452.16	0.72	619	1	7	22	mem	lib	low	low	low	tg	ht	wh/0266.bmp
452.88	0.72	620	3	6	12	per	con	low	mod	low	tg	ms	wh/0299.bmp
453.60	0.72	621	5	7	115	mem	lib	mod	mod	low	tg	ht	wh/0964.bmp
454.32	0.72	622	5	5	87	per	con	mod	mod	mod	nt	cr	nh/0209_nh.bmp
455.04	0.72	623	4	8	16	per	con	low	mod	low	tg	ms	wh/0351.bmp
455.76	0.72	624	6	5	87	per	con	mod	mod	mod	nt	cr	nh/0209_nh.bmp
456.48	0.72	625	1	7	28	mem	lib	low	low	low	nt	ht	nh/0536_nh.bmp
457.20	0.72	626	5	8	4	per	con	low	mod	low	tg	ms	wh/0364.bmp
457.92	0.72	627	5	8	96	mem	lib	mod	mod	mod	tg	ht	wh/0328.bmp
458.64	0.72	628	4	8	89	mem	lib	mod	mod	mod	tg	ht	wh/0591.bmp
459.36	0.72	629	4	6	12	per	con	low	mod	low	tg	ms	wh/0299.bmp
460.08	0.72	630	5	6	116	per	lib	mod	mod	mod	nt	fa	nh/0803_nh.bmp
460.80	0.72	631	1	5	70	mem	con	low	low	mod	tg	ms	wh/0598.bmp
461.52	0.72	632	1	7	71	per	con	mod	low	mod	nt	cr	nh/0278_nh.bmp
462.24	0.72	633	5	6	128	per	lib	mod	mod	mod	nt	fa	nh/0928_nh.bmp
462.96	0.72	634	5	6	126	per	lib	mod	mod	mod	nt	fa	nh/0909_nh.bmp
463.68	0.72	635	4	7	93	per	lib	low	mod	low	tg	ht	wh/0646.bmp
464.40	0.72	636	1	6	112	mem	lib	low	low	mod	nt	ht	nh/0048_nh.bmp
465.12	0.72	637	1	8	112	per	lib	mod	low	mod	nt	fa	nh/0267_nh.bmp
465.84	0.72	638	6	5	24	mem	con	mod	mod	mod	nt	ms	nh/0563_nh.bmp
466.56	0.72	639	3	6	57	mem	lib	mod	mod	mod	nt	ht	nh/0946_nh.bmp
467.28	0.72	640	4	8	90	mem	lib	mod	mod	mod	nt	ht	nh/0380_nh.bmp
468.00	0.72	641	6	5	10	mem	lib	mod	mod	low	tg	ht	wh/0336.bmp
468.72	0.72	642	3	8	127	mem	con	mod	mod	low	tg	ms	wh/0075.bmp
469.44	0.72	643	5	5	55	per	lib	low	mod	low	tg	ht	wh/0036.bmp
470.16	0.72	644	6	7	56	mem	con	mod	mod	mod	tg	ms	wh/0095.bmp
470.88	0.72	645	5	6	127	per	lib	mod	mod	mod	nt	fa	nh/0371_nh.bmp
471.60	0.72	646	4	8	127	mem	con	mod	mod	low	tg	ms	wh/0075.bmp
472.32	0.72	647	5	5	58	per	lib	low	mod	low	tg	ht	wh/0077.bmp
473.04	0.72	648	4	8	94	mem	lib	mod	mod	mod	nt	ht	nh/0442_nh.bmp
473.76	0.72	649	5	8	19	per	con	mod	mod	mod	nt	cr	nh/0222_nh.bmp
474.48	0.72	650	1	6	41	per	lib	low	low	low	nt	fa	nh/1009_nh.bmp
475.20	0.72	651	4	6	52	mem	lib	mod	mod	mod	nt	ht	nh/0748_nh.bmp
475.92	0.72	652	5	5	64	per	lib	low	mod	low	tg	ms	wh/0232.bmp
476.64	0.72	653	6	6	64	mem	lib	mod	mod	mod	tg	ht	wh/0593.bmp
477.36	0.72	654	5	7	101	per	lib	mod	mod	mod	tg	ht	wh/0543.bmp
478.08	0.72	655	1	8	100	per	lib	mod	low	mod	tg	ht	wh/0699.bmp
478.80	0.72	656	4	6	72	mem	con	mod	mod	low	nt	ms	nh/0503_nh.bmp
479.52	0.72	657	5	5	15	mem	lib	mod	mod	low	nt	ht	nh/0802_nh.bmp
480.24	0.72	658	4	8	13	per	con	low	mod	low	tg	n/a	wh/0758.bmp
480.96	0.72	659	5	8	8	per	con	low	mod	low	tg	ms	wh/0256.bmp
481.68	0.72	660	5	8	126	mem	con	mod	mod	low	tg	ms	wh/0967.bmp
482.40	0.72	661	3	5	61	per	lib	low	mod	low	tg	ht	wh/0818.bmp
483.12	0.72	662	6	7	102	per	lib	mod	mod	mod	tg	ht	wh/0542.bmp
483.84	0.72	663	3	7	97	per	lib	mod	mod	mod	tg	ht	wh/0594.bmp
484.56	0.72	664	5	6	52	mem	lib	mod	mod	mod	nt	ht	nh/0748_nh.bmp
485.28	0.72	665	1	6	33	per	lib	low	low	low	nt	fa	nh/0831_nh.bmp
486.00	0.72	666	6	8	4	per	con	low	mod	low	tg	ms	wh/0364.bmp
486.72	0.72	667	4	7	89	per	lib	low	mod	low	nt	fa	nh/0035_nh.bmp
487.44	0.72	668	1	6	89	per	con	mod	low	mod	tg	ms	wh/0530.bmp
488.16	0.72	669	4	5	14	mem	lib	mod	mod	low	nt	ht	nh/0153_nh.bmp
488.88	0.72	670	4	6	57	mem	lib	mod	mod	mod	nt	ht	nh/0946_nh.bmp
489.60	0.72	671	5	8	13	per	con	low	mod	low	tg	n/a	wh/0758.bmp
490.32	0.72	672	5	6	72	mem	con	mod	mod	low	nt	ms	nh/0503_nh.bmp
491.04	0.72	673	4	7	97	per	lib	mod	mod	mod	tg	ht	wh/0594.bmp
491.76	0.72	674	4	8	5	per	con	low	mod	low	nt	cr	nh/0744_nh.bmp
492.48	0.72	675	6	8	13	per	con	low	mod	low	tg	n/a	wh/0758.bmp
493.20	0.72	676	1	7	78	per	con	mod	low	mod	tg	ht	wh/0890.bmp
493.92	0.72	677	5	5	17	mem	con	mod	mod	mod	tg	ms	wh/0462.bmp
494.64	0.72	678	6	5	54	per	lib	low	mod	low	nt	cr	nh/0443_nh.bmp
495.36	0.72	679	5	8	20	per	con	mod	mod	mod	tg	ht	wh/0187.bmp
496.08	0.72	680	5	7	103	per	lib	mod	mod	mod	nt	fa	nh/0714_nh.bmp
496.80	0.72	681	5	5	50	per	lib	low	mod	low	nt	fa	nh/0361_nh.bmp
497.52	0.72	682	1	7	66	per	con	mod	low	mod	nt	cr	nh/0927_nh.bmp
498.24	0.72	683	5	6	60	mem	lib	mod	mod	mod	tg	ht	wh/0558.bmp
498.96	0.72	684	4	7	125	mem	lib	mod	mod	low	nt	ht	nh/1023_nh.bmp
499.68	0.72	685	5	7	126	mem	lib	mod	mod	low	tg	ht	wh/0608.bmp
500.40	0.72	686	6	8	19	per	con	mod	mod	mod	nt	cr	nh/0222_nh.bmp
501.12	0.72	687	6	8	20	per	con	mod	mod	mod	tg	ht	wh/0187.bmp
501.84	0.72	688	5	5	21	mem	con	mod	mod	mod	nt	ms	nh/0784_nh.bmp
502.56	0.72	689	6	5	15	mem	lib	mod	mod	low	nt	ht	nh/0802_nh.bmp
503.28	0.72	690	6	7	52	mem	con	mod	mod	mod	nt	ms	nh/0588_nh.bmp
504.00	0.72	691	5	5	4	mem	lib	mod	mod	low	nt	ht	nh/0417_nh.bmp
504.72	0.72	692	5	7	64	mem	con	mod	mod	mod	tg	ms	wh/0876.bmp
505.44	0.72	693	1	6	107	mem	lib	low	low	mod	nt	ht	nh/0992_nh.bmp
506.16	0.72	694	5	5	5	mem	lib	mod	mod	low	nt	ht	nh/0613_nh.bmp
506.88	0.72	695	5	7	97	per	lib	mod	mod	mod	tg	ht	wh/0594.bmp
507.60	0.72	696	5	8	5	per	con	low	mod	low	nt	cr	nh/0744_nh.bmp
508.32	0.72	697	5	8	16	per	con	low	mod	low	tg	ms	wh/0351.bmp
509.04	0.72	698	6	8	117	mem	con	mod	mod	low	nt	ms	nh/0465_nh.bmp
509.76	0.72	699	4	7	95	per	lib	low	mod	low	tg	ms	wh/0080.bmp
510.48	0.72	700	6	8	16	per	con	low	mod	low	tg	ms	wh/0351.bmp
511.20	0.72	701	6	5	5	mem	lib	mod	mod	low	nt	ht	nh/0613_nh.bmp
511.92	0.72	702	6	8	126	mem	con	mod	mod	low	tg	ms	wh/0967.bmp
512.64	0.72	703	5	5	85	per	con	mod	mod	mod	nt	cr	nh/0428_nh.bmp
513.36	0.72	704	5	5	26	mem	con	mod	mod	mod	tg	ht	wh/0973.bmp
514.08	0.72	705	6	6	78	mem	con	mod	mod	low	tg	ms	wh/0489.bmp
514.80	0.72	706	6	7	85	per	lib	low	mod	low	nt	cr	nh/0963_nh.bmp
515.52	0.72	707	1	5	120	per	lib	mod	low	mod	tg	ht	wh/0781.bmp
516.24	0.72	708	6	5	21	mem	con	mod	mod	mod	nt	ms	nh/0784_nh.bmp
516.96	0.72	709	5	8	90	mem	lib	mod	mod	mod	nt	ht	nh/0380_nh.bmp
517.68	0.72	710	4	5	95	per	con	mod	mod	mod	nt	cr	nh/0273_nh.bmp
518.40	0.72	711	4	8	87	mem	lib	mod	mod	mod	tg	ht	wh/0902.bmp
519.12	0.72	712	5	8	87	mem	lib	mod	mod	mod	tg	ht	wh/0902.bmp
519.84	0.72	713	6	7	124	mem	lib	mod	mod	low	tg	ht	wh/0082.bmp
520.56	0.72	714	6	6	127	per	lib	mod	mod	mod	nt	fa	nh/0371_nh.bmp
521.28	0.72	715	4	5	89	per	con	mod	mod	mod	tg	ms	wh/0182.bmp
522.00	0.72	716	1	7	75	per	con	mod	low	mod	tg	ms	wh/0525.bmp
522.72	0.72	717	1	7	27	mem	lib	low	low	low	nt	ht	nh/0237_nh.bmp
523.44	0.72	718	6	8	125	mem	con	mod	mod	low	tg	ms	wh/0190.bmp
524.16	0.72	719	6	6	53	mem	lib	mod	mod	mod	tg	ht	wh/0350.bmp
524.88	0.72	720	5	5	95	per	con	mod	mod	mod	nt	cr	nh/0273_nh.bmp
525.60	0.72	721	5	6	4	per	con	low	mod	low	nt	cr	nh/0134_nh.bmp
526.32	0.72	722	6	8	87	mem	lib	mod	mod	mod	tg	ht	wh/0902.bmp
527.04	0.72	723	5	7	95	per	lib	low	mod	low	tg	ms	wh/0080.bmp
527.76	0.72	724	6	5	85	per	con	mod	mod	mod	nt	cr	nh/0428_nh.bmp
528.48	0.72	725	4	5	82	per	con	mod	mod	mod	tg	ms	wh/0904.bmp
529.20	0.72	726	6	6	74	mem	con	mod	mod	low	tg	ms	wh/0029.bmp
529.92	0.72	727	4	5	51	per	lib	low	mod	low	nt	fa	nh/0690_nh.bmp
530.64	0.72	728	5	8	118	mem	con	mod	mod	low	nt	ht	nh/0125_nh.bmp
531.36	0.72	729	6	7	115	mem	lib	mod	mod	low	tg	ht	wh/0964.bmp
532.08	0.72	730	5	8	94	mem	lib	mod	mod	mod	nt	ht	nh/0442_nh.bmp
532.80	0.72	731	5	6	2	per	con	low	mod	low	nt	cr	nh/0510_nh.bmp
533.52	0.72	732	6	6	4	per	con	low	mod	low	nt	cr	nh/0134_nh.bmp
534.24	0.72	733	4	5	90	per	con	mod	mod	mod	tg	ms	wh/0650.bmp
534.96	0.72	734	6	5	18	mem	con	mod	mod	mod	tg	ms	wh/0947.bmp
535.68	0.72	735	1	6	102	mem	lib	low	low	mod	tg	ht	wh/0762.bmp
536.40	0.72	736	6	7	113	mem	lib	mod	mod	low	tg	ht	wh/0635.bmp
537.12	0.72	737	6	8	8	per	con	low	mod	low	tg	ms	wh/0256.bmp
537.84	0.72	738	1	7	73	per	con	mod	low	mod	nt	cr	nh/0301_nh.bmp
538.56	0.72	739	1	6	81	per	con	mod	low	mod	nt	cr	nh/0787_nh.bmp
539.28	0.72	740	6	5	58	per	lib	low	mod	low	tg	ht	wh/0077.bmp
540.00	0.72	741	1	6	47	per	lib	low	low	low	tg	ht	wh/0711.bmp
540.72	0.72	742	6	7	63	mem	con	mod	mod	mod	tg	ht	wh/0954.bmp
541.44	0.72	743	5	5	89	per	con	mod	mod	mod	tg	ms	wh/0182.bmp
542.16	0.72	744	6	5	26	mem	con	mod	mod	mod	tg	ht	wh/0973.bmp
542.88	0.72	745	5	7	125	mem	lib	mod	mod	low	nt	ht	nh/1023_nh.bmp
543.60	0.72	746	6	8	96	mem	lib	mod	mod	mod	tg	ht	wh/0328.bmp
544.32	0.72	747	4	5	61	per	lib	low	mod	low	tg	ht	wh/0818.bmp
545.04	0.72	748	6	6	121	per	lib	mod	mod	mod	tg	ht	wh/0772.bmp
545.76	0.72	749	6	5	32	mem	con	mod	mod	mod	nt	ms	nh/0548_nh.bmp
546.48	0.72	750	1	5	78	mem	con	low	low	mod	nt	ms	nh/0316_nh.bmp
547.20	0.72	751	6	7	123	mem	lib	mod	mod	low	nt	ht	nh/0123_nh.bmp
547.92	0.72	752	6	8	5	per	con	low	mod	low	nt	cr	nh/0744_nh.bmp
548.64	0.72	753	6	6	60	mem	lib	mod	mod	mod	tg	ht	wh/0558.bmp
549.36	0.72	754	1	6	38	per	lib	low	low	low	tg	ms	wh/0053.bmp
550.08	0.72	755	6	7	101	per	lib	mod	mod	mod	tg	ht	wh/0543.bmp
550.80	0.72	756	6	5	16	mem	lib	mod	mod	low	tg	ht	wh/0451.bmp
551.52	0.72	757	5	8	127	mem	con	mod	mod	low	tg	ms	wh/0075.bmp
552.24	0.72	758	6	7	64	mem	con	mod	mod	mod	tg	ms	wh/0876.bmp
552.96	0.72	759	6	6	66	mem	con	mod	mod	low	nt	ms	nh/0508_nh.bmp
553.68	0.72	760	6	6	128	per	lib	mod	mod	mod	nt	fa	nh/0928_nh.bmp
554.40	0.72	761	6	5	17	mem	con	mod	mod	mod	tg	ms	wh/0462.bmp
555.12	0.72	762	4	6	119	per	lib	mod	mod	mod	tg	ht	wh/0716.bmp
555.84	0.72	763	6	6	124	per	lib	mod	mod	mod	tg	ht	wh/0807.bmp
556.56	0.72	764	4	6	6	per	con	low	mod	low	nt	cr	nh/0345_nh.bmp
557.28	0.72	765	6	6	126	per	lib	mod	mod	mod	nt	fa	nh/0909_nh.bmp
558.00	0.72	766	1	6	40	per	lib	low	low	low	nt	fa	nh/0088_nh.bmp
558.72	0.72	767	6	8	2	per	con	low	mod	low	nt	cr	nh/0404_nh.bmp
559.44	0.72	768	4	8	23	per	con	mod	mod	mod	nt	cr	nh/0941_nh.bmp
560.16	0.72	769	5	6	12	per	con	low	mod	low	tg	ms	wh/0299.bmp
560.88	0.72	770	4	5	52	per	lib	low	mod	low	nt	cr	nh/0760_nh.bmp
561.60	0.72	771	4	8	18	per	con	mod	mod	mod	nt	cr	nh/0874_nh.bmp
562.32	0.72	772	5	7	88	per	lib	low	mod	low	nt	fa	nh/0194_nh.bmp
563.04	0.72	773	1	7	26	mem	lib	low	low	low	nt	ht	nh/0691_nh.bmp
563.76	0.72	774	5	5	61	per	lib	low	mod	low	tg	ht	wh/0818.bmp
564.48	0.72	775	5	5	90	per	con	mod	mod	mod	tg	ms	wh/0650.bmp
565.20	0.72	776	5	6	57	mem	lib	mod	mod	mod	nt	ht	nh/0946_nh.bmp
565.92	0.72	777	5	8	128	mem	con	mod	mod	low	nt	ms	nh/0383_nh.bmp
566.64	0.72	778	6	7	126	mem	lib	mod	mod	low	tg	ht	wh/0608.bmp
567.36	0.72	779	5	6	76	mem	con	mod	mod	low	nt	ms	nh/0577_nh.bmp
568.08	0.72	780	1	8	56	per	lib	low	low	low	tg	ht	wh/0460.bmp
568.80	0.72	781	5	8	23	per	con	mod	mod	mod	nt	cr	nh/0941_nh.bmp
569.52	0.72	782	5	7	128	mem	lib	mod	mod	low	nt	ht	nh/0934_nh.bmp
570.24	0.72	783	6	7	95	per	lib	low	mod	low	tg	ms	wh/0080.bmp
570.96	0.72	784	5	6	119	per	lib	mod	mod	mod	tg	ht	wh/0716.bmp
571.68	0.72	785	4	7	58	mem	con	mod	mod	mod	nt	ms	nh/0396_nh.bmp
572.40	0.72	786	6	8	127	mem	con	mod	mod	low	tg	ms	wh/0075.bmp
573.12	0.72	787	1	6	23	mem	con	low	low	low	tg	ms	wh/0789.bmp
573.84	0.72	788	1	8	78	mem	con	low	low	mod	tg	ms	wh/0900.bmp
574.56	0.72	789	5	5	82	per	con	mod	mod	mod	tg	ms	wh/0904.bmp
575.28	0.72	790	6	6	72	mem	con	mod	mod	low	nt	ms	nh/0503_nh.bmp
576.00	0.72	791	6	5	55	per	lib	low	mod	low	tg	ht	wh/0036.bmp
576.72	0.72	792	6	6	52	mem	lib	mod	mod	mod	nt	ht	nh/0748_nh.bmp
577.44	0.72	793	6	8	128	mem	con	mod	mod	low	nt	ms	nh/0383_nh.bmp
578.16	0.72	794	6	6	117	per	lib	mod	mod	mod	tg	ht	wh/0540.bmp
578.88	0.72	795	5	7	105	per	lib	mod	mod	mod	tg	ht	wh/0680.bmp
579.60	0.72	796	6	5	82	per	con	mod	mod	mod	tg	ms	wh/0904.bmp
580.32	0.72	797	6	6	76	mem	con	mod	mod	low	nt	ms	nh/0577_nh.bmp
581.04	0.72	798	6	5	90	per	con	mod	mod	mod	tg	ms	wh/0650.bmp
581.76	0.72	799	6	6	13	per	con	low	mod	low	tg	ms	wh/0329.bmp
582.48	0.72	800	1	7	11	mem	con	low	low	low	nt	ht	nh/0206_nh.bmp
583.20	0.72	801	5	7	89	per	lib	low	mod	low	nt	fa	nh/0035_nh.bmp
583.92	0.72	802	5	6	70	mem	con	mod	mod	low	tg	ms	wh/0893.bmp
584.64	0.72	803	6	8	118	mem	con	mod	mod	low	nt	ht	nh/0125_nh.bmp
585.36	0.72	804	6	6	73	mem	con	mod	mod	low	tg	ht	wh/0619.bmp
586.08	0.72	805	6	6	119	per	lib	mod	mod	mod	tg	ht	wh/0716.bmp
586.80	0.72	806	6	5	61	per	lib	low	mod	low	tg	ht	wh/0818.bmp
587.52	0.72	807	1	7	36	per	con	low	low	low	tg	n/a	wh/0507.bmp
588.24	0.72	808	5	5	51	per	lib	low	mod	low	nt	fa	nh/0690_nh.bmp
588.96	0.72	809	5	8	89	mem	lib	mod	mod	mod	tg	ht	wh/0591.bmp
589.68	0.72	810	6	7	53	mem	con	mod	mod	mod	nt	ms	nh/0843_nh.bmp
590.40	0.72	811	5	7	84	per	lib	low	mod	low	nt	fa	nh/0660_nh.bmp
591.12	0.72	812	4	5	20	mem	con	mod	mod	mod	tg	ms	wh/0397.bmp
591.84	0.72	813	6	7	87	per	lib	low	mod	low	tg	ht	wh/0940.bmp
592.56	0.72	814	6	8	31	per	con	mod	mod	mod	tg	ms	wh/0094.bmp
593.28	0.72	815	5	5	14	mem	lib	mod	mod	low	nt	ht	nh/0153_nh.bmp
594.00	0.72	816	1	6	26	mem	con	low	low	low	nt	ms	nh/0370_nh.bmp
594.72	0.72	817	6	8	10	per	con	low	mod	low	nt	cr	nh/0730_nh.bmp
595.44	0.72	818	6	7	110	per	lib	mod	mod	mod	nt	fa	nh/0446_nh.bmp
596.16	0.72	819	6	6	70	mem	con	mod	mod	low	tg	ms	wh/0893.bmp
596.88	0.72	820	6	8	26	per	con	mod	mod	mod	nt	fa	nh/0199_nh.bmp
597.60	0.72	821	6	8	89	mem	lib	mod	mod	mod	tg	ht	wh/0591.bmp
598.32	0.72	822	6	5	4	mem	lib	mod	mod	low	nt	ht	nh/0417_nh.bmp
599.04	0.72	823	5	6	6	per	con	low	mod	low	nt	cr	nh/0345_nh.bmp
599.76	0.72	824	6	6	3	per	con	low	mod	low	tg	ms	wh/0284.bmp
600.48	0.72	825	6	6	8	per	con	low	mod	low	tg	ms	wh/0382.bmp
601.20	0.72	826	5	5	20	mem	con	mod	mod	mod	tg	ms	wh/0397.bmp
601.92	0.72	827	1	7	46	per	con	low	low	low	nt	cr	nh/0812_nh.bmp
602.64	0.72	828	1	5	76	mem	con	low	low	mod	nt	ms	nh/0340_nh.bmp
603.36	0.72	829	6	7	103	per	lib	mod	mod	mod	nt	fa	nh/0714_nh.bmp
604.08	0.72	830	6	6	11	per	con	low	mod	low	nt	cr	nh/0338_nh.bmp
604.80	0.72	831	1	5	102	mem	lib	low	low	low	tg	ht	wh/1007.bmp
605.52	0.72	832	6	7	55	mem	con	mod	mod	mod	nt	ms	nh/0497_nh.bmp
606.24	0.72	833	5	5	52	per	lib	low	mod	low	nt	cr	nh/0760_nh.bmp
606.96	0.72	834	5	8	18	per	con	mod	mod	mod	nt	cr	nh/0874_nh.bmp
607.68	0.72	835	1	5	33	per	con	low	low	low	nt	cr	nh/0055_nh.bmp
608.40	0.72	836	5	7	106	per	lib	mod	mod	mod	nt	fa	nh/0196_nh.bmp
609.12	0.72	837	4	8	27	per	con	mod	mod	mod	tg	ms	wh/0855.bmp
609.84	0.72	838	6	5	86	per	con	mod	mod	mod	tg	ms	wh/0810.bmp
610.56	0.72	839	6	7	88	per	lib	low	mod	low	nt	fa	nh/0194_nh.bmp
611.28	0.72	840	3	5	13	mem	lib	mod	mod	low	tg	ht	wh/0150.bmp
612.00	0.72	841	6	7	125	mem	lib	mod	mod	low	nt	ht	nh/1023_nh.bmp
612.72	0.72	842	1	7	48	per	con	low	low	low	nt	cr	nh/0804_nh.bmp
613.44	0.72	843	1	8	52	per	lib	low	low	low	nt	fa	nh/0173_nh.bmp
614.16	0.72	844	5	6	51	mem	lib	mod	mod	mod	tg	ht	wh/0339.bmp
614.88	0.72	845	6	5	14	mem	lib	mod	mod	low	nt	ht	nh/0153_nh.bmp
615.60	0.72	846	1	7	41	per	con	low	low	low	tg	ms	wh/0998.bmp
616.32	0.72	847	5	7	119	mem	lib	mod	mod	low	nt	ht	nh/0493_nh.bmp
617.04	0.72	848	6	8	94	mem	lib	mod	mod	mod	nt	ht	nh/0442_nh.bmp
617.76	0.72	849	1	8	64	per	lib	low	low	low	nt	fa	nh/0437_nh.bmp
618.48	0.72	850	6	8	90	mem	lib	mod	mod	mod	nt	ht	nh/0380_nh.bmp
619.20	0.72	851	6	6	2	per	con	low	mod	low	nt	cr	nh/0510_nh.bmp
619.92	0.72	852	6	8	18	per	con	mod	mod	mod	nt	cr	nh/0874_nh.bmp
620.64	0.72	853	1	5	43	per	con	low	low	low	nt	cr	nh/0433_nh.bmp
621.36	0.72	854	5	7	58	mem	con	mod	mod	mod	nt	ms	nh/0396_nh.bmp
622.08	0.72	855	6	5	50	per	lib	low	mod	low	nt	fa	nh/0361_nh.bmp
622.80	0.72	856	6	7	106	per	lib	mod	mod	mod	nt	fa	nh/0196_nh.bmp
623.52	0.72	857	6	7	119	mem	lib	mod	mod	low	nt	ht	nh/0493_nh.bmp
624.24	0.72	858	6	8	116	mem	con	mod	mod	low	nt	ms	nh/0238_nh.bmp
624.96	0.72	859	5	8	83	mem	lib	mod	mod	mod	nt	ht	nh/0684_nh.bmp
625.68	0.72	860	6	5	89	per	con	mod	mod	mod	tg	ms	wh/0182.bmp
626.40	0.72	861	6	6	57	mem	lib	mod	mod	mod	nt	ht	nh/0946_nh.bmp
627.12	0.72	862	6	5	29	mem	con	mod	mod	mod	nt	ms	nh/0447_nh.bmp
627.84	0.72	863	4	5	13	mem	lib	mod	mod	low	tg	ht	wh/0150.bmp
628.56	0.72	864	6	5	64	per	lib	low	mod	low	tg	ms	wh/0232.bmp
629.28	0.72	865	5	8	27	per	con	mod	mod	mod	tg	ms	wh/0855.bmp
630.00	0.72	866	1	7	31	mem	lib	low	low	low	nt	ht	nh/0223_nh.bmp
630.72	0.72	867	6	5	51	per	lib	low	mod	low	nt	fa	nh/0690_nh.bmp
631.44	0.72	868	1	8	44	mem	lib	low	low	mod	tg	ht	wh/0096.bmp
632.16	0.72	869	6	7	97	per	lib	mod	mod	mod	tg	ht	wh/0594.bmp
632.88	0.72	870	1	8	72	mem	con	low	low	mod	tg	ms	wh/0281.bmp
633.60	0.72	871	1	6	96	per	con	mod	low	mod	tg	ms	wh/0584.bmp
634.32	0.72	872	6	7	58	mem	con	mod	mod	mod	nt	ms	nh/0396_nh.bmp
635.04	0.72	873	6	7	89	per	lib	low	mod	low	nt	fa	nh/0035_nh.bmp
635.76	0.72	874	6	6	116	per	lib	mod	mod	mod	nt	fa	nh/0803_nh.bmp
636.48	0.72	875	6	7	105	per	lib	mod	mod	mod	tg	ht	wh/0680.bmp
637.20	0.72	876	6	8	32	per	con	mod	mod	mod	tg	ms	wh/0319.bmp
637.92	0.72	877	5	7	93	per	lib	low	mod	low	tg	ht	wh/0646.bmp
638.64	0.72	878	6	7	84	per	lib	low	mod	low	nt	fa	nh/0660_nh.bmp
639.36	0.72	879	6	7	94	per	lib	low	mod	low	tg	ms	wh/0032.bmp
640.08	0.72	880	6	6	51	mem	lib	mod	mod	mod	tg	ht	wh/0339.bmp
640.80	0.72	881	1	7	8	mem	con	low	low	low	nt	ms	nh/0452_nh.bmp
641.52	0.72	882	6	7	93	per	lib	low	mod	low	tg	ht	wh/0646.bmp
642.24	0.72	883	6	7	128	mem	lib	mod	mod	low	nt	ht	nh/0934_nh.bmp
642.96	0.72	884	1	8	36	mem	lib	low	low	mod	nt	ht	nh/0693_nh.bmp
643.68	0.72	885	5	5	13	mem	lib	mod	mod	low	tg	ht	wh/0150.bmp
644.40	0.72	886	6	8	83	mem	lib	mod	mod	mod	nt	ht	nh/0684_nh.bmp
645.12	0.72	887	6	6	6	per	con	low	mod	low	nt	cr	nh/0345_nh.bmp
645.84	0.72	888	6	5	20	mem	con	mod	mod	mod	tg	ms	wh/0397.bmp
646.56	0.72	889	6	8	23	per	con	mod	mod	mod	nt	cr	nh/0941_nh.bmp
647.28	0.72	890	6	5	95	per	con	mod	mod	mod	nt	cr	nh/0273_nh.bmp
648.00	0.72	891	6	6	12	per	con	low	mod	low	tg	ms	wh/0299.bmp
648.72	0.72	892	6	5	52	per	lib	low	mod	low	nt	cr	nh/0760_nh.bmp
649.44	0.72	893	6	5	13	mem	lib	mod	mod	low	tg	ht	wh/0150.bmp
650.16	0.72	894	1	8	109	per	lib	mod	low	mod	nt	fa	nh/0572_nh.bmp
650.88	0.72	895	1	7	1	mem	con	low	low	low	tg	ms	wh/0113.bmp
651.60	0.72	896	6	8	27	per	con	mod	mod	mod	tg	ms	wh/0855.bmp
