onset	duration	trial	pres	ts_blk	ts_trl	task	crit	disc	mem_disc	per_disc	per_type	accuracy	stim_file
7.20	0.72	1	1	8	108	mem	con	mod	mod	mod	nt	ht	nh/0552_nh.bmp
7.92	0.72	2	1	6	89	mem	lib	mod	mod	mod	tg	ht	wh/0952.bmp
8.64	0.72	3	1	8	109	mem	con	mod	mod	mod	nt	ht	nh/0978_nh.bmp
9.36	0.72	4	1	6	18	mem	con	mod	mod	low	tg	ms	wh/0111.bmp
10.08	0.72	5	1	5	93	per	lib	low	mod	low	tg	ht	wh/0875.bmp
10.80	0.72	6	1	5	126	mem	con	mod	mod	mod	tg	ht	wh/0179.bmp
11.52	0.72	7	1	6	52	per	con	low	mod	low	tg	ms	wh/0165.bmp
12.24	0.72	8	1	7	23	per	lib	low	mod	low	tg	ht	wh/0176.bmp
12.96	0.72	9	1	6	92	mem	lib	mod	mod	mod	tg	ht	wh/0717.bmp
13.68	0.72	10	1	7	55	per	con	mod	mod	mod	nt	cr	nh/0420_nh.bmp
14.40	0.72	11	1	5	119	mem	con	mod	mod	mod	nt	ht	nh/0549_nh.bmp
15.12	0.72	12	1	7	30	per	lib	low	mod	low	tg	ht	wh/0114.bmp
15.84	0.72	13	1	8	53	per	lib	mod	mod	mod	tg	ht	wh/0564.bmp
16.56	0.72	14	1	5	15	per	con	mod	mod	mod	nt	cr	nh/0871_nh.bmp
17.28	0.72	15	2	6	92	mem	lib	mod	mod	mod	tg	ht	wh/0717.bmp
18.00	0.72	16	2	6	18	mem	con	mod	mod	low	tg	ms	wh/0111.bmp
18.72	0.72	17	1	6	32	mem	con	mod	mod	low	nt	ht	nh/0780_nh.bmp
19.44	0.72	18	1	7	12	mem	lib	low	low	mod	nt	ht	nh/0402_nh.bmp
20.16	0.72	19	1	8	34	mem	lib	mod	mod	mod	nt	ht	nh/0666_nh.bmp
20.88	0.72	20	1	5	99	per	con	low	low	low	tg	ms	wh/0929.bmp
21.60	0.72	21	1	6	94	mem	lib	mod	mod	mod	nt	ht	nh/0603_nh.bmp
22.32	0.72	22	1	8	47	mem	lib	mod	mod	mod	nt	ht	nh/0821_nh.bmp
23.04	0.72	23	1	8	127	mem	con	low	low	low	tg	ms	wh/0587.bmp
23.76	0.72	24	1	8	55	per	lib	mod	mod	mod	tg	ht	wh/0835.bmp
24.48	0.72	25	1	7	46	mem	lib	mod	mod	low	tg	ht	wh/0734.bmp
25.20	0.72	26	1	8	57	per	lib	mod	mod	mod	tg	ht	wh/0318.bmp
25.92	0.72	27	1	7	53	per	con	mod	mod	mod	nt	cr	nh/0958_nh.bmp
26.64	0.72	28	1	7	74	mem	con	mod	mod	low	tg	ms	wh/0848.bmp
27.36	0.72	29	1	5	8	per	con	mod	mod	mod	nt	cr	nh/0602_nh.bmp
28.08	0.72	30	1	5	49	mem	lib	mod	mod	low	tg	ht	wh/0023.bmp
28.80	0.72	31	1	5	102	per	con	low	low	low	tg	ms	wh/0570.bmp
29.52	0.72	32	1	6	87	mem	lib	mod	mod	mod	tg	ht	wh/0020.bmp
30.24	0.72	33	1	8	117	mem	con	low	low	low	nt	ms	nh/1011_nh.bmp
30.96	0.72	34	1	6	22	mem	con	mod	mod	low	tg	ms	wh/0064.bmp
31.68	0.72	35	2	7	55	per	con	mod	mod	mod	nt	cr	nh/0420_nh.bmp
32.40	0.72	36	2	6	22	mem	con	mod	mod	low	tg	ms	wh/0064.bmp
33.12	0.72	37	2	8	34	mem	lib	mod	mod	mod	nt	ht	nh/0666_nh.bmp
33.84	0.72	38	1	7	112	mem	con	low	low	mod	tg	ms	wh/0046.bmp
34.56	0.72	39	1	7	32	per	lib	low	mod	low	nt	fa	nh/0453_nh.bmp
35.28	0.72	40	3	6	22	mem	con	mod	mod	low	tg	ms	wh/0064.bmp
36.00	0.72	41	1	5	86	per	lib	low	mod	low	nt	cr	nh/0582_nh.bmp
36.72	0.72	42	4	6	22	mem	con	mod	mod	low	tg	ms	wh/0064.bmp
37.44	0.72	43	1	5	51	mem	lib	mod	mod	low	nt	ht	nh/0986_nh.bmp
38.16	0.72	44	1	6	119	per	lib	low	low	low	tg	ht	wh/0566.bmp
38.88	0.72	45	1	8	43	mem	lib	mod	mod	mod	tg	ms	wh/0968.bmp
39.60	0.72	46	1	5	62	mem	lib	mod	mod	low	tg	ht	wh/0678.bmp
40.32	0.72	47	1	6	57	per	con	low	mod	low	nt	cr	nh/0746_nh.bmp
41.04	0.72	48	1	5	87	per	lib	low	mod	low	tg	ht	wh/0241.bmp
41.76	0.72	49	1	7	20	per	lib	low	mod	low	nt	cr	nh/0401_nh.bmp
42.48	0.72	50	2	7	53	per	con	mod	mod	mod	nt	cr	nh/0958_nh.bmp
43.20	0.72	51	1	5	122	mem	con	mod	mod	mod	nt	ht	nh/0971_nh.bmp
43.92	0.72	52	1	8	35	mem	lib	mod	mod	mod	tg	ht	wh/0827.bmp
44.64	0.72	53	1	6	90	mem	lib	mod	mod	mod	nt	ht	nh/0239_nh.bmp
45.36	0.72	54	1	7	122	per	con	low	mod	low	nt	cr	nh/0157_nh.bmp
46.08	0.72	55	2	7	122	per	con	low	mod	low	nt	cr	nh/0157_nh.bmp
46.80	0.72	56	2	8	35	mem	lib	mod	mod	mod	tg	ht	wh/0827.bmp
47.52	0.72	57	1	5	4	per	con	mod	mod	mod	nt	cr	nh/0609_nh.bmp
48.24	0.72	58	1	5	64	mem	lib	mod	mod	low	tg	ht	wh/0618.bmp
48.96	0.72	59	1	7	78	mem	con	mod	mod	low	tg	ht	wh/0939.bmp
49.68	0.72	60	1	8	49	per	lib	mod	mod	mod	nt	cr	nh/0778_nh.bmp
50.40	0.72	61	3	7	122	per	con	low	mod	low	nt	cr	nh/0157_nh.bmp
51.12	0.72	62	1	5	65	per	lib	mod	mod	mod	nt	cr	nh/0408_nh.bmp
51.84	0.72	63	2	8	108	mem	con	mod	mod	mod	nt	ht	nh/0552_nh.bmp
52.56	0.72	64	1	5	13	per	con	mod	mod	mod	tg	ms	wh/0851.bmp
53.28	0.72	65	1	5	128	mem	con	mod	mod	mod	tg	ht	wh/0366.bmp
54.00	0.72	66	2	7	23	per	lib	low	mod	low	tg	ht	wh/0176.bmp
54.72	0.72	67	1	7	25	per	lib	low	mod	low	nt	fa	nh/0394_nh.bmp
55.44	0.72	68	1	6	116	per	lib	low	low	low	nt	fa	nh/0767_nh.bmp
56.16	0.72	69	2	6	94	mem	lib	mod	mod	mod	nt	ht	nh/0603_nh.bmp
56.88	0.72	70	1	7	114	per	con	low	mod	low	tg	ms	wh/0519.bmp
57.60	0.72	71	1	6	109	mem	con	low	low	mod	nt	ht	nh/0475_nh.bmp
58.32	0.72	72	1	6	117	per	lib	low	low	low	nt	fa	nh/0352_nh.bmp
59.04	0.72	73	1	7	43	mem	lib	mod	mod	low	tg	ht	wh/0647.bmp
59.76	0.72	74	1	6	78	per	lib	mod	low	mod	nt	fa	nh/0948_nh.bmp
60.48	0.72	75	1	7	66	mem	con	mod	mod	low	tg	ht	wh/0255.bmp
61.20	0.72	76	1	8	65	mem	lib	low	low	low	tg	ht	wh/0041.bmp
61.92	0.72	77	1	5	80	per	lib	mod	mod	mod	tg	ht	wh/0560.bmp
62.64	0.72	78	1	7	70	mem	con	mod	mod	low	nt	ms	nh/0450_nh.bmp
63.36	0.72	79	1	7	116	per	con	low	mod	low	tg	ms	wh/0024.bmp
64.08	0.72	80	4	7	122	per	con	low	mod	low	nt	cr	nh/0157_nh.bmp
64.80	0.72	81	1	5	85	per	lib	low	mod	low	nt	cr	nh/0491_nh.bmp
65.52	0.72	82	1	6	2	per	con	mod	low	mod	nt	cr	nh/0631_nh.bmp
66.24	0.72	83	2	8	53	per	lib	mod	mod	mod	tg	ht	wh/0564.bmp
66.96	0.72	84	1	8	5	per	con	mod	low	mod	nt	cr	nh/0342_nh.bmp
67.68	0.72	85	1	8	126	mem	con	low	low	low	nt	ms	nh/0226_nh.bmp
68.40	0.72	86	1	5	98	per	con	low	low	low	tg	ms	wh/0280.bmp
69.12	0.72	87	1	7	69	mem	con	mod	mod	low	nt	ms	nh/0521_nh.bmp
69.84	0.72	88	1	7	57	per	con	mod	mod	mod	tg	ht	wh/0294.bmp
70.56	0.72	89	2	6	52	per	con	low	mod	low	tg	ms	wh/0165.bmp
71.28	0.72	90	2	7	70	mem	con	mod	mod	low	nt	ms	nh/0450_nh.bmp
72.00	0.72	91	1	6	50	per	con	low	mod	low	nt	cr	nh/0793_nh.bmp
72.72	0.72	92	1	7	105	mem	con	low	low	mod	nt	ms	nh/0349_nh.bmp
73.44	0.72	93	1	7	61	per	con	mod	mod	mod	tg	ht	wh/0888.bmp
74.16	0.72	94	1	5	22	mem	con	low	low	low	tg	ms	wh/0175.bmp
74.88	0.72	95	1	5	16	per	con	mod	mod	mod	tg	ht	wh/0715.bmp
75.60	0.72	96	1	6	64	per	con	low	mod	low	tg	ht	wh/0374.bmp
76.32	0.72	97	2	5	15	per	con	mod	mod	mod	nt	cr	nh/0871_nh.bmp
77.04	0.72	98	1	5	57	mem	lib	mod	mod	low	nt	ht	nh/1019_nh.bmp
77.76	0.72	99	1	7	119	per	con	low	mod	low	nt	cr	nh/0297_nh.bmp
78.48	0.72	100	1	7	45	mem	lib	mod	mod	low	nt	ht	nh/0143_nh.bmp
79.20	0.72	101	1	6	49	per	con	low	mod	low	nt	cr	nh/0403_nh.bmp
79.92	0.72	102	2	5	51	mem	lib	mod	mod	low	nt	ht	nh/0986_nh.bmp
80.64	0.72	103	2	7	66	mem	con	mod	mod	low	tg	ht	wh/0255.bmp
81.36	0.72	104	2	7	20	per	lib	low	mod	low	nt	cr	nh/0401_nh.bmp
82.08	0.72	105	2	5	57	mem	lib	mod	mod	low	nt	ht	nh/1019_nh.bmp
82.80	0.72	106	1	5	50	mem	lib	mod	mod	low	nt	ht	nh/0170_nh.bmp
83.52	0.72	107	1	6	55	per	con	low	mod	low	tg	ms	wh/0193.bmp
84.24	0.72	108	1	5	124	mem	con	mod	mod	mod	tg	ms	wh/0629.bmp
84.96	0.72	109	2	7	57	per	con	mod	mod	mod	tg	ht	wh/0294.bmp
85.68	0.72	110	1	7	21	per	lib	low	mod	low	nt	fa	nh/0756_nh.bmp
86.40	0.72	111	1	8	60	per	lib	mod	mod	mod	nt	fa	nh/0385_nh.bmp
87.12	0.72	112	2	6	49	per	con	low	mod	low	nt	cr	nh/0403_nh.bmp
87.84	0.72	113	1	6	114	per	lib	low	low	low	nt	fa	nh/0480_nh.bmp
88.56	0.72	114	1	8	50	per	lib	mod	mod	mod	nt	fa	nh/0399_nh.bmp
89.28	0.72	115	1	5	11	per	con	mod	mod	mod	tg	ms	wh/0495.bmp
90.00	0.72	116	1	7	44	mem	lib	mod	mod	low	nt	ht	nh/0262_nh.bmp
90.72	0.72	117	1	7	115	per	con	low	mod	low	tg	ms	wh/0863.bmp
91.44	0.72	118	1	7	73	mem	con	mod	mod	low	nt	ms	nh/0172_nh.bmp
92.16	0.72	119	1	8	23	per	con	low	low	low	nt	cr	nh/0106_nh.bmp
92.88	0.72	120	1	8	56	per	lib	mod	mod	mod	nt	cr	nh/0735_nh.bmp
93.60	0.72	121	1	7	40	mem	lib	mod	mod	low	nt	ht	nh/0108_nh.bmp
94.32	0.72	122	1	7	128	per	con	low	mod	low	nt	cr	nh/0883_nh.bmp
95.04	0.72	123	1	5	84	per	lib	low	mod	low	nt	cr	nh/0073_nh.bmp
95.76	0.72	124	2	7	119	per	con	low	mod	low	nt	cr	nh/0297_nh.bmp
96.48	0.72	125	2	6	64	per	con	low	mod	low	tg	ht	wh/0374.bmp
97.20	0.72	126	2	7	115	per	con	low	mod	low	tg	ms	wh/0863.bmp
97.92	0.72	127	1	7	5	mem	lib	low	low	mod	tg	ht	wh/0945.bmp
98.64	0.72	128	1	6	27	mem	con	mod	mod	low	tg	ht	wh/1014.bmp
99.36	0.72	129	1	5	67	per	lib	mod	mod	mod	tg	ht	wh/0337.bmp
100.08	0.72	130	1	8	25	per	con	low	low	low	tg	ms	wh/0034.bmp
100.80	0.72	131	1	7	64	per	con	mod	mod	mod	nt	cr	nh/0546_nh.bmp
101.52	0.72	132	1	8	4	per	con	mod	low	mod	tg	ht	wh/0924.bmp
102.24	0.72	133	3	8	34	mem	lib	mod	mod	mod	nt	ht	nh/0666_nh.bmp
102.96	0.72	134	2	7	116	per	con	low	mod	low	tg	ms	wh/0024.bmp
103.68	0.72	135	1	8	97	mem	con	mod	mod	mod	tg	ht	wh/0832.bmp
104.40	0.72	136	1	8	100	mem	con	mod	mod	mod	tg	ht	wh/0586.bmp
105.12	0.72	137	2	5	65	per	lib	mod	mod	mod	nt	cr	nh/0408_nh.bmp
105.84	0.72	138	3	7	66	mem	con	mod	mod	low	tg	ht	wh/0255.bmp
106.56	0.72	139	1	5	73	per	lib	mod	mod	mod	tg	ht	wh/0995.bmp
107.28	0.72	140	2	5	67	per	lib	mod	mod	mod	tg	ht	wh/0337.bmp
108.00	0.72	141	1	8	48	mem	lib	mod	mod	mod	tg	ht	wh/0590.bmp
108.72	0.72	142	1	5	81	per	lib	low	mod	low	tg	ht	wh/1004.bmp
109.44	0.72	143	1	5	42	mem	lib	low	low	mod	nt	ht	nh/0951_nh.bmp
110.16	0.72	144	2	5	62	mem	lib	mod	mod	low	tg	ht	wh/0678.bmp
110.88	0.72	145	1	7	51	per	con	mod	mod	mod	tg	ms	wh/0441.bmp
111.60	0.72	146	2	5	86	per	lib	low	mod	low	nt	cr	nh/0582_nh.bmp
112.32	0.72	147	1	5	21	mem	con	low	low	low	nt	ms	nh/0842_nh.bmp
113.04	0.72	148	1	5	115	mem	con	mod	mod	mod	tg	ms	wh/0056.bmp
113.76	0.72	149	1	5	33	mem	lib	low	low	mod	nt	ht	nh/0093_nh.bmp
114.48	0.72	150	3	8	53	per	lib	mod	mod	mod	tg	ht	wh/0564.bmp
115.20	0.72	151	2	5	4	per	con	mod	mod	mod	nt	cr	nh/0609_nh.bmp
115.92	0.72	152	1	7	56	per	con	mod	mod	mod	tg	ht	wh/0060.bmp
116.64	0.72	153	1	7	28	per	lib	low	mod	low	tg	ms	wh/0814.bmp
117.36	0.72	154	1	7	37	mem	lib	mod	mod	low	nt	ht	nh/0249_nh.bmp
118.08	0.72	155	4	8	34	mem	lib	mod	mod	mod	nt	ht	nh/0666_nh.bmp
118.80	0.72	156	1	8	76	mem	lib	low	low	low	tg	ht	wh/0830.bmp
119.52	0.72	157	2	8	47	mem	lib	mod	mod	mod	nt	ht	nh/0821_nh.bmp
120.24	0.72	158	2	5	8	per	con	mod	mod	mod	nt	cr	nh/0602_nh.bmp
120.96	0.72	159	1	8	52	per	lib	mod	mod	mod	tg	ht	wh/0086.bmp
121.68	0.72	160	2	8	56	per	lib	mod	mod	mod	nt	cr	nh/0735_nh.bmp
122.40	0.72	161	2	5	119	mem	con	mod	mod	mod	nt	ht	nh/0549_nh.bmp
123.12	0.72	162	2	7	46	mem	lib	mod	mod	low	tg	ht	wh/0734.bmp
123.84	0.72	163	1	5	71	per	lib	mod	mod	mod	nt	cr	nh/0797_nh.bmp
124.56	0.72	164	4	7	66	mem	con	mod	mod	low	tg	ht	wh/0255.bmp
125.28	0.72	165	2	7	37	mem	lib	mod	mod	low	nt	ht	nh/0249_nh.bmp
126.00	0.72	166	1	7	68	mem	con	mod	mod	low	nt	ms	nh/0388_nh.bmp
126.72	0.72	167	2	5	85	per	lib	low	mod	low	nt	cr	nh/0491_nh.bmp
127.44	0.72	168	1	6	6	per	con	mod	low	mod	nt	cr	nh/0101_nh.bmp
128.16	0.72	169	1	8	45	mem	lib	mod	mod	mod	nt	ht	nh/0275_nh.bmp
128.88	0.72	170	2	7	25	per	lib	low	mod	low	nt	fa	nh/0394_nh.bmp
129.60	0.72	171	1	6	58	per	con	low	mod	low	nt	cr	nh/0118_nh.bmp
130.32	0.72	172	3	5	62	mem	lib	mod	mod	low	tg	ht	wh/0678.bmp
131.04	0.72	173	2	5	49	mem	lib	mod	mod	low	tg	ht	wh/0023.bmp
131.76	0.72	174	2	8	48	mem	lib	mod	mod	mod	tg	ht	wh/0590.bmp
132.48	0.72	175	2	7	74	mem	con	mod	mod	low	tg	ms	wh/0848.bmp
133.20	0.72	176	2	5	124	mem	con	mod	mod	mod	tg	ms	wh/0629.bmp
133.92	0.72	177	2	5	126	mem	con	mod	mod	mod	tg	ht	wh/0179.bmp
134.64	0.72	178	1	6	73	per	lib	mod	low	mod	tg	ht	wh/0545.bmp
135.36	0.72	179	1	5	5	per	con	mod	mod	mod	nt	cr	nh/0269_nh.bmp
136.08	0.72	180	1	6	108	mem	con	low	low	mod	nt	ms	nh/1005_nh.bmp
136.80	0.72	181	3	7	25	per	lib	low	mod	low	nt	fa	nh/0394_nh.bmp
137.52	0.72	182	3	7	74	mem	con	mod	mod	low	tg	ms	wh/0848.bmp
138.24	0.72	183	1	8	110	mem	con	mod	mod	mod	tg	ht	wh/0300.bmp
138.96	0.72	184	2	8	45	mem	lib	mod	mod	mod	nt	ht	nh/0275_nh.bmp
139.68	0.72	185	1	5	75	per	lib	mod	mod	mod	nt	fa	nh/0833_nh.bmp
140.40	0.72	186	3	5	57	mem	lib	mod	mod	low	nt	ht	nh/1019_nh.bmp
141.12	0.72	187	1	6	28	mem	con	mod	mod	low	nt	ms	nh/0254_nh.bmp
141.84	0.72	188	1	5	100	per	con	low	low	low	nt	cr	nh/0063_nh.bmp
142.56	0.72	189	3	7	55	per	con	mod	mod	mod	nt	cr	nh/0420_nh.bmp
143.28	0.72	190	1	7	120	per	con	low	mod	low	nt	cr	nh/0253_nh.bmp
144.00	0.72	191	2	7	73	mem	con	mod	mod	low	nt	ms	nh/0172_nh.bmp
144.72	0.72	192	1	5	88	per	lib	low	mod	low	nt	cr	nh/0820_nh.bmp
145.44	0.72	193	2	5	73	per	lib	mod	mod	mod	tg	ht	wh/0995.bmp
146.16	0.72	194	1	8	86	per	lib	low	low	low	nt	fa	nh/0258_nh.bmp
146.88	0.72	195	2	7	51	per	con	mod	mod	mod	tg	ms	wh/0441.bmp
147.60	0.72	196	2	5	16	per	con	mod	mod	mod	tg	ht	wh/0715.bmp
148.32	0.72	197	2	6	90	mem	lib	mod	mod	mod	nt	ht	nh/0239_nh.bmp
149.04	0.72	198	3	5	49	mem	lib	mod	mod	low	tg	ht	wh/0023.bmp
149.76	0.72	199	3	5	85	per	lib	low	mod	low	nt	cr	nh/0491_nh.bmp
150.48	0.72	200	1	5	68	per	lib	mod	mod	mod	nt	cr	nh/0599_nh.bmp
151.20	0.72	201	3	5	65	per	lib	mod	mod	mod	nt	cr	nh/0408_nh.bmp
151.92	0.72	202	2	8	60	per	lib	mod	mod	mod	nt	fa	nh/0385_nh.bmp
152.64	0.72	203	1	6	25	mem	con	mod	mod	low	tg	ht	wh/0640.bmp
153.36	0.72	204	2	7	44	mem	lib	mod	mod	low	nt	ht	nh/0262_nh.bmp
154.08	0.72	205	1	6	3	per	con	mod	low	mod	tg	ht	wh/1008.bmp
154.80	0.72	206	1	8	16	per	con	mod	low	mod	nt	cr	nh/0416_nh.bmp
155.52	0.72	207	2	8	43	mem	lib	mod	mod	mod	tg	ms	wh/0968.bmp
156.24	0.72	208	1	6	69	per	lib	mod	low	mod	nt	fa	nh/0016_nh.bmp
156.96	0.72	209	2	6	25	mem	con	mod	mod	low	tg	ht	wh/0640.bmp
157.68	0.72	210	2	6	57	per	con	low	mod	low	nt	cr	nh/0746_nh.bmp
158.40	0.72	211	2	8	49	per	lib	mod	mod	mod	nt	cr	nh/0778_nh.bmp
159.12	0.72	212	1	7	47	mem	lib	mod	mod	low	tg	ht	wh/0247.bmp
159.84	0.72	213	1	6	53	per	con	low	mod	low	tg	ms	wh/0578.bmp
160.56	0.72	214	1	6	39	mem	lib	low	low	low	tg	ht	wh/0005.bmp
161.28	0.72	215	2	5	87	per	lib	low	mod	low	tg	ht	wh/0241.bmp
162.00	0.72	216	1	7	1	mem	lib	low	low	mod	tg	ht	wh/0688.bmp
162.72	0.72	217	2	5	122	mem	con	mod	mod	mod	nt	ht	nh/0971_nh.bmp
163.44	0.72	218	1	7	117	per	con	low	mod	low	tg	ms	wh/0612.bmp
164.16	0.72	219	1	7	110	mem	con	low	low	mod	tg	ms	wh/0921.bmp
164.88	0.72	220	3	5	119	mem	con	mod	mod	mod	nt	ht	nh/0549_nh.bmp
165.60	0.72	221	1	6	86	mem	lib	mod	mod	mod	nt	ht	nh/0556_nh.bmp
166.32	0.72	222	1	7	39	mem	lib	mod	mod	low	tg	ht	wh/0164.bmp
167.04	0.72	223	2	6	58	per	con	low	mod	low	nt	cr	nh/0118_nh.bmp
167.76	0.72	224	1	7	65	mem	con	mod	mod	low	tg	ms	wh/0042.bmp
168.48	0.72	225	1	6	21	mem	con	mod	mod	low	nt	ms	nh/0139_nh.bmp
169.20	0.72	226	2	5	115	mem	con	mod	mod	mod	tg	ms	wh/0056.bmp
169.92	0.72	227	1	5	34	mem	lib	low	low	mod	nt	ht	nh/0188_nh.bmp
170.64	0.72	228	2	5	128	mem	con	mod	mod	mod	tg	ht	wh/0366.bmp
171.36	0.72	229	3	5	67	per	lib	mod	mod	mod	tg	ht	wh/0337.bmp
172.08	0.72	230	1	8	115	mem	con	low	low	low	nt	ms	nh/0058_nh.bmp
172.80	0.72	231	2	7	28	per	lib	low	mod	low	tg	ms	wh/0814.bmp
173.52	0.72	232	1	7	13	mem	lib	low	low	mod	nt	ht	nh/1016_nh.bmp
174.24	0.72	233	1	6	91	mem	lib	mod	mod	mod	nt	ht	nh/0694_nh.bmp
174.96	0.72	234	3	6	90	mem	lib	mod	mod	mod	nt	ht	nh/0239_nh.bmp
175.68	0.72	235	2	7	65	mem	con	mod	mod	low	tg	ms	wh/0042.bmp
176.40	0.72	236	1	5	19	mem	con	low	low	low	nt	ms	nh/0360_nh.bmp
177.12	0.72	237	3	5	15	per	con	mod	mod	mod	nt	cr	nh/0871_nh.bmp
177.84	0.72	238	3	5	124	mem	con	mod	mod	mod	tg	ms	wh/0629.bmp
178.56	0.72	239	4	7	55	per	con	mod	mod	mod	nt	cr	nh/0420_nh.bmp
179.28	0.72	240	1	5	59	mem	lib	mod	mod	low	nt	ht	nh/0892_nh.bmp
180.00	0.72	241	2	5	84	per	lib	low	mod	low	nt	cr	nh/0073_nh.bmp
180.72	0.72	242	1	8	31	per	con	low	low	low	nt	cr	nh/0636_nh.bmp
181.44	0.72	243	1	8	6	per	con	mod	low	mod	tg	ht	wh/0673.bmp
182.16	0.72	244	2	7	43	mem	lib	mod	mod	low	tg	ht	wh/0647.bmp
182.88	0.72	245	2	7	61	per	con	mod	mod	mod	tg	ht	wh/0888.bmp
183.60	0.72	246	2	6	53	per	con	low	mod	low	tg	ms	wh/0578.bmp
184.32	0.72	247	1	6	83	mem	lib	mod	mod	mod	tg	ht	wh/0378.bmp
185.04	0.72	248	3	7	53	per	con	mod	mod	mod	nt	cr	nh/0958_nh.bmp
185.76	0.72	249	1	5	112	per	con	low	low	low	nt	cr	nh/0617_nh.bmp
186.48	0.72	250	1	8	99	mem	con	mod	mod	mod	nt	ht	nh/0544_nh.bmp
187.20	0.72	251	3	7	43	mem	lib	mod	mod	low	tg	ht	wh/0647.bmp
187.92	0.72	252	4	5	65	per	lib	mod	mod	mod	nt	cr	nh/0408_nh.bmp
188.64	0.72	253	1	8	118	mem	con	low	low	low	nt	ht	nh/0202_nh.bmp
189.36	0.72	254	4	7	43	mem	lib	mod	mod	low	tg	ht	wh/0647.bmp
190.08	0.72	255	2	6	27	mem	con	mod	mod	low	tg	ht	wh/1014.bmp
190.80	0.72	256	5	7	122	per	con	low	mod	low	nt	cr	nh/0157_nh.bmp
191.52	0.72	257	3	7	28	per	lib	low	mod	low	tg	ms	wh/0814.bmp
192.24	0.72	258	3	7	116	per	con	low	mod	low	tg	ms	wh/0024.bmp
192.96	0.72	259	2	6	83	mem	lib	mod	mod	mod	tg	ht	wh/0378.bmp
193.68	0.72	260	1	7	95	per	lib	mod	low	mod	nt	fa	nh/0867_nh.bmp
194.40	0.72	261	2	5	93	per	lib	low	mod	low	tg	ht	wh/0875.bmp
195.12	0.72	262	3	7	37	mem	lib	mod	mod	low	nt	ht	nh/0249_nh.bmp
195.84	0.72	263	1	6	99	mem	con	low	low	mod	tg	ms	wh/0234.bmp
196.56	0.72	264	2	5	64	mem	lib	mod	mod	low	tg	ht	wh/0618.bmp
197.28	0.72	265	3	7	65	mem	con	mod	mod	low	tg	ms	wh/0042.bmp
198.00	0.72	266	2	5	88	per	lib	low	mod	low	nt	cr	nh/0820_nh.bmp
198.72	0.72	267	1	6	46	mem	lib	low	low	low	nt	ht	nh/0224_nh.bmp
199.44	0.72	268	5	7	43	mem	lib	mod	mod	low	tg	ht	wh/0647.bmp
200.16	0.72	269	3	7	20	per	lib	low	mod	low	nt	cr	nh/0401_nh.bmp
200.88	0.72	270	2	7	120	per	con	low	mod	low	nt	cr	nh/0253_nh.bmp
201.60	0.72	271	3	7	73	mem	con	mod	mod	low	nt	ms	nh/0172_nh.bmp
202.32	0.72	272	5	5	65	per	lib	mod	mod	mod	nt	cr	nh/0408_nh.bmp
203.04	0.72	273	2	7	39	mem	lib	mod	mod	low	tg	ht	wh/0164.bmp
203.76	0.72	274	1	6	101	mem	con	low	low	mod	nt	ms	nh/0334_nh.bmp
204.48	0.72	275	3	6	25	mem	con	mod	mod	low	tg	ht	wh/0640.bmp
205.20	0.72	276	2	7	30	per	lib	low	mod	low	tg	ht	wh/0114.bmp
205.92	0.72	277	2	6	89	mem	lib	mod	mod	mod	tg	ht	wh/0952.bmp
206.64	0.72	278	1	8	30	per	con	low	low	low	tg	ms	wh/0994.bmp
207.36	0.72	279	4	5	62	mem	lib	mod	mod	low	tg	ht	wh/0678.bmp
208.08	0.72	280	3	5	8	per	con	mod	mod	mod	nt	cr	nh/0602_nh.bmp
208.80	0.72	281	4	7	65	mem	con	mod	mod	low	tg	ms	wh/0042.bmp
209.52	0.72	282	1	8	33	mem	lib	mod	mod	mod	nt	ht	nh/0638_nh.bmp
210.24	0.72	283	2	8	33	mem	lib	mod	mod	mod	nt	ht	nh/0638_nh.bmp
210.96	0.72	284	2	6	87	mem	lib	mod	mod	mod	tg	ht	wh/0020.bmp
211.68	0.72	285	4	7	74	mem	con	mod	mod	low	tg	ms	wh/0848.bmp
212.40	0.72	286	3	8	56	per	lib	mod	mod	mod	nt	cr	nh/0735_nh.bmp
213.12	0.72	287	1	8	2	per	con	mod	low	mod	tg	ms	wh/0732.bmp
213.84	0.72	288	2	5	80	per	lib	mod	mod	mod	tg	ht	wh/0560.bmp
214.56	0.72	289	3	6	58	per	con	low	mod	low	nt	cr	nh/0118_nh.bmp
215.28	0.72	290	2	5	81	per	lib	low	mod	low	tg	ht	wh/1004.bmp
216.00	0.72	291	3	5	87	per	lib	low	mod	low	tg	ht	wh/0241.bmp
216.72	0.72	292	2	7	45	mem	lib	mod	mod	low	nt	ht	nh/0143_nh.bmp
217.44	0.72	293	2	7	128	per	con	low	mod	low	nt	cr	nh/0883_nh.bmp
218.16	0.72	294	3	6	53	per	con	low	mod	low	tg	ms	wh/0578.bmp
218.88	0.72	295	2	5	59	mem	lib	mod	mod	low	nt	ht	nh/0892_nh.bmp
219.60	0.72	296	2	8	99	mem	con	mod	mod	mod	nt	ht	nh/0544_nh.bmp
220.32	0.72	297	2	7	47	mem	lib	mod	mod	low	tg	ht	wh/0247.bmp
221.04	0.72	298	1	8	1	per	con	mod	low	mod	tg	ht	wh/0663.bmp
221.76	0.72	299	2	8	97	mem	con	mod	mod	mod	tg	ht	wh/0832.bmp
222.48	0.72	300	1	6	17	mem	con	mod	mod	low	nt	ht	nh/0012_nh.bmp
223.20	0.72	301	1	5	116	mem	con	mod	mod	mod	nt	ms	nh/0436_nh.bmp
223.92	0.72	302	3	7	70	mem	con	mod	mod	low	nt	ms	nh/0450_nh.bmp
224.64	0.72	303	3	5	93	per	lib	low	mod	low	tg	ht	wh/0875.bmp
225.36	0.72	304	3	5	81	per	lib	low	mod	low	tg	ht	wh/1004.bmp
226.08	0.72	305	4	6	90	mem	lib	mod	mod	mod	nt	ht	nh/0239_nh.bmp
226.80	0.72	306	1	5	46	mem	lib	low	low	mod	tg	ht	wh/0779.bmp
227.52	0.72	307	1	7	54	per	con	mod	mod	mod	nt	cr	nh/0686_nh.bmp
228.24	0.72	308	3	7	120	per	con	low	mod	low	nt	cr	nh/0253_nh.bmp
228.96	0.72	309	3	8	47	mem	lib	mod	mod	mod	nt	ht	nh/0821_nh.bmp
229.68	0.72	310	4	8	56	per	lib	mod	mod	mod	nt	cr	nh/0735_nh.bmp
230.40	0.72	311	3	6	92	mem	lib	mod	mod	mod	tg	ht	wh/0717.bmp
231.12	0.72	312	2	6	28	mem	con	mod	mod	low	nt	ms	nh/0254_nh.bmp
231.84	0.72	313	3	8	97	mem	con	mod	mod	mod	tg	ht	wh/0832.bmp
232.56	0.72	314	1	5	117	mem	con	mod	mod	mod	nt	ht	nh/0822_nh.bmp
233.28	0.72	315	1	8	101	mem	con	mod	mod	mod	tg	ht	wh/0852.bmp
234.00	0.72	316	4	6	58	per	con	low	mod	low	nt	cr	nh/0118_nh.bmp
234.72	0.72	317	2	5	68	per	lib	mod	mod	mod	nt	cr	nh/0599_nh.bmp
235.44	0.72	318	3	5	84	per	lib	low	mod	low	nt	cr	nh/0073_nh.bmp
236.16	0.72	319	4	7	37	mem	lib	mod	mod	low	nt	ht	nh/0249_nh.bmp
236.88	0.72	320	3	7	61	per	con	mod	mod	mod	tg	ht	wh/0888.bmp
237.60	0.72	321	1	6	1	per	con	mod	low	mod	tg	ms	wh/0389.bmp
238.32	0.72	322	3	6	52	per	con	low	mod	low	tg	ms	wh/0165.bmp
239.04	0.72	323	2	7	68	mem	con	mod	mod	low	nt	ms	nh/0388_nh.bmp
239.76	0.72	324	1	5	44	mem	lib	low	low	mod	tg	ht	wh/0308.bmp
240.48	0.72	325	4	5	57	mem	lib	mod	mod	low	nt	ht	nh/1019_nh.bmp
241.20	0.72	326	3	5	115	mem	con	mod	mod	mod	tg	ms	wh/0056.bmp
241.92	0.72	327	3	8	33	mem	lib	mod	mod	mod	nt	ht	nh/0638_nh.bmp
242.64	0.72	328	3	7	51	per	con	mod	mod	mod	tg	ms	wh/0441.bmp
243.36	0.72	329	1	7	96	per	lib	mod	low	mod	nt	fa	nh/0221_nh.bmp
244.08	0.72	330	2	5	71	per	lib	mod	mod	mod	nt	cr	nh/0797_nh.bmp
244.80	0.72	331	1	5	94	per	lib	low	mod	low	tg	ht	wh/0574.bmp
245.52	0.72	332	3	8	60	per	lib	mod	mod	mod	nt	fa	nh/0385_nh.bmp
246.24	0.72	333	3	7	23	per	lib	low	mod	low	tg	ht	wh/0176.bmp
246.96	0.72	334	4	8	97	mem	con	mod	mod	mod	tg	ht	wh/0832.bmp
247.68	0.72	335	1	5	107	per	con	low	low	low	nt	cr	nh/0244_nh.bmp
248.40	0.72	336	2	8	110	mem	con	mod	mod	mod	tg	ht	wh/0300.bmp
249.12	0.72	337	4	5	93	per	lib	low	mod	low	tg	ht	wh/0875.bmp
249.84	0.72	338	2	7	40	mem	lib	mod	mod	low	nt	ht	nh/0108_nh.bmp
250.56	0.72	339	4	6	52	per	con	low	mod	low	tg	ms	wh/0165.bmp
251.28	0.72	340	3	5	71	per	lib	mod	mod	mod	nt	cr	nh/0797_nh.bmp
252.00	0.72	341	4	8	60	per	lib	mod	mod	mod	nt	fa	nh/0385_nh.bmp
252.72	0.72	342	2	8	57	per	lib	mod	mod	mod	tg	ht	wh/0318.bmp
253.44	0.72	343	5	7	74	mem	con	mod	mod	low	tg	ms	wh/0848.bmp
254.16	0.72	344	3	6	28	mem	con	mod	mod	low	nt	ms	nh/0254_nh.bmp
254.88	0.72	345	4	7	25	per	lib	low	mod	low	nt	fa	nh/0394_nh.bmp
255.60	0.72	346	1	5	108	per	con	low	low	low	nt	cr	nh/0045_nh.bmp
256.32	0.72	347	4	6	53	per	con	low	mod	low	tg	ms	wh/0578.bmp
257.04	0.72	348	3	7	46	mem	lib	mod	mod	low	tg	ht	wh/0734.bmp
257.76	0.72	349	2	5	117	mem	con	mod	mod	mod	nt	ht	nh/0822_nh.bmp
258.48	0.72	350	3	5	16	per	con	mod	mod	mod	tg	ht	wh/0715.bmp
259.20	0.72	351	5	5	57	mem	lib	mod	mod	low	nt	ht	nh/1019_nh.bmp
259.92	0.72	352	3	7	39	mem	lib	mod	mod	low	tg	ht	wh/0164.bmp
260.64	0.72	353	3	7	45	mem	lib	mod	mod	low	nt	ht	nh/0143_nh.bmp
261.36	0.72	354	5	8	56	per	lib	mod	mod	mod	nt	cr	nh/0735_nh.bmp
262.08	0.72	355	3	8	57	per	lib	mod	mod	mod	tg	ht	wh/0318.bmp
262.80	0.72	356	5	7	66	mem	con	mod	mod	low	tg	ht	wh/0255.bmp
263.52	0.72	357	4	7	23	per	lib	low	mod	low	tg	ht	wh/0176.bmp
264.24	0.72	358	4	7	20	per	lib	low	mod	low	nt	cr	nh/0401_nh.bmp
264.96	0.72	359	4	5	124	mem	con	mod	mod	mod	tg	ms	wh/0629.bmp
265.68	0.72	360	1	7	104	mem	con	low	low	mod	tg	ms	wh/0227.bmp
266.40	0.72	361	3	5	64	mem	lib	mod	mod	low	tg	ht	wh/0618.bmp
267.12	0.72	362	4	5	15	per	con	mod	mod	mod	nt	cr	nh/0871_nh.bmp
267.84	0.72	363	2	5	50	mem	lib	mod	mod	low	nt	ht	nh/0170_nh.bmp
268.56	0.72	364	2	8	101	mem	con	mod	mod	mod	tg	ht	wh/0852.bmp
269.28	0.72	365	1	5	37	mem	lib	low	low	mod	tg	ht	wh/0869.bmp
270.00	0.72	366	4	7	51	per	con	mod	mod	mod	tg	ms	wh/0441.bmp
270.72	0.72	367	3	5	50	mem	lib	mod	mod	low	nt	ht	nh/0170_nh.bmp
271.44	0.72	368	3	6	57	per	con	low	mod	low	nt	cr	nh/0746_nh.bmp
272.16	0.72	369	3	5	86	per	lib	low	mod	low	nt	cr	nh/0582_nh.bmp
272.88	0.72	370	3	7	115	per	con	low	mod	low	tg	ms	wh/0863.bmp
273.60	0.72	371	1	8	19	per	con	low	low	low	tg	ms	wh/0657.bmp
274.32	0.72	372	1	5	78	per	lib	mod	mod	mod	tg	ht	wh/0623.bmp
275.04	0.72	373	2	6	32	mem	con	mod	mod	low	nt	ht	nh/0780_nh.bmp
275.76	0.72	374	1	6	36	mem	lib	low	low	low	nt	ht	nh/0240_nh.bmp
276.48	0.72	375	2	6	86	mem	lib	mod	mod	mod	nt	ht	nh/0556_nh.bmp
277.20	0.72	376	1	6	126	per	lib	low	low	low	tg	ms	wh/0260.bmp
277.92	0.72	377	2	8	52	per	lib	mod	mod	mod	tg	ht	wh/0086.bmp
278.64	0.72	378	1	8	75	mem	lib	low	low	low	nt	ht	nh/0516_nh.bmp
279.36	0.72	379	1	6	68	per	lib	mod	low	mod	nt	cr	nh/0837_nh.bmp
280.08	0.72	380	2	5	11	per	con	mod	mod	mod	tg	ms	wh/0495.bmp
280.80	0.72	381	3	5	11	per	con	mod	mod	mod	tg	ms	wh/0495.bmp
281.52	0.72	382	5	7	51	per	con	mod	mod	mod	tg	ms	wh/0441.bmp
282.24	0.72	383	2	7	78	mem	con	mod	mod	low	tg	ht	wh/0939.bmp
282.96	0.72	384	5	7	20	per	lib	low	mod	low	nt	cr	nh/0401_nh.bmp
283.68	0.72	385	2	8	100	mem	con	mod	mod	mod	tg	ht	wh/0586.bmp
284.40	0.72	386	1	8	38	mem	lib	mod	mod	mod	tg	ht	wh/0915.bmp
285.12	0.72	387	3	8	110	mem	con	mod	mod	mod	tg	ht	wh/0300.bmp
285.84	0.72	388	2	7	54	per	con	mod	mod	mod	nt	cr	nh/0686_nh.bmp
286.56	0.72	389	4	5	81	per	lib	low	mod	low	tg	ht	wh/1004.bmp
287.28	0.72	390	3	8	100	mem	con	mod	mod	mod	tg	ht	wh/0586.bmp
288.00	0.72	391	6	7	51	per	con	mod	mod	mod	tg	ms	wh/0441.bmp
288.72	0.72	392	3	8	48	mem	lib	mod	mod	mod	tg	ht	wh/0590.bmp
289.44	0.72	393	4	6	92	mem	lib	mod	mod	mod	tg	ht	wh/0717.bmp
290.16	0.72	394	4	7	46	mem	lib	mod	mod	low	tg	ht	wh/0734.bmp
290.88	0.72	395	2	5	13	per	con	mod	mod	mod	tg	ms	wh/0851.bmp
291.60	0.72	396	3	7	57	per	con	mod	mod	mod	tg	ht	wh/0294.bmp
292.32	0.72	397	1	7	83	per	lib	mod	low	mod	nt	cr	nh/0305_nh.bmp
293.04	0.72	398	3	5	117	mem	con	mod	mod	mod	nt	ht	nh/0822_nh.bmp
293.76	0.72	399	2	7	117	per	con	low	mod	low	tg	ms	wh/0612.bmp
294.48	0.72	400	3	5	59	mem	lib	mod	mod	low	nt	ht	nh/0892_nh.bmp
295.20	0.72	401	3	6	83	mem	lib	mod	mod	mod	tg	ht	wh/0378.bmp
295.92	0.72	402	4	5	85	per	lib	low	mod	low	nt	cr	nh/0491_nh.bmp
296.64	0.72	403	1	7	29	per	lib	low	mod	low	tg	ht	wh/0248.bmp
297.36	0.72	404	4	5	49	mem	lib	mod	mod	low	tg	ht	wh/0023.bmp
298.08	0.72	405	4	5	115	mem	con	mod	mod	mod	tg	ms	wh/0056.bmp
298.80	0.72	406	2	5	78	per	lib	mod	mod	mod	tg	ht	wh/0623.bmp
299.52	0.72	407	2	7	64	per	con	mod	mod	mod	nt	cr	nh/0546_nh.bmp
300.24	0.72	408	3	5	4	per	con	mod	mod	mod	nt	cr	nh/0609_nh.bmp
300.96	0.72	409	5	5	49	mem	lib	mod	mod	low	tg	ht	wh/0023.bmp
301.68	0.72	410	5	5	85	per	lib	low	mod	low	nt	cr	nh/0491_nh.bmp
302.40	0.72	411	2	6	50	per	con	low	mod	low	nt	cr	nh/0793_nh.bmp
303.12	0.72	412	1	6	80	per	lib	mod	low	mod	tg	ht	wh/0907.bmp
303.84	0.72	413	4	7	28	per	lib	low	mod	low	tg	ms	wh/0814.bmp
304.56	0.72	414	2	5	94	per	lib	low	mod	low	tg	ht	wh/0574.bmp
305.28	0.72	415	3	7	40	mem	lib	mod	mod	low	nt	ht	nh/0108_nh.bmp
306.00	0.72	416	4	5	11	per	con	mod	mod	mod	tg	ms	wh/0495.bmp
306.72	0.72	417	1	8	119	mem	con	low	low	low	tg	ht	wh/0506.bmp
307.44	0.72	418	5	7	55	per	con	mod	mod	mod	nt	cr	nh/0420_nh.bmp
308.16	0.72	419	4	5	59	mem	lib	mod	mod	low	nt	ht	nh/0892_nh.bmp
308.88	0.72	420	1	8	22	per	con	low	low	low	nt	cr	nh/0518_nh.bmp
309.60	0.72	421	5	5	62	mem	lib	mod	mod	low	tg	ht	wh/0678.bmp
310.32	0.72	422	2	6	17	mem	con	mod	mod	low	nt	ht	nh/0012_nh.bmp
311.04	0.72	423	4	7	53	per	con	mod	mod	mod	nt	cr	nh/0958_nh.bmp
311.76	0.72	424	3	7	54	per	con	mod	mod	mod	nt	cr	nh/0686_nh.bmp
312.48	0.72	425	1	6	76	per	lib	mod	low	mod	tg	ht	wh/0749.bmp
313.20	0.72	426	4	5	67	per	lib	mod	mod	mod	tg	ht	wh/0337.bmp
313.92	0.72	427	2	5	116	mem	con	mod	mod	mod	nt	ms	nh/0436_nh.bmp
314.64	0.72	428	4	7	120	per	con	low	mod	low	nt	cr	nh/0253_nh.bmp
315.36	0.72	429	4	7	70	mem	con	mod	mod	low	nt	ms	nh/0450_nh.bmp
316.08	0.72	430	1	8	91	per	lib	low	low	low	tg	ht	wh/0865.bmp
316.80	0.72	431	3	5	80	per	lib	mod	mod	mod	tg	ht	wh/0560.bmp
317.52	0.72	432	5	6	90	mem	lib	mod	mod	mod	nt	ht	nh/0239_nh.bmp
318.24	0.72	433	3	5	128	mem	con	mod	mod	mod	tg	ht	wh/0366.bmp
318.96	0.72	434	2	5	75	per	lib	mod	mod	mod	nt	fa	nh/0833_nh.bmp
319.68	0.72	435	2	8	109	mem	con	mod	mod	mod	nt	ht	nh/0978_nh.bmp
320.40	0.72	436	3	5	75	per	lib	mod	mod	mod	nt	fa	nh/0833_nh.bmp
321.12	0.72	437	4	5	80	per	lib	mod	mod	mod	tg	ht	wh/0560.bmp
321.84	0.72	438	1	6	14	per	con	mod	low	mod	nt	cr	nh/0559_nh.bmp
322.56	0.72	439	3	6	94	mem	lib	mod	mod	mod	nt	ht	nh/0603_nh.bmp
323.28	0.72	440	1	8	105	mem	con	mod	mod	mod	nt	ht	nh/0763_nh.bmp
324.00	0.72	441	2	6	91	mem	lib	mod	mod	mod	nt	ht	nh/0694_nh.bmp
324.72	0.72	442	3	6	32	mem	con	mod	mod	low	nt	ht	nh/0780_nh.bmp
325.44	0.72	443	5	8	97	mem	con	mod	mod	mod	tg	ht	wh/0832.bmp
326.16	0.72	444	1	5	36	mem	lib	low	low	mod	tg	ht	wh/0953.bmp
326.88	0.72	445	4	5	16	per	con	mod	mod	mod	tg	ht	wh/0715.bmp
327.60	0.72	446	3	6	50	per	con	low	mod	low	nt	cr	nh/0793_nh.bmp
328.32	0.72	447	1	6	98	mem	con	low	low	mod	tg	ms	wh/0625.bmp
329.04	0.72	448	3	5	68	per	lib	mod	mod	mod	nt	cr	nh/0599_nh.bmp
329.76	0.72	449	3	8	43	mem	lib	mod	mod	mod	tg	ms	wh/0968.bmp
330.48	0.72	450	1	5	12	per	con	mod	mod	mod	tg	ht	wh/0764.bmp
331.20	0.72	451	3	8	45	mem	lib	mod	mod	mod	nt	ht	nh/0275_nh.bmp
331.92	0.72	452	1	5	52	mem	lib	mod	mod	low	tg	ht	wh/0018.bmp
332.64	0.72	453	1	8	82	per	lib	low	low	low	nt	n/a	nh/0154_nh.bmp
333.36	0.72	454	3	7	64	per	con	mod	mod	mod	nt	cr	nh/0546_nh.bmp
334.08	0.72	455	3	6	18	mem	con	mod	mod	low	tg	ms	wh/0111.bmp
334.80	0.72	456	4	8	57	per	lib	mod	mod	mod	tg	ht	wh/0318.bmp
335.52	0.72	457	5	7	46	mem	lib	mod	mod	low	tg	ht	wh/0734.bmp
336.24	0.72	458	2	8	105	mem	con	mod	mod	mod	nt	ht	nh/0763_nh.bmp
336.96	0.72	459	2	7	114	per	con	low	mod	low	tg	ms	wh/0519.bmp
337.68	0.72	460	5	7	25	per	lib	low	mod	low	nt	fa	nh/0394_nh.bmp
338.40	0.72	461	2	7	21	per	lib	low	mod	low	nt	fa	nh/0756_nh.bmp
339.12	0.72	462	3	6	91	mem	lib	mod	mod	mod	nt	ht	nh/0694_nh.bmp
339.84	0.72	463	3	5	116	mem	con	mod	mod	mod	nt	ms	nh/0436_nh.bmp
340.56	0.72	464	5	8	57	per	lib	mod	mod	mod	tg	ht	wh/0318.bmp
341.28	0.72	465	5	7	120	per	con	low	mod	low	nt	cr	nh/0253_nh.bmp
342.00	0.72	466	5	5	11	per	con	mod	mod	mod	tg	ms	wh/0495.bmp
342.72	0.72	467	2	7	29	per	lib	low	mod	low	tg	ht	wh/0248.bmp
343.44	0.72	468	4	8	48	mem	lib	mod	mod	mod	tg	ht	wh/0590.bmp
344.16	0.72	469	3	6	87	mem	lib	mod	mod	mod	tg	ht	wh/0020.bmp
344.88	0.72	470	2	8	38	mem	lib	mod	mod	mod	tg	ht	wh/0915.bmp
345.60	0.72	471	5	5	67	per	lib	mod	mod	mod	tg	ht	wh/0337.bmp
346.32	0.72	472	4	7	54	per	con	mod	mod	mod	nt	cr	nh/0686_nh.bmp
347.04	0.72	473	2	5	12	per	con	mod	mod	mod	tg	ht	wh/0764.bmp
347.76	0.72	474	2	6	55	per	con	low	mod	low	tg	ms	wh/0193.bmp
348.48	0.72	475	3	8	49	per	lib	mod	mod	mod	nt	cr	nh/0778_nh.bmp
349.20	0.72	476	6	5	11	per	con	mod	mod	mod	tg	ms	wh/0495.bmp
349.92	0.72	477	4	6	87	mem	lib	mod	mod	mod	tg	ht	wh/0020.bmp
350.64	0.72	478	3	8	52	per	lib	mod	mod	mod	tg	ht	wh/0086.bmp
351.36	0.72	479	4	8	53	per	lib	mod	mod	mod	tg	ht	wh/0564.bmp
352.08	0.72	480	1	7	10	mem	lib	low	low	mod	nt	ht	nh/0751_nh.bmp
352.80	0.72	481	2	7	69	mem	con	mod	mod	low	nt	ms	nh/0521_nh.bmp
353.52	0.72	482	4	6	18	mem	con	mod	mod	low	tg	ms	wh/0111.bmp
354.24	0.72	483	4	8	47	mem	lib	mod	mod	mod	nt	ht	nh/0821_nh.bmp
354.96	0.72	484	4	8	43	mem	lib	mod	mod	mod	tg	ms	wh/0968.bmp
355.68	0.72	485	5	7	37	mem	lib	mod	mod	low	nt	ht	nh/0249_nh.bmp
356.40	0.72	486	4	8	52	per	lib	mod	mod	mod	tg	ht	wh/0086.bmp
357.12	0.72	487	1	8	125	mem	con	low	low	low	tg	ms	wh/0147.bmp
357.84	0.72	488	4	7	57	per	con	mod	mod	mod	tg	ht	wh/0294.bmp
358.56	0.72	489	2	5	5	per	con	mod	mod	mod	nt	cr	nh/0269_nh.bmp
359.28	0.72	490	4	5	87	per	lib	low	mod	low	tg	ht	wh/0241.bmp
360.00	0.72	491	3	8	108	mem	con	mod	mod	mod	nt	ht	nh/0552_nh.bmp
360.72	0.72	492	4	6	94	mem	lib	mod	mod	mod	nt	ht	nh/0603_nh.bmp
361.44	0.72	493	3	6	86	mem	lib	mod	mod	mod	nt	ht	nh/0556_nh.bmp
362.16	0.72	494	3	8	101	mem	con	mod	mod	mod	tg	ht	wh/0852.bmp
362.88	0.72	495	5	5	15	per	con	mod	mod	mod	nt	cr	nh/0871_nh.bmp
363.60	0.72	496	3	5	73	per	lib	mod	mod	mod	tg	ht	wh/0995.bmp
364.32	0.72	497	3	5	51	mem	lib	mod	mod	low	nt	ht	nh/0986_nh.bmp
365.04	0.72	498	1	7	85	per	lib	mod	low	mod	tg	ht	wh/0381.bmp
365.76	0.72	499	3	7	29	per	lib	low	mod	low	tg	ht	wh/0248.bmp
366.48	0.72	500	3	8	38	mem	lib	mod	mod	mod	tg	ht	wh/0915.bmp
367.20	0.72	501	1	6	5	per	con	mod	low	mod	tg	ht	wh/0840.bmp
367.92	0.72	502	4	7	64	per	con	mod	mod	mod	nt	cr	nh/0546_nh.bmp
368.64	0.72	503	3	7	30	per	lib	low	mod	low	tg	ht	wh/0114.bmp
369.36	0.72	504	3	5	94	per	lib	low	mod	low	tg	ht	wh/0574.bmp
370.08	0.72	505	6	7	55	per	con	mod	mod	mod	nt	cr	nh/0420_nh.bmp
370.80	0.72	506	5	7	54	per	con	mod	mod	mod	nt	cr	nh/0686_nh.bmp
371.52	0.72	507	5	7	65	mem	con	mod	mod	low	tg	ms	wh/0042.bmp
372.24	0.72	508	4	8	33	mem	lib	mod	mod	mod	nt	ht	nh/0638_nh.bmp
372.96	0.72	509	3	6	27	mem	con	mod	mod	low	tg	ht	wh/1014.bmp
373.68	0.72	510	1	6	106	mem	con	low	low	mod	nt	ht	nh/0037_nh.bmp
374.40	0.72	511	5	8	53	per	lib	mod	mod	mod	tg	ht	wh/0564.bmp
375.12	0.72	512	4	5	8	per	con	mod	mod	mod	nt	cr	nh/0602_nh.bmp
375.84	0.72	513	3	5	122	mem	con	mod	mod	mod	nt	ht	nh/0971_nh.bmp
376.56	0.72	514	3	6	49	per	con	low	mod	low	nt	cr	nh/0403_nh.bmp
377.28	0.72	515	5	7	64	per	con	mod	mod	mod	nt	cr	nh/0546_nh.bmp
378.00	0.72	516	4	6	91	mem	lib	mod	mod	mod	nt	ht	nh/0694_nh.bmp
378.72	0.72	517	4	6	50	per	con	low	mod	low	nt	cr	nh/0793_nh.bmp
379.44	0.72	518	5	6	50	per	con	low	mod	low	nt	cr	nh/0793_nh.bmp
380.16	0.72	519	4	5	116	mem	con	mod	mod	mod	nt	ms	nh/0436_nh.bmp
380.88	0.72	520	1	7	6	mem	lib	low	low	mod	tg	ht	wh/0980.bmp
381.60	0.72	521	3	7	68	mem	con	mod	mod	low	nt	ms	nh/0388_nh.bmp
382.32	0.72	522	3	7	21	per	lib	low	mod	low	nt	fa	nh/0756_nh.bmp
383.04	0.72	523	6	5	15	per	con	mod	mod	mod	nt	cr	nh/0871_nh.bmp
383.76	0.72	524	4	7	116	per	con	low	mod	low	tg	ms	wh/0024.bmp
384.48	0.72	525	4	5	84	per	lib	low	mod	low	nt	cr	nh/0073_nh.bmp
385.20	0.72	526	4	8	101	mem	con	mod	mod	mod	tg	ht	wh/0852.bmp
385.92	0.72	527	2	6	21	mem	con	mod	mod	low	nt	ms	nh/0139_nh.bmp
386.64	0.72	528	5	7	28	per	lib	low	mod	low	tg	ms	wh/0814.bmp
387.36	0.72	529	6	5	62	mem	lib	mod	mod	low	tg	ht	wh/0678.bmp
388.08	0.72	530	3	7	128	per	con	low	mod	low	nt	cr	nh/0883_nh.bmp
388.80	0.72	531	6	7	20	per	lib	low	mod	low	nt	cr	nh/0401_nh.bmp
389.52	0.72	532	3	7	117	per	con	low	mod	low	tg	ms	wh/0612.bmp
390.24	0.72	533	4	7	117	per	con	low	mod	low	tg	ms	wh/0612.bmp
390.96	0.72	534	4	6	83	mem	lib	mod	mod	mod	tg	ht	wh/0378.bmp
391.68	0.72	535	5	5	115	mem	con	mod	mod	mod	tg	ms	wh/0056.bmp
392.40	0.72	536	2	7	56	per	con	mod	mod	mod	tg	ht	wh/0060.bmp
393.12	0.72	537	3	7	69	mem	con	mod	mod	low	nt	ms	nh/0521_nh.bmp
393.84	0.72	538	3	7	119	per	con	low	mod	low	nt	cr	nh/0297_nh.bmp
394.56	0.72	539	4	5	71	per	lib	mod	mod	mod	nt	cr	nh/0797_nh.bmp
395.28	0.72	540	3	7	78	mem	con	mod	mod	low	tg	ht	wh/0939.bmp
396.00	0.72	541	4	5	128	mem	con	mod	mod	mod	tg	ht	wh/0366.bmp
396.72	0.72	542	3	6	89	mem	lib	mod	mod	mod	tg	ht	wh/0952.bmp
397.44	0.72	543	5	7	23	per	lib	low	mod	low	tg	ht	wh/0176.bmp
398.16	0.72	544	1	8	85	per	lib	low	low	low	tg	ht	wh/0468.bmp
398.88	0.72	545	4	7	115	per	con	low	mod	low	tg	ms	wh/0863.bmp
399.60	0.72	546	6	8	57	per	lib	mod	mod	mod	tg	ht	wh/0318.bmp
400.32	0.72	547	3	8	99	mem	con	mod	mod	mod	nt	ht	nh/0544_nh.bmp
401.04	0.72	548	3	5	5	per	con	mod	mod	mod	nt	cr	nh/0269_nh.bmp
401.76	0.72	549	1	8	70	mem	lib	low	low	low	nt	ht	nh/0610_nh.bmp
402.48	0.72	550	5	8	34	mem	lib	mod	mod	mod	nt	ht	nh/0666_nh.bmp
403.20	0.72	551	5	6	58	per	con	low	mod	low	nt	cr	nh/0118_nh.bmp
403.92	0.72	552	5	5	87	per	lib	low	mod	low	tg	ht	wh/0241.bmp
404.64	0.72	553	4	7	128	per	con	low	mod	low	nt	cr	nh/0883_nh.bmp
405.36	0.72	554	6	7	28	per	lib	low	mod	low	tg	ms	wh/0814.bmp
406.08	0.72	555	4	7	30	per	lib	low	mod	low	tg	ht	wh/0114.bmp
406.80	0.72	556	4	8	110	mem	con	mod	mod	mod	tg	ht	wh/0300.bmp
407.52	0.72	557	1	6	45	mem	lib	low	low	low	tg	ht	wh/0219.bmp
408.24	0.72	558	6	7	46	mem	lib	mod	mod	low	tg	ht	wh/0734.bmp
408.96	0.72	559	5	5	84	per	lib	low	mod	low	nt	cr	nh/0073_nh.bmp
409.68	0.72	560	3	7	114	per	con	low	mod	low	tg	ms	wh/0519.bmp
410.40	0.72	561	5	5	8	per	con	mod	mod	mod	nt	cr	nh/0602_nh.bmp
411.12	0.72	562	6	7	23	per	lib	low	mod	low	tg	ht	wh/0176.bmp
411.84	0.72	563	3	6	55	per	con	low	mod	low	tg	ms	wh/0193.bmp
412.56	0.72	564	4	6	25	mem	con	mod	mod	low	tg	ht	wh/0640.bmp
413.28	0.72	565	3	7	44	mem	lib	mod	mod	low	nt	ht	nh/0262_nh.bmp
414.00	0.72	566	4	5	4	per	con	mod	mod	mod	nt	cr	nh/0609_nh.bmp
414.72	0.72	567	4	7	21	per	lib	low	mod	low	nt	fa	nh/0756_nh.bmp
415.44	0.72	568	4	5	122	mem	con	mod	mod	mod	nt	ht	nh/0971_nh.bmp
416.16	0.72	569	1	5	17	mem	con	low	low	low	nt	ms	nh/0859_nh.bmp
416.88	0.72	570	4	6	49	per	con	low	mod	low	nt	cr	nh/0403_nh.bmp
417.60	0.72	571	5	6	22	mem	con	mod	mod	low	tg	ms	wh/0064.bmp
418.32	0.72	572	4	8	49	per	lib	mod	mod	mod	nt	cr	nh/0778_nh.bmp
419.04	0.72	573	4	7	40	mem	lib	mod	mod	low	nt	ht	nh/0108_nh.bmp
419.76	0.72	574	5	7	70	mem	con	mod	mod	low	nt	ms	nh/0450_nh.bmp
420.48	0.72	575	4	7	119	per	con	low	mod	low	nt	cr	nh/0297_nh.bmp
421.20	0.72	576	3	6	64	per	con	low	mod	low	tg	ht	wh/0374.bmp
421.92	0.72	577	4	6	55	per	con	low	mod	low	tg	ms	wh/0193.bmp
422.64	0.72	578	4	7	114	per	con	low	mod	low	tg	ms	wh/0519.bmp
423.36	0.72	579	4	8	100	mem	con	mod	mod	mod	tg	ht	wh/0586.bmp
424.08	0.72	580	4	7	73	mem	con	mod	mod	low	nt	ms	nh/0172_nh.bmp
424.80	0.72	581	1	5	101	per	con	low	low	low	tg	ms	wh/0880.bmp
425.52	0.72	582	5	5	71	per	lib	mod	mod	mod	nt	cr	nh/0797_nh.bmp
426.24	0.72	583	5	5	16	per	con	mod	mod	mod	tg	ht	wh/0715.bmp
426.96	0.72	584	6	7	120	per	con	low	mod	low	nt	cr	nh/0253_nh.bmp
427.68	0.72	585	1	7	97	mem	con	low	low	mod	tg	ms	wh/0347.bmp
428.40	0.72	586	4	6	27	mem	con	mod	mod	low	tg	ht	wh/1014.bmp
429.12	0.72	587	4	5	75	per	lib	mod	mod	mod	nt	fa	nh/0833_nh.bmp
429.84	0.72	588	4	5	117	mem	con	mod	mod	mod	nt	ht	nh/0822_nh.bmp
430.56	0.72	589	1	6	33	mem	lib	low	low	low	nt	ht	nh/0181_nh.bmp
431.28	0.72	590	2	8	55	per	lib	mod	mod	mod	tg	ht	wh/0835.bmp
432.00	0.72	591	5	7	114	per	con	low	mod	low	tg	ms	wh/0519.bmp
432.72	0.72	592	4	7	29	per	lib	low	mod	low	tg	ht	wh/0248.bmp
433.44	0.72	593	5	7	119	per	con	low	mod	low	nt	cr	nh/0297_nh.bmp
434.16	0.72	594	4	6	57	per	con	low	mod	low	nt	cr	nh/0746_nh.bmp
434.88	0.72	595	3	7	47	mem	lib	mod	mod	low	tg	ht	wh/0247.bmp
435.60	0.72	596	4	5	68	per	lib	mod	mod	mod	nt	cr	nh/0599_nh.bmp
436.32	0.72	597	5	8	101	mem	con	mod	mod	mod	tg	ht	wh/0852.bmp
437.04	0.72	598	5	8	49	per	lib	mod	mod	mod	nt	cr	nh/0778_nh.bmp
437.76	0.72	599	3	5	13	per	con	mod	mod	mod	tg	ms	wh/0851.bmp
438.48	0.72	600	5	5	117	mem	con	mod	mod	mod	nt	ht	nh/0822_nh.bmp
439.20	0.72	601	3	8	105	mem	con	mod	mod	mod	nt	ht	nh/0763_nh.bmp
439.92	0.72	602	1	6	47	mem	lib	low	low	low	tg	ht	wh/0639.bmp
440.64	0.72	603	2	5	52	mem	lib	mod	mod	low	tg	ht	wh/0018.bmp
441.36	0.72	604	4	7	44	mem	lib	mod	mod	low	nt	ht	nh/0262_nh.bmp
442.08	0.72	605	1	7	106	mem	con	low	low	mod	nt	ms	nh/0186_nh.bmp
442.80	0.72	606	6	5	65	per	lib	mod	mod	mod	nt	cr	nh/0408_nh.bmp
443.52	0.72	607	3	5	126	mem	con	mod	mod	mod	tg	ht	wh/0179.bmp
444.24	0.72	608	5	7	21	per	lib	low	mod	low	nt	fa	nh/0756_nh.bmp
444.96	0.72	609	5	8	110	mem	con	mod	mod	mod	tg	ht	wh/0300.bmp
445.68	0.72	610	5	5	4	per	con	mod	mod	mod	nt	cr	nh/0609_nh.bmp
446.40	0.72	611	1	8	121	mem	con	low	low	low	tg	ms	wh/0089.bmp
447.12	0.72	612	1	6	112	mem	con	low	low	mod	tg	ms	wh/0051.bmp
447.84	0.72	613	5	5	68	per	lib	mod	mod	mod	nt	cr	nh/0599_nh.bmp
448.56	0.72	614	5	5	59	mem	lib	mod	mod	low	nt	ht	nh/0892_nh.bmp
449.28	0.72	615	5	7	117	per	con	low	mod	low	tg	ms	wh/0612.bmp
450.00	0.72	616	1	8	81	per	lib	low	low	low	tg	ht	wh/0285.bmp
450.72	0.72	617	4	5	13	per	con	mod	mod	mod	tg	ms	wh/0851.bmp
451.44	0.72	618	3	5	88	per	lib	low	mod	low	nt	cr	nh/0820_nh.bmp
452.16	0.72	619	6	5	87	per	lib	low	mod	low	tg	ht	wh/0241.bmp
452.88	0.72	620	4	5	126	mem	con	mod	mod	mod	tg	ht	wh/0179.bmp
453.60	0.72	621	6	7	65	mem	con	mod	mod	low	tg	ms	wh/0042.bmp
454.32	0.72	622	3	6	21	mem	con	mod	mod	low	nt	ms	nh/0139_nh.bmp
455.04	0.72	623	3	8	109	mem	con	mod	mod	mod	nt	ht	nh/0978_nh.bmp
455.76	0.72	624	1	6	103	mem	con	low	low	mod	tg	ms	wh/0537.bmp
456.48	0.72	625	5	6	55	per	con	low	mod	low	tg	ms	wh/0193.bmp
457.20	0.72	626	5	5	116	mem	con	mod	mod	mod	nt	ms	nh/0436_nh.bmp
457.92	0.72	627	4	7	39	mem	lib	mod	mod	low	tg	ht	wh/0164.bmp
458.64	0.72	628	4	8	38	mem	lib	mod	mod	mod	tg	ht	wh/0915.bmp
459.36	0.72	629	5	5	93	per	lib	low	mod	low	tg	ht	wh/0875.bmp
460.08	0.72	630	1	8	18	per	con	low	low	low	tg	ms	wh/0043.bmp
460.80	0.72	631	5	5	13	per	con	mod	mod	mod	tg	ms	wh/0851.bmp
461.52	0.72	632	6	8	110	mem	con	mod	mod	mod	tg	ht	wh/0300.bmp
462.24	0.72	633	2	8	50	per	lib	mod	mod	mod	nt	fa	nh/0399_nh.bmp
462.96	0.72	634	1	6	38	mem	lib	low	low	low	nt	ht	nh/0770_nh.bmp
463.68	0.72	635	2	7	32	per	lib	low	mod	low	nt	fa	nh/0453_nh.bmp
464.40	0.72	636	3	5	52	mem	lib	mod	mod	low	tg	ht	wh/0018.bmp
465.12	0.72	637	5	6	83	mem	lib	mod	mod	mod	tg	ht	wh/0378.bmp
465.84	0.72	638	4	5	88	per	lib	low	mod	low	nt	cr	nh/0820_nh.bmp
466.56	0.72	639	6	7	117	per	con	low	mod	low	tg	ms	wh/0612.bmp
467.28	0.72	640	5	7	40	mem	lib	mod	mod	low	nt	ht	nh/0108_nh.bmp
468.00	0.72	641	1	6	7	per	con	mod	low	mod	tg	ms	wh/0668.bmp
468.72	0.72	642	5	7	44	mem	lib	mod	mod	low	nt	ht	nh/0262_nh.bmp
469.44	0.72	643	5	5	122	mem	con	mod	mod	mod	nt	ht	nh/0971_nh.bmp
470.16	0.72	644	4	6	86	mem	lib	mod	mod	mod	nt	ht	nh/0556_nh.bmp
470.88	0.72	645	5	7	73	mem	con	mod	mod	low	nt	ms	nh/0172_nh.bmp
471.60	0.72	646	1	8	74	mem	lib	low	low	low	nt	ht	nh/0990_nh.bmp
472.32	0.72	647	4	8	109	mem	con	mod	mod	mod	nt	ht	nh/0978_nh.bmp
473.04	0.72	648	5	6	91	mem	lib	mod	mod	mod	nt	ht	nh/0694_nh.bmp
473.76	0.72	649	5	6	18	mem	con	mod	mod	low	tg	ms	wh/0111.bmp
474.48	0.72	650	3	5	78	per	lib	mod	mod	mod	tg	ht	wh/0623.bmp
475.20	0.72	651	4	7	69	mem	con	mod	mod	low	nt	ms	nh/0521_nh.bmp
475.92	0.72	652	4	8	108	mem	con	mod	mod	mod	nt	ht	nh/0552_nh.bmp
476.64	0.72	653	1	6	121	per	lib	low	low	low	tg	ht	wh/0268.bmp
477.36	0.72	654	6	5	16	per	con	mod	mod	mod	tg	ht	wh/0715.bmp
478.08	0.72	655	5	6	52	per	con	low	mod	low	tg	ms	wh/0165.bmp
478.80	0.72	656	4	6	89	mem	lib	mod	mod	mod	tg	ht	wh/0952.bmp
479.52	0.72	657	5	8	52	per	lib	mod	mod	mod	tg	ht	wh/0086.bmp
480.24	0.72	658	4	5	86	per	lib	low	mod	low	nt	cr	nh/0582_nh.bmp
480.96	0.72	659	1	6	127	per	lib	low	low	low	tg	ht	wh/0135.bmp
481.68	0.72	660	1	7	87	per	lib	mod	low	mod	tg	ms	wh/0395.bmp
482.40	0.72	661	4	8	105	mem	con	mod	mod	mod	nt	ht	nh/0763_nh.bmp
483.12	0.72	662	6	6	18	mem	con	mod	mod	low	tg	ms	wh/0111.bmp
483.84	0.72	663	1	8	29	per	con	low	low	low	nt	cr	nh/0728_nh.bmp
484.56	0.72	664	3	6	17	mem	con	mod	mod	low	nt	ht	nh/0012_nh.bmp
485.28	0.72	665	1	7	81	per	lib	mod	low	mod	nt	cr	nh/0372_nh.bmp
486.00	0.72	666	4	7	45	mem	lib	mod	mod	low	nt	ht	nh/0143_nh.bmp
486.72	0.72	667	5	8	48	mem	lib	mod	mod	mod	tg	ht	wh/0590.bmp
487.44	0.72	668	4	8	45	mem	lib	mod	mod	mod	nt	ht	nh/0275_nh.bmp
488.16	0.72	669	4	5	50	mem	lib	mod	mod	low	nt	ht	nh/0170_nh.bmp
488.88	0.72	670	5	7	39	mem	lib	mod	mod	low	tg	ht	wh/0164.bmp
489.60	0.72	671	3	5	12	per	con	mod	mod	mod	tg	ht	wh/0764.bmp
490.32	0.72	672	1	8	80	mem	lib	low	low	low	tg	ht	wh/0198.bmp
491.04	0.72	673	4	5	64	mem	lib	mod	mod	low	tg	ht	wh/0618.bmp
491.76	0.72	674	1	6	79	per	lib	mod	low	mod	nt	fa	nh/0207_nh.bmp
492.48	0.72	675	4	5	52	mem	lib	mod	mod	low	tg	ht	wh/0018.bmp
493.20	0.72	676	5	7	45	mem	lib	mod	mod	low	nt	ht	nh/0143_nh.bmp
493.92	0.72	677	5	8	47	mem	lib	mod	mod	mod	nt	ht	nh/0821_nh.bmp
494.64	0.72	678	4	8	99	mem	con	mod	mod	mod	nt	ht	nh/0544_nh.bmp
495.36	0.72	679	1	6	125	per	lib	low	low	low	nt	fa	nh/0376_nh.bmp
496.08	0.72	680	6	7	70	mem	con	mod	mod	low	nt	ms	nh/0450_nh.bmp
496.80	0.72	681	4	7	61	per	con	mod	mod	mod	tg	ht	wh/0888.bmp
497.52	0.72	682	5	8	99	mem	con	mod	mod	mod	nt	ht	nh/0544_nh.bmp
498.24	0.72	683	4	5	78	per	lib	mod	mod	mod	tg	ht	wh/0623.bmp
498.96	0.72	684	4	7	68	mem	con	mod	mod	low	nt	ms	nh/0388_nh.bmp
499.68	0.72	685	3	8	55	per	lib	mod	mod	mod	tg	ht	wh/0835.bmp
500.40	0.72	686	4	6	28	mem	con	mod	mod	low	nt	ms	nh/0254_nh.bmp
501.12	0.72	687	5	6	94	mem	lib	mod	mod	mod	nt	ht	nh/0603_nh.bmp
501.84	0.72	688	6	5	13	per	con	mod	mod	mod	tg	ms	wh/0851.bmp
502.56	0.72	689	5	6	57	per	con	low	mod	low	nt	cr	nh/0746_nh.bmp
503.28	0.72	690	6	7	73	mem	con	mod	mod	low	nt	ms	nh/0172_nh.bmp
504.00	0.72	691	5	5	126	mem	con	mod	mod	mod	tg	ht	wh/0179.bmp
504.72	0.72	692	5	6	28	mem	con	mod	mod	low	nt	ms	nh/0254_nh.bmp
505.44	0.72	693	4	5	73	per	lib	mod	mod	mod	tg	ht	wh/0995.bmp
506.16	0.72	694	6	7	54	per	con	mod	mod	mod	nt	cr	nh/0686_nh.bmp
506.88	0.72	695	4	6	64	per	con	low	mod	low	tg	ht	wh/0374.bmp
507.60	0.72	696	6	7	119	per	con	low	mod	low	nt	cr	nh/0297_nh.bmp
508.32	0.72	697	4	5	51	mem	lib	mod	mod	low	nt	ht	nh/0986_nh.bmp
509.04	0.72	698	6	7	114	per	con	low	mod	low	tg	ms	wh/0519.bmp
509.76	0.72	699	4	8	55	per	lib	mod	mod	mod	tg	ht	wh/0835.bmp
510.48	0.72	700	6	8	52	per	lib	mod	mod	mod	tg	ht	wh/0086.bmp
511.20	0.72	701	5	5	124	mem	con	mod	mod	mod	tg	ms	wh/0629.bmp
511.92	0.72	702	6	5	124	mem	con	mod	mod	mod	tg	ms	wh/0629.bmp
512.64	0.72	703	4	5	12	per	con	mod	mod	mod	tg	ht	wh/0764.bmp
513.36	0.72	704	5	8	100	mem	con	mod	mod	mod	tg	ht	wh/0586.bmp
514.08	0.72	705	4	5	119	mem	con	mod	mod	mod	nt	ht	nh/0549_nh.bmp
514.80	0.72	706	5	5	75	per	lib	mod	mod	mod	nt	fa	nh/0833_nh.bmp
515.52	0.72	707	4	6	21	mem	con	mod	mod	low	nt	ms	nh/0139_nh.bmp
516.24	0.72	708	6	5	116	mem	con	mod	mod	mod	nt	ms	nh/0436_nh.bmp
516.96	0.72	709	4	5	94	per	lib	low	mod	low	tg	ht	wh/0574.bmp
517.68	0.72	710	6	5	84	per	lib	low	mod	low	nt	cr	nh/0073_nh.bmp
518.40	0.72	711	5	5	50	mem	lib	mod	mod	low	nt	ht	nh/0170_nh.bmp
519.12	0.72	712	5	6	87	mem	lib	mod	mod	mod	tg	ht	wh/0020.bmp
519.84	0.72	713	5	5	81	per	lib	low	mod	low	tg	ht	wh/1004.bmp
520.56	0.72	714	4	6	17	mem	con	mod	mod	low	nt	ht	nh/0012_nh.bmp
521.28	0.72	715	4	7	47	mem	lib	mod	mod	low	tg	ht	wh/0247.bmp
522.00	0.72	716	5	7	29	per	lib	low	mod	low	tg	ht	wh/0248.bmp
522.72	0.72	717	5	5	52	mem	lib	mod	mod	low	tg	ht	wh/0018.bmp
523.44	0.72	718	3	8	50	per	lib	mod	mod	mod	nt	fa	nh/0399_nh.bmp
524.16	0.72	719	1	5	28	mem	con	low	low	low	tg	ms	wh/0677.bmp
524.88	0.72	720	5	6	92	mem	lib	mod	mod	mod	tg	ht	wh/0717.bmp
525.60	0.72	721	6	5	117	mem	con	mod	mod	mod	nt	ht	nh/0822_nh.bmp
526.32	0.72	722	5	8	55	per	lib	mod	mod	mod	tg	ht	wh/0835.bmp
527.04	0.72	723	6	5	81	per	lib	low	mod	low	tg	ht	wh/1004.bmp
527.76	0.72	724	6	7	66	mem	con	mod	mod	low	tg	ht	wh/0255.bmp
528.48	0.72	725	5	6	49	per	con	low	mod	low	nt	cr	nh/0403_nh.bmp
529.20	0.72	726	5	7	115	per	con	low	mod	low	tg	ms	wh/0863.bmp
529.92	0.72	727	3	8	35	mem	lib	mod	mod	mod	tg	ht	wh/0827.bmp
530.64	0.72	728	4	7	78	mem	con	mod	mod	low	tg	ht	wh/0939.bmp
531.36	0.72	729	6	7	40	mem	lib	mod	mod	low	nt	ht	nh/0108_nh.bmp
532.08	0.72	730	6	7	29	per	lib	low	mod	low	tg	ht	wh/0248.bmp
532.80	0.72	731	6	6	58	per	con	low	mod	low	nt	cr	nh/0118_nh.bmp
533.52	0.72	732	1	8	13	per	con	mod	low	mod	nt	cr	nh/0084_nh.bmp
534.24	0.72	733	6	6	90	mem	lib	mod	mod	mod	nt	ht	nh/0239_nh.bmp
534.96	0.72	734	6	8	56	per	lib	mod	mod	mod	nt	cr	nh/0735_nh.bmp
535.68	0.72	735	6	7	43	mem	lib	mod	mod	low	tg	ht	wh/0647.bmp
536.40	0.72	736	6	5	8	per	con	mod	mod	mod	nt	cr	nh/0602_nh.bmp
537.12	0.72	737	5	7	116	per	con	low	mod	low	tg	ms	wh/0024.bmp
537.84	0.72	738	1	7	90	per	lib	mod	low	mod	tg	ht	wh/0982.bmp
538.56	0.72	739	6	5	52	mem	lib	mod	mod	low	tg	ht	wh/0018.bmp
539.28	0.72	740	6	6	87	mem	lib	mod	mod	mod	tg	ht	wh/0020.bmp
540.00	0.72	741	5	6	21	mem	con	mod	mod	low	nt	ms	nh/0139_nh.bmp
540.72	0.72	742	5	5	80	per	lib	mod	mod	mod	tg	ht	wh/0560.bmp
541.44	0.72	743	5	7	53	per	con	mod	mod	mod	nt	cr	nh/0958_nh.bmp
542.16	0.72	744	5	6	89	mem	lib	mod	mod	mod	tg	ht	wh/0952.bmp
542.88	0.72	745	5	5	128	mem	con	mod	mod	mod	tg	ht	wh/0366.bmp
543.60	0.72	746	5	8	43	mem	lib	mod	mod	mod	tg	ms	wh/0968.bmp
544.32	0.72	747	5	8	60	per	lib	mod	mod	mod	nt	fa	nh/0385_nh.bmp
545.04	0.72	748	5	7	57	per	con	mod	mod	mod	tg	ht	wh/0294.bmp
545.76	0.72	749	5	8	33	mem	lib	mod	mod	mod	nt	ht	nh/0638_nh.bmp
546.48	0.72	750	5	8	109	mem	con	mod	mod	mod	nt	ht	nh/0978_nh.bmp
547.20	0.72	751	1	8	10	per	con	mod	low	mod	nt	cr	nh/0091_nh.bmp
547.92	0.72	752	1	8	84	per	lib	low	low	low	nt	cr	nh/0482_nh.bmp
548.64	0.72	753	5	8	45	mem	lib	mod	mod	mod	nt	ht	nh/0275_nh.bmp
549.36	0.72	754	4	6	32	mem	con	mod	mod	low	nt	ht	nh/0780_nh.bmp
550.08	0.72	755	5	7	68	mem	con	mod	mod	low	nt	ms	nh/0388_nh.bmp
550.80	0.72	756	5	5	119	mem	con	mod	mod	mod	nt	ht	nh/0549_nh.bmp
551.52	0.72	757	6	8	97	mem	con	mod	mod	mod	tg	ht	wh/0832.bmp
552.24	0.72	758	5	8	105	mem	con	mod	mod	mod	nt	ht	nh/0763_nh.bmp
552.96	0.72	759	1	6	15	per	con	mod	low	mod	nt	cr	nh/0532_nh.bmp
553.68	0.72	760	5	5	12	per	con	mod	mod	mod	tg	ht	wh/0764.bmp
554.40	0.72	761	4	5	5	per	con	mod	mod	mod	nt	cr	nh/0269_nh.bmp
555.12	0.72	762	5	5	86	per	lib	low	mod	low	nt	cr	nh/0582_nh.bmp
555.84	0.72	763	5	6	17	mem	con	mod	mod	low	nt	ht	nh/0012_nh.bmp
556.56	0.72	764	1	7	100	mem	con	low	low	mod	nt	ht	nh/0611_nh.bmp
557.28	0.72	765	4	8	35	mem	lib	mod	mod	mod	tg	ht	wh/0827.bmp
558.00	0.72	766	5	8	38	mem	lib	mod	mod	mod	tg	ht	wh/0915.bmp
558.72	0.72	767	6	8	60	per	lib	mod	mod	mod	nt	fa	nh/0385_nh.bmp
559.44	0.72	768	6	7	64	per	con	mod	mod	mod	nt	cr	nh/0546_nh.bmp
560.16	0.72	769	6	7	122	per	con	low	mod	low	nt	cr	nh/0157_nh.bmp
560.88	0.72	770	6	8	38	mem	lib	mod	mod	mod	tg	ht	wh/0915.bmp
561.60	0.72	771	6	7	74	mem	con	mod	mod	low	tg	ms	wh/0848.bmp
562.32	0.72	772	5	5	73	per	lib	mod	mod	mod	tg	ht	wh/0995.bmp
563.04	0.72	773	5	7	30	per	lib	low	mod	low	tg	ht	wh/0114.bmp
563.76	0.72	774	6	8	47	mem	lib	mod	mod	mod	nt	ht	nh/0821_nh.bmp
564.48	0.72	775	5	7	69	mem	con	mod	mod	low	nt	ms	nh/0521_nh.bmp
565.20	0.72	776	6	5	57	mem	lib	mod	mod	low	nt	ht	nh/1019_nh.bmp
565.92	0.72	777	5	5	88	per	lib	low	mod	low	nt	cr	nh/0820_nh.bmp
566.64	0.72	778	6	6	89	mem	lib	mod	mod	mod	tg	ht	wh/0952.bmp
567.36	0.72	779	1	5	41	mem	lib	low	low	mod	nt	ht	nh/0418_nh.bmp
568.08	0.72	780	3	7	56	per	con	mod	mod	mod	tg	ht	wh/0060.bmp
568.80	0.72	781	6	7	30	per	lib	low	mod	low	tg	ht	wh/0114.bmp
569.52	0.72	782	6	5	128	mem	con	mod	mod	mod	tg	ht	wh/0366.bmp
570.24	0.72	783	5	6	32	mem	con	mod	mod	low	nt	ht	nh/0780_nh.bmp
570.96	0.72	784	6	6	17	mem	con	mod	mod	low	nt	ht	nh/0012_nh.bmp
571.68	0.72	785	6	8	49	per	lib	mod	mod	mod	nt	cr	nh/0778_nh.bmp
572.40	0.72	786	6	6	52	per	con	low	mod	low	tg	ms	wh/0165.bmp
573.12	0.72	787	1	7	14	mem	lib	low	low	mod	nt	ht	nh/0622_nh.bmp
573.84	0.72	788	5	7	78	mem	con	mod	mod	low	tg	ht	wh/0939.bmp
574.56	0.72	789	1	8	77	mem	lib	low	low	low	nt	ht	nh/0737_nh.bmp
575.28	0.72	790	5	6	64	per	con	low	mod	low	tg	ht	wh/0374.bmp
576.00	0.72	791	5	5	51	mem	lib	mod	mod	low	nt	ht	nh/0986_nh.bmp
576.72	0.72	792	4	8	50	per	lib	mod	mod	mod	nt	fa	nh/0399_nh.bmp
577.44	0.72	793	5	8	50	per	lib	mod	mod	mod	nt	fa	nh/0399_nh.bmp
578.16	0.72	794	6	6	22	mem	con	mod	mod	low	tg	ms	wh/0064.bmp
578.88	0.72	795	5	8	35	mem	lib	mod	mod	mod	tg	ht	wh/0827.bmp
579.60	0.72	796	6	6	64	per	con	low	mod	low	tg	ht	wh/0374.bmp
580.32	0.72	797	1	8	68	mem	lib	low	low	low	tg	ht	wh/0022.bmp
581.04	0.72	798	6	6	55	per	con	low	mod	low	tg	ms	wh/0193.bmp
581.76	0.72	799	6	7	45	mem	lib	mod	mod	low	nt	ht	nh/0143_nh.bmp
582.48	0.72	800	5	5	64	mem	lib	mod	mod	low	tg	ht	wh/0618.bmp
583.20	0.72	801	6	8	99	mem	con	mod	mod	mod	nt	ht	nh/0544_nh.bmp
583.92	0.72	802	6	8	35	mem	lib	mod	mod	mod	tg	ht	wh/0827.bmp
584.64	0.72	803	6	7	39	mem	lib	mod	mod	low	tg	ht	wh/0164.bmp
585.36	0.72	804	6	8	33	mem	lib	mod	mod	mod	nt	ht	nh/0638_nh.bmp
586.08	0.72	805	6	5	50	mem	lib	mod	mod	low	nt	ht	nh/0170_nh.bmp
586.80	0.72	806	3	7	32	per	lib	low	mod	low	nt	fa	nh/0453_nh.bmp
587.52	0.72	807	5	7	61	per	con	mod	mod	mod	tg	ht	wh/0888.bmp
588.24	0.72	808	4	7	32	per	lib	low	mod	low	nt	fa	nh/0453_nh.bmp
588.96	0.72	809	6	5	64	mem	lib	mod	mod	low	tg	ht	wh/0618.bmp
589.68	0.72	810	6	7	53	per	con	mod	mod	mod	nt	cr	nh/0958_nh.bmp
590.40	0.72	811	6	6	91	mem	lib	mod	mod	mod	nt	ht	nh/0694_nh.bmp
591.12	0.72	812	5	7	47	mem	lib	mod	mod	low	tg	ht	wh/0247.bmp
591.84	0.72	813	1	5	25	mem	con	low	low	low	tg	ht	wh/0138.bmp
592.56	0.72	814	6	5	86	per	lib	low	mod	low	nt	cr	nh/0582_nh.bmp
593.28	0.72	815	6	6	49	per	con	low	mod	low	nt	cr	nh/0403_nh.bmp
594.00	0.72	816	6	7	78	mem	con	mod	mod	low	tg	ht	wh/0939.bmp
594.72	0.72	817	5	6	53	per	con	low	mod	low	tg	ms	wh/0578.bmp
595.44	0.72	818	6	5	73	per	lib	mod	mod	mod	tg	ht	wh/0995.bmp
596.16	0.72	819	6	5	119	mem	con	mod	mod	mod	nt	ht	nh/0549_nh.bmp
596.88	0.72	820	6	5	93	per	lib	low	mod	low	tg	ht	wh/0875.bmp
597.60	0.72	821	6	5	4	per	con	mod	mod	mod	nt	cr	nh/0609_nh.bmp
598.32	0.72	822	1	5	30	mem	con	low	low	low	nt	ms	nh/0676_nh.bmp
599.04	0.72	823	6	5	115	mem	con	mod	mod	mod	tg	ms	wh/0056.bmp
599.76	0.72	824	1	6	75	per	lib	mod	low	mod	tg	ht	wh/0180.bmp
600.48	0.72	825	5	6	27	mem	con	mod	mod	low	tg	ht	wh/1014.bmp
601.20	0.72	826	6	5	12	per	con	mod	mod	mod	tg	ht	wh/0764.bmp
601.92	0.72	827	6	5	85	per	lib	low	mod	low	nt	cr	nh/0491_nh.bmp
602.64	0.72	828	1	8	87	per	lib	low	low	low	tg	ht	wh/0136.bmp
603.36	0.72	829	5	7	32	per	lib	low	mod	low	nt	fa	nh/0453_nh.bmp
604.08	0.72	830	1	8	88	per	lib	low	low	low	nt	fa	nh/1015_nh.bmp
604.80	0.72	831	5	5	78	per	lib	mod	mod	mod	tg	ht	wh/0623.bmp
605.52	0.72	832	6	8	48	mem	lib	mod	mod	mod	tg	ht	wh/0590.bmp
606.24	0.72	833	6	5	80	per	lib	mod	mod	mod	tg	ht	wh/0560.bmp
606.96	0.72	834	6	5	49	mem	lib	mod	mod	low	tg	ht	wh/0023.bmp
607.68	0.72	835	6	5	71	per	lib	mod	mod	mod	nt	cr	nh/0797_nh.bmp
608.40	0.72	836	4	7	56	per	con	mod	mod	mod	tg	ht	wh/0060.bmp
609.12	0.72	837	6	7	61	per	con	mod	mod	mod	tg	ht	wh/0888.bmp
609.84	0.72	838	6	5	75	per	lib	mod	mod	mod	nt	fa	nh/0833_nh.bmp
610.56	0.72	839	6	7	69	mem	con	mod	mod	low	nt	ms	nh/0521_nh.bmp
611.28	0.72	840	1	5	27	mem	con	low	low	low	tg	ms	wh/0825.bmp
612.00	0.72	841	6	5	59	mem	lib	mod	mod	low	nt	ht	nh/0892_nh.bmp
612.72	0.72	842	6	6	83	mem	lib	mod	mod	mod	tg	ht	wh/0378.bmp
613.44	0.72	843	6	6	32	mem	con	mod	mod	low	nt	ht	nh/0780_nh.bmp
614.16	0.72	844	6	5	67	per	lib	mod	mod	mod	tg	ht	wh/0337.bmp
614.88	0.72	845	6	6	27	mem	con	mod	mod	low	tg	ht	wh/1014.bmp
615.60	0.72	846	6	5	122	mem	con	mod	mod	mod	nt	ht	nh/0971_nh.bmp
616.32	0.72	847	6	7	32	per	lib	low	mod	low	nt	fa	nh/0453_nh.bmp
617.04	0.72	848	6	7	68	mem	con	mod	mod	low	nt	ms	nh/0388_nh.bmp
617.76	0.72	849	6	7	21	per	lib	low	mod	low	nt	fa	nh/0756_nh.bmp
618.48	0.72	850	6	7	116	per	con	low	mod	low	tg	ms	wh/0024.bmp
619.20	0.72	851	6	7	115	per	con	low	mod	low	tg	ms	wh/0863.bmp
619.92	0.72	852	1	7	111	mem	con	low	low	mod	nt	ms	nh/0839_nh.bmp
620.64	0.72	853	6	8	109	mem	con	mod	mod	mod	nt	ht	nh/0978_nh.bmp
621.36	0.72	854	5	8	108	mem	con	mod	mod	mod	nt	ht	nh/0552_nh.bmp
622.08	0.72	855	6	7	47	mem	lib	mod	mod	low	tg	ht	wh/0247.bmp
622.80	0.72	856	6	8	55	per	lib	mod	mod	mod	tg	ht	wh/0835.bmp
623.52	0.72	857	6	7	37	mem	lib	mod	mod	low	nt	ht	nh/0249_nh.bmp
624.24	0.72	858	6	6	50	per	con	low	mod	low	nt	cr	nh/0793_nh.bmp
624.96	0.72	859	5	7	128	per	con	low	mod	low	nt	cr	nh/0883_nh.bmp
625.68	0.72	860	5	6	86	mem	lib	mod	mod	mod	nt	ht	nh/0556_nh.bmp
626.40	0.72	861	6	8	108	mem	con	mod	mod	mod	nt	ht	nh/0552_nh.bmp
627.12	0.72	862	5	5	5	per	con	mod	mod	mod	nt	cr	nh/0269_nh.bmp
627.84	0.72	863	6	5	68	per	lib	mod	mod	mod	nt	cr	nh/0599_nh.bmp
628.56	0.72	864	6	8	50	per	lib	mod	mod	mod	nt	fa	nh/0399_nh.bmp
629.28	0.72	865	6	8	101	mem	con	mod	mod	mod	tg	ht	wh/0852.bmp
630.00	0.72	866	6	6	21	mem	con	mod	mod	low	nt	ms	nh/0139_nh.bmp
630.72	0.72	867	6	5	126	mem	con	mod	mod	mod	tg	ht	wh/0179.bmp
631.44	0.72	868	6	6	57	per	con	low	mod	low	nt	cr	nh/0746_nh.bmp
632.16	0.72	869	6	6	94	mem	lib	mod	mod	mod	nt	ht	nh/0603_nh.bmp
632.88	0.72	870	6	5	51	mem	lib	mod	mod	low	nt	ht	nh/0986_nh.bmp
633.60	0.72	871	1	7	94	per	lib	mod	low	mod	tg	ht	wh/1002.bmp
634.32	0.72	872	6	8	100	mem	con	mod	mod	mod	tg	ht	wh/0586.bmp
635.04	0.72	873	6	6	28	mem	con	mod	mod	low	nt	ms	nh/0254_nh.bmp
635.76	0.72	874	6	7	44	mem	lib	mod	mod	low	nt	ht	nh/0262_nh.bmp
636.48	0.72	875	6	8	34	mem	lib	mod	mod	mod	nt	ht	nh/0666_nh.bmp
637.20	0.72	876	5	7	56	per	con	mod	mod	mod	tg	ht	wh/0060.bmp
637.92	0.72	877	1	7	7	mem	lib	low	low	mod	tg	ht	wh/0373.bmp
638.64	0.72	878	6	6	86	mem	lib	mod	mod	mod	nt	ht	nh/0556_nh.bmp
639.36	0.72	879	6	8	45	mem	lib	mod	mod	mod	nt	ht	nh/0275_nh.bmp
640.08	0.72	880	6	7	25	per	lib	low	mod	low	nt	fa	nh/0394_nh.bmp
640.80	0.72	881	6	6	92	mem	lib	mod	mod	mod	tg	ht	wh/0717.bmp
641.52	0.72	882	5	5	94	per	lib	low	mod	low	tg	ht	wh/0574.bmp
642.24	0.72	883	6	5	88	per	lib	low	mod	low	nt	cr	nh/0820_nh.bmp
642.96	0.72	884	6	5	5	per	con	mod	mod	mod	nt	cr	nh/0269_nh.bmp
643.68	0.72	885	6	5	78	per	lib	mod	mod	mod	tg	ht	wh/0623.bmp
644.40	0.72	886	6	7	57	per	con	mod	mod	mod	tg	ht	wh/0294.bmp
645.12	0.72	887	6	7	56	per	con	mod	mod	mod	tg	ht	wh/0060.bmp
645.84	0.72	888	6	8	53	per	lib	mod	mod	mod	tg	ht	wh/0564.bmp
646.56	0.72	889	6	7	128	per	con	low	mod	low	nt	cr	nh/0883_nh.bmp
647.28	0.72	890	5	6	25	mem	con	mod	mod	low	tg	ht	wh/0640.bmp
648.00	0.72	891	1	6	40	mem	lib	low	low	low	tg	ht	wh/0144.bmp
648.72	0.72	892	6	8	43	mem	lib	mod	mod	mod	tg	ms	wh/0968.bmp
649.44	0.72	893	6	5	94	per	lib	low	mod	low	tg	ht	wh/0574.bmp
650.16	0.72	894	6	8	105	mem	con	mod	mod	mod	nt	ht	nh/0763_nh.bmp
650.88	0.72	895	6	6	25	mem	con	mod	mod	low	tg	ht	wh/0640.bmp
651.60	0.72	896	6	6	53	per	con	low	mod	low	tg	ms	wh/0578.bmp
