onset	duration	trial	pres	ts_blk	ts_trl	task	crit	disc	mem_disc	per_disc	per_type	accuracy	stim_file
7.20	0.72	1	1	4	23	per	lib	mod	mod	mod	nt	cr	nh/0098_nh.bmp
7.92	0.72	2	1	4	34	per	con	mod	mod	mod	nt	fa	nh/0981_nh.bmp
8.64	0.72	3	1	3	30	mem	lib	mod	mod	low	nt	ht	nh/0739_nh.bmp
9.36	0.72	4	1	3	120	per	lib	low	mod	low	tg	ms	wh/0853.bmp
10.08	0.72	5	1	4	24	per	lib	mod	mod	mod	nt	cr	nh/0627_nh.bmp
10.80	0.72	6	1	1	54	mem	con	mod	mod	mod	nt	ms	nh/0841_nh.bmp
11.52	0.72	7	1	3	19	mem	lib	mod	mod	low	tg	ht	wh/0868.bmp
12.24	0.72	8	1	2	128	per	lib	low	mod	low	tg	ms	wh/0298.bmp
12.96	0.72	9	1	1	85	per	con	low	mod	low	nt	cr	nh/0455_nh.bmp
13.68	0.72	10	1	1	106	mem	lib	mod	mod	low	tg	ht	wh/0649.bmp
14.40	0.72	11	2	4	23	per	lib	mod	mod	mod	nt	cr	nh/0098_nh.bmp
15.12	0.72	12	1	2	13	mem	con	mod	mod	low	tg	ht	wh/0515.bmp
15.84	0.72	13	1	2	88	mem	con	low	low	low	nt	ms	nh/0486_nh.bmp
16.56	0.72	14	2	3	30	mem	lib	mod	mod	low	nt	ht	nh/0739_nh.bmp
17.28	0.72	15	1	2	65	per	lib	mod	mod	mod	nt	fa	nh/0100_nh.bmp
18.00	0.72	16	1	1	57	mem	con	mod	mod	mod	tg	ms	wh/0785.bmp
18.72	0.72	17	1	1	116	per	lib	low	low	low	nt	cr	nh/0533_nh.bmp
19.44	0.72	18	1	4	107	mem	lib	low	low	low	nt	ms	nh/0057_nh.bmp
20.16	0.72	19	1	1	16	mem	con	low	low	mod	tg	ms	wh/0659.bmp
20.88	0.72	20	1	2	70	per	lib	mod	mod	mod	nt	fa	nh/0183_nh.bmp
21.60	0.72	21	1	2	38	per	con	low	low	low	tg	ms	wh/0126.bmp
22.32	0.72	22	1	3	40	mem	con	mod	mod	low	tg	ms	wh/0128.bmp
23.04	0.72	23	1	4	104	mem	lib	low	low	low	tg	ms	wh/0142.bmp
23.76	0.72	24	1	2	127	per	lib	low	mod	low	tg	ht	wh/0704.bmp
24.48	0.72	25	2	3	40	mem	con	mod	mod	low	tg	ms	wh/0128.bmp
25.20	0.72	26	1	4	26	per	lib	mod	mod	mod	nt	cr	nh/0429_nh.bmp
25.92	0.72	27	1	2	23	mem	lib	low	low	mod	nt	ht	nh/0476_nh.bmp
26.64	0.72	28	1	2	2	mem	con	mod	mod	low	tg	ms	wh/0133.bmp
27.36	0.72	29	1	3	17	mem	lib	mod	mod	low	nt	ht	nh/0217_nh.bmp
28.08	0.72	30	1	3	25	mem	lib	mod	mod	low	nt	ht	nh/0675_nh.bmp
28.80	0.72	31	1	4	40	per	con	mod	mod	mod	tg	ht	wh/0801.bmp
29.52	0.72	32	1	3	47	mem	con	mod	mod	low	tg	ms	wh/0816.bmp
30.24	0.72	33	1	4	88	mem	con	low	low	low	tg	ht	wh/0354.bmp
30.96	0.72	34	1	4	35	per	con	mod	mod	mod	tg	ht	wh/0391.bmp
31.68	0.72	35	1	2	82	mem	con	low	low	low	tg	ms	wh/0651.bmp
32.40	0.72	36	1	1	62	mem	con	mod	mod	mod	nt	ht	nh/0561_nh.bmp
33.12	0.72	37	1	4	7	mem	con	mod	mod	mod	nt	ht	nh/0935_nh.bmp
33.84	0.72	38	1	4	106	mem	lib	low	low	low	tg	ms	wh/0771.bmp
34.56	0.72	39	1	4	17	per	lib	mod	mod	mod	nt	fa	nh/0692_nh.bmp
35.28	0.72	40	1	3	128	per	lib	low	mod	low	nt	cr	nh/0251_nh.bmp
36.00	0.72	41	1	1	100	mem	lib	mod	mod	low	nt	ht	nh/0741_nh.bmp
36.72	0.72	42	2	3	47	mem	con	mod	mod	low	tg	ms	wh/0816.bmp
37.44	0.72	43	1	3	114	per	lib	low	mod	low	nt	cr	nh/0233_nh.bmp
38.16	0.72	44	1	1	60	mem	con	mod	mod	mod	tg	ht	wh/0463.bmp
38.88	0.72	45	1	2	49	per	con	mod	mod	mod	tg	ht	wh/0393.bmp
39.60	0.72	46	1	3	35	mem	con	mod	mod	low	nt	ht	nh/0019_nh.bmp
40.32	0.72	47	1	3	117	per	lib	low	mod	low	tg	ms	wh/0573.bmp
41.04	0.72	48	1	3	23	mem	lib	mod	mod	low	tg	ht	wh/0341.bmp
41.76	0.72	49	2	3	17	mem	lib	mod	mod	low	nt	ht	nh/0217_nh.bmp
42.48	0.72	50	1	1	109	mem	lib	mod	mod	low	tg	ht	wh/0926.bmp
43.20	0.72	51	1	2	93	mem	con	low	low	low	tg	ms	wh/0903.bmp
43.92	0.72	52	1	1	77	per	con	mod	low	mod	nt	cr	nh/0776_nh.bmp
44.64	0.72	53	1	4	66	mem	lib	mod	mod	mod	tg	ms	wh/0287.bmp
45.36	0.72	54	1	3	37	mem	con	mod	mod	low	tg	ht	wh/0529.bmp
46.08	0.72	55	2	3	25	mem	lib	mod	mod	low	nt	ht	nh/0675_nh.bmp
46.80	0.72	56	2	4	24	per	lib	mod	mod	mod	nt	cr	nh/0627_nh.bmp
47.52	0.72	57	1	1	88	per	con	low	mod	low	tg	ms	wh/0116.bmp
48.24	0.72	58	1	4	77	mem	lib	mod	mod	mod	tg	ht	wh/0878.bmp
48.96	0.72	59	1	1	70	per	con	mod	low	mod	tg	ht	wh/0218.bmp
49.68	0.72	60	1	1	51	mem	con	mod	mod	mod	tg	ms	wh/0965.bmp
50.40	0.72	61	1	2	102	mem	lib	mod	mod	mod	tg	ht	wh/0879.bmp
51.12	0.72	62	3	3	40	mem	con	mod	mod	low	tg	ms	wh/0128.bmp
51.84	0.72	63	1	2	61	per	con	mod	mod	mod	tg	ht	wh/0017.bmp
52.56	0.72	64	1	2	51	per	con	mod	mod	mod	nt	cr	nh/0405_nh.bmp
53.28	0.72	65	1	1	95	per	con	low	mod	low	nt	cr	nh/0168_nh.bmp
54.00	0.72	66	1	4	60	per	con	low	low	low	nt	cr	nh/0634_nh.bmp
54.72	0.72	67	1	3	8	per	con	low	mod	low	nt	cr	nh/0325_nh.bmp
55.44	0.72	68	2	4	17	per	lib	mod	mod	mod	nt	fa	nh/0692_nh.bmp
56.16	0.72	69	1	2	123	per	lib	low	mod	low	nt	cr	nh/0265_nh.bmp
56.88	0.72	70	1	3	11	per	con	low	mod	low	tg	ms	wh/0766.bmp
57.60	0.72	71	1	1	86	per	con	low	mod	low	nt	cr	nh/0205_nh.bmp
58.32	0.72	72	1	3	121	per	lib	low	mod	low	nt	cr	nh/0624_nh.bmp
59.04	0.72	73	2	1	100	mem	lib	mod	mod	low	nt	ht	nh/0741_nh.bmp
59.76	0.72	74	2	1	85	per	con	low	mod	low	nt	cr	nh/0455_nh.bmp
60.48	0.72	75	2	2	102	mem	lib	mod	mod	mod	tg	ht	wh/0879.bmp
61.20	0.72	76	1	3	69	per	con	mod	low	mod	tg	ht	wh/0311.bmp
61.92	0.72	77	1	4	15	mem	con	mod	mod	mod	nt	ms	nh/0984_nh.bmp
62.64	0.72	78	1	3	89	mem	con	low	low	mod	tg	ms	wh/0850.bmp
63.36	0.72	79	1	4	90	mem	con	low	low	low	tg	ms	wh/0456.bmp
64.08	0.72	80	1	1	128	per	lib	low	low	low	tg	ht	wh/0432.bmp
64.80	0.72	81	1	4	5	mem	con	mod	mod	mod	nt	ms	nh/0642_nh.bmp
65.52	0.72	82	1	2	63	per	con	mod	mod	mod	nt	cr	nh/0189_nh.bmp
66.24	0.72	83	1	2	3	mem	con	mod	mod	low	nt	ht	nh/0163_nh.bmp
66.96	0.72	84	1	4	1	mem	con	mod	mod	mod	tg	ms	wh/0425.bmp
67.68	0.72	85	2	3	121	per	lib	low	mod	low	nt	cr	nh/0624_nh.bmp
68.40	0.72	86	2	2	123	per	lib	low	mod	low	nt	cr	nh/0265_nh.bmp
69.12	0.72	87	1	1	115	per	lib	low	low	low	tg	ht	wh/0006.bmp
69.84	0.72	88	2	2	51	per	con	mod	mod	mod	nt	cr	nh/0405_nh.bmp
70.56	0.72	89	2	3	11	per	con	low	mod	low	tg	ms	wh/0766.bmp
71.28	0.72	90	3	4	24	per	lib	mod	mod	mod	nt	cr	nh/0627_nh.bmp
72.00	0.72	91	1	4	8	mem	con	mod	mod	mod	nt	ms	nh/0896_nh.bmp
72.72	0.72	92	1	1	50	mem	con	mod	mod	mod	tg	ms	wh/0698.bmp
73.44	0.72	93	2	1	50	mem	con	mod	mod	mod	tg	ms	wh/0698.bmp
74.16	0.72	94	1	3	73	per	con	mod	low	mod	nt	cr	nh/0083_nh.bmp
74.88	0.72	95	1	1	93	per	con	low	mod	low	tg	ms	wh/0200.bmp
75.60	0.72	96	1	4	48	per	con	mod	mod	mod	nt	cr	nh/0534_nh.bmp
76.32	0.72	97	2	1	54	mem	con	mod	mod	mod	nt	ms	nh/0841_nh.bmp
77.04	0.72	98	1	1	97	mem	lib	mod	mod	low	nt	ht	nh/0115_nh.bmp
77.76	0.72	99	2	2	65	per	lib	mod	mod	mod	nt	fa	nh/0100_nh.bmp
78.48	0.72	100	2	3	23	mem	lib	mod	mod	low	tg	ht	wh/0341.bmp
79.20	0.72	101	1	4	75	mem	lib	mod	mod	mod	nt	ms	nh/0938_nh.bmp
79.92	0.72	102	1	3	42	mem	con	mod	mod	low	nt	ht	nh/0597_nh.bmp
80.64	0.72	103	1	2	6	mem	con	mod	mod	low	nt	ms	nh/0392_nh.bmp
81.36	0.72	104	2	4	75	mem	lib	mod	mod	mod	nt	ms	nh/0938_nh.bmp
82.08	0.72	105	3	3	47	mem	con	mod	mod	low	tg	ms	wh/0816.bmp
82.80	0.72	106	1	4	113	per	lib	low	low	low	tg	ms	wh/0722.bmp
83.52	0.72	107	1	4	29	per	lib	mod	mod	mod	tg	ht	wh/0658.bmp
84.24	0.72	108	2	4	48	per	con	mod	mod	mod	nt	cr	nh/0534_nh.bmp
84.96	0.72	109	1	4	12	mem	con	mod	mod	mod	tg	ms	wh/0001.bmp
85.68	0.72	110	1	3	51	per	lib	mod	low	mod	nt	cr	nh/0960_nh.bmp
86.40	0.72	111	2	4	66	mem	lib	mod	mod	mod	tg	ms	wh/0287.bmp
87.12	0.72	112	2	2	70	per	lib	mod	mod	mod	nt	fa	nh/0183_nh.bmp
87.84	0.72	113	1	4	32	per	lib	mod	mod	mod	tg	ht	wh/0899.bmp
88.56	0.72	114	1	1	104	mem	lib	mod	mod	low	nt	ht	nh/0040_nh.bmp
89.28	0.72	115	2	1	88	per	con	low	mod	low	tg	ms	wh/0116.bmp
90.00	0.72	116	2	1	104	mem	lib	mod	mod	low	nt	ht	nh/0040_nh.bmp
90.72	0.72	117	1	4	72	mem	lib	mod	mod	mod	nt	ht	nh/0919_nh.bmp
91.44	0.72	118	1	4	68	mem	lib	mod	mod	mod	nt	ht	nh/0070_nh.bmp
92.16	0.72	119	2	4	15	mem	con	mod	mod	mod	nt	ms	nh/0984_nh.bmp
92.88	0.72	120	3	2	102	mem	lib	mod	mod	mod	tg	ht	wh/0879.bmp
93.60	0.72	121	2	1	60	mem	con	mod	mod	mod	tg	ht	wh/0463.bmp
94.32	0.72	122	2	3	42	mem	con	mod	mod	low	nt	ht	nh/0597_nh.bmp
95.04	0.72	123	1	2	59	per	con	mod	mod	mod	tg	ht	wh/0975.bmp
95.76	0.72	124	1	4	63	per	con	low	low	low	tg	ms	wh/0307.bmp
96.48	0.72	125	1	3	88	mem	con	low	low	mod	nt	ht	nh/0303_nh.bmp
97.20	0.72	126	1	2	106	mem	lib	mod	mod	mod	nt	ht	nh/0002_nh.bmp
97.92	0.72	127	1	3	4	per	con	low	mod	low	tg	ms	wh/0745.bmp
98.64	0.72	128	1	2	100	mem	lib	mod	mod	mod	tg	ht	wh/0600.bmp
99.36	0.72	129	2	3	114	per	lib	low	mod	low	nt	cr	nh/0233_nh.bmp
100.08	0.72	130	1	2	53	per	con	mod	mod	mod	nt	cr	nh/0775_nh.bmp
100.80	0.72	131	1	2	55	per	con	mod	mod	mod	tg	ht	wh/0959.bmp
101.52	0.72	132	1	2	76	per	lib	mod	mod	mod	tg	ht	wh/0637.bmp
102.24	0.72	133	1	3	115	per	lib	low	mod	low	tg	ht	wh/0472.bmp
102.96	0.72	134	4	3	47	mem	con	mod	mod	low	tg	ms	wh/0816.bmp
103.68	0.72	135	1	1	71	per	con	mod	low	mod	tg	ht	wh/0918.bmp
104.40	0.72	136	2	2	59	per	con	mod	mod	mod	tg	ht	wh/0975.bmp
105.12	0.72	137	3	4	75	mem	lib	mod	mod	mod	nt	ms	nh/0938_nh.bmp
105.84	0.72	138	1	1	58	mem	con	mod	mod	mod	nt	ms	nh/0585_nh.bmp
106.56	0.72	139	1	2	7	mem	con	mod	mod	low	nt	ht	nh/0353_nh.bmp
107.28	0.72	140	1	4	65	mem	lib	mod	mod	mod	nt	ht	nh/0857_nh.bmp
108.00	0.72	141	1	2	69	per	lib	mod	mod	mod	nt	cr	nh/0473_nh.bmp
108.72	0.72	142	1	1	108	mem	lib	mod	mod	low	tg	ht	wh/0178.bmp
109.44	0.72	143	2	4	40	per	con	mod	mod	mod	tg	ht	wh/0801.bmp
110.16	0.72	144	3	4	66	mem	lib	mod	mod	mod	tg	ms	wh/0287.bmp
110.88	0.72	145	1	2	5	mem	con	mod	mod	low	tg	ht	wh/0435.bmp
111.60	0.72	146	2	2	127	per	lib	low	mod	low	tg	ht	wh/0704.bmp
112.32	0.72	147	1	3	16	per	con	low	mod	low	nt	cr	nh/0145_nh.bmp
113.04	0.72	148	2	2	6	mem	con	mod	mod	low	nt	ms	nh/0392_nh.bmp
113.76	0.72	149	1	2	18	mem	lib	low	low	mod	tg	ht	wh/0696.bmp
114.48	0.72	150	3	3	25	mem	lib	mod	mod	low	nt	ht	nh/0675_nh.bmp
115.20	0.72	151	2	3	37	mem	con	mod	mod	low	tg	ht	wh/0529.bmp
115.92	0.72	152	2	2	49	per	con	mod	mod	mod	tg	ht	wh/0393.bmp
116.64	0.72	153	1	4	16	mem	con	mod	mod	mod	tg	ht	wh/0955.bmp
117.36	0.72	154	1	3	15	per	con	low	mod	low	nt	cr	nh/0231_nh.bmp
118.08	0.72	155	1	2	109	mem	lib	mod	mod	mod	nt	ht	nh/0920_nh.bmp
118.80	0.72	156	1	3	12	per	con	low	mod	low	nt	cr	nh/0514_nh.bmp
119.52	0.72	157	1	2	60	per	con	mod	mod	mod	nt	cr	nh/0274_nh.bmp
120.24	0.72	158	2	1	109	mem	lib	mod	mod	low	tg	ht	wh/0926.bmp
120.96	0.72	159	1	2	12	mem	con	mod	mod	low	tg	ms	wh/0155.bmp
121.68	0.72	160	1	3	84	mem	con	low	low	mod	tg	ht	wh/0213.bmp
122.40	0.72	161	4	4	75	mem	lib	mod	mod	mod	nt	ms	nh/0938_nh.bmp
123.12	0.72	162	2	1	86	per	con	low	mod	low	nt	cr	nh/0205_nh.bmp
123.84	0.72	163	2	3	120	per	lib	low	mod	low	tg	ms	wh/0853.bmp
124.56	0.72	164	2	1	106	mem	lib	mod	mod	low	tg	ht	wh/0649.bmp
125.28	0.72	165	1	4	27	per	lib	mod	mod	mod	tg	ms	wh/0289.bmp
126.00	0.72	166	2	2	3	mem	con	mod	mod	low	nt	ht	nh/0163_nh.bmp
126.72	0.72	167	3	4	15	mem	con	mod	mod	mod	nt	ms	nh/0984_nh.bmp
127.44	0.72	168	1	1	40	mem	lib	low	low	low	nt	ht	nh/0008_nh.bmp
128.16	0.72	169	2	4	68	mem	lib	mod	mod	mod	nt	ht	nh/0070_nh.bmp
128.88	0.72	170	3	1	60	mem	con	mod	mod	mod	tg	ht	wh/0463.bmp
129.60	0.72	171	3	3	121	per	lib	low	mod	low	nt	cr	nh/0624_nh.bmp
130.32	0.72	172	1	4	46	per	con	mod	mod	mod	nt	cr	nh/0681_nh.bmp
131.04	0.72	173	1	3	49	per	lib	mod	low	mod	nt	cr	nh/0844_nh.bmp
131.76	0.72	174	2	4	77	mem	lib	mod	mod	mod	tg	ht	wh/0878.bmp
132.48	0.72	175	1	2	119	per	lib	low	mod	low	nt	cr	nh/0105_nh.bmp
133.20	0.72	176	1	2	117	per	lib	low	mod	low	nt	cr	nh/0932_nh.bmp
133.92	0.72	177	3	2	59	per	con	mod	mod	mod	tg	ht	wh/0975.bmp
134.64	0.72	178	1	1	92	per	con	low	mod	low	tg	ms	wh/1021.bmp
135.36	0.72	179	2	4	32	per	lib	mod	mod	mod	tg	ht	wh/0899.bmp
136.08	0.72	180	3	4	23	per	lib	mod	mod	mod	nt	cr	nh/0098_nh.bmp
136.80	0.72	181	1	2	10	mem	con	mod	mod	low	nt	ht	nh/0031_nh.bmp
137.52	0.72	182	3	1	85	per	con	low	mod	low	nt	cr	nh/0455_nh.bmp
138.24	0.72	183	2	4	7	mem	con	mod	mod	mod	nt	ht	nh/0935_nh.bmp
138.96	0.72	184	2	2	61	per	con	mod	mod	mod	tg	ht	wh/0017.bmp
139.68	0.72	185	1	4	6	mem	con	mod	mod	mod	tg	ms	wh/0700.bmp
140.40	0.72	186	3	1	54	mem	con	mod	mod	mod	nt	ms	nh/0841_nh.bmp
141.12	0.72	187	2	1	57	mem	con	mod	mod	mod	tg	ms	wh/0785.bmp
141.84	0.72	188	2	1	58	mem	con	mod	mod	mod	nt	ms	nh/0585_nh.bmp
142.56	0.72	189	1	3	5	per	con	low	mod	low	tg	ms	wh/0156.bmp
143.28	0.72	190	1	3	41	mem	con	mod	mod	low	nt	ms	nh/0997_nh.bmp
144.00	0.72	191	4	4	24	per	lib	mod	mod	mod	nt	cr	nh/0627_nh.bmp
144.72	0.72	192	3	2	70	per	lib	mod	mod	mod	nt	fa	nh/0183_nh.bmp
145.44	0.72	193	3	2	127	per	lib	low	mod	low	tg	ht	wh/0704.bmp
146.16	0.72	194	2	2	12	mem	con	mod	mod	low	tg	ms	wh/0155.bmp
146.88	0.72	195	1	2	48	per	con	low	low	low	nt	cr	nh/0656_nh.bmp
147.60	0.72	196	4	4	15	mem	con	mod	mod	mod	nt	ms	nh/0984_nh.bmp
148.32	0.72	197	3	3	17	mem	lib	mod	mod	low	nt	ht	nh/0217_nh.bmp
149.04	0.72	198	2	4	29	per	lib	mod	mod	mod	tg	ht	wh/0658.bmp
149.76	0.72	199	4	2	102	mem	lib	mod	mod	mod	tg	ht	wh/0879.bmp
150.48	0.72	200	1	3	106	mem	lib	low	low	mod	nt	ht	nh/1017_nh.bmp
151.20	0.72	201	3	3	23	mem	lib	mod	mod	low	tg	ht	wh/0341.bmp
151.92	0.72	202	2	3	117	per	lib	low	mod	low	tg	ms	wh/0573.bmp
152.64	0.72	203	1	2	99	mem	lib	mod	mod	mod	nt	ms	nh/0724_nh.bmp
153.36	0.72	204	2	3	16	per	con	low	mod	low	nt	cr	nh/0145_nh.bmp
154.08	0.72	205	2	2	119	per	lib	low	mod	low	nt	cr	nh/0105_nh.bmp
154.80	0.72	206	2	1	108	mem	lib	mod	mod	low	tg	ht	wh/0178.bmp
155.52	0.72	207	1	3	32	mem	lib	mod	mod	low	tg	ht	wh/0421.bmp
156.24	0.72	208	1	2	29	mem	lib	low	low	mod	nt	ht	nh/0322_nh.bmp
156.96	0.72	209	3	3	37	mem	con	mod	mod	low	tg	ht	wh/0529.bmp
157.68	0.72	210	2	2	53	per	con	mod	mod	mod	nt	cr	nh/0775_nh.bmp
158.40	0.72	211	1	3	63	per	lib	mod	low	mod	tg	ht	wh/0687.bmp
159.12	0.72	212	3	2	3	mem	con	mod	mod	low	nt	ht	nh/0163_nh.bmp
159.84	0.72	213	1	4	87	mem	con	low	low	low	nt	ms	nh/0362_nh.bmp
160.56	0.72	214	1	2	116	per	lib	low	mod	low	nt	cr	nh/0648_nh.bmp
161.28	0.72	215	4	3	121	per	lib	low	mod	low	nt	cr	nh/0624_nh.bmp
162.00	0.72	216	2	4	8	mem	con	mod	mod	mod	nt	ms	nh/0896_nh.bmp
162.72	0.72	217	2	2	116	per	lib	low	mod	low	nt	cr	nh/0648_nh.bmp
163.44	0.72	218	2	3	4	per	con	low	mod	low	tg	ms	wh/0745.bmp
164.16	0.72	219	2	3	15	per	con	low	mod	low	nt	cr	nh/0231_nh.bmp
164.88	0.72	220	1	1	48	mem	lib	low	low	low	nt	ht	nh/0485_nh.bmp
165.60	0.72	221	1	1	63	mem	con	mod	mod	mod	nt	ht	nh/0204_nh.bmp
166.32	0.72	222	2	3	5	per	con	low	mod	low	tg	ms	wh/0156.bmp
167.04	0.72	223	1	1	12	mem	con	low	low	mod	tg	ms	wh/0087.bmp
167.76	0.72	224	1	1	30	per	lib	mod	low	mod	tg	ms	wh/0406.bmp
168.48	0.72	225	2	2	76	per	lib	mod	mod	mod	tg	ht	wh/0637.bmp
169.20	0.72	226	3	4	77	mem	lib	mod	mod	mod	tg	ht	wh/0878.bmp
169.92	0.72	227	2	3	12	per	con	low	mod	low	nt	cr	nh/0514_nh.bmp
170.64	0.72	228	3	2	116	per	lib	low	mod	low	nt	cr	nh/0648_nh.bmp
171.36	0.72	229	2	4	34	per	con	mod	mod	mod	nt	fa	nh/0981_nh.bmp
172.08	0.72	230	3	3	4	per	con	low	mod	low	tg	ms	wh/0745.bmp
172.80	0.72	231	4	3	17	mem	lib	mod	mod	low	nt	ht	nh/0217_nh.bmp
173.52	0.72	232	1	3	99	mem	lib	low	low	mod	tg	ht	wh/0501.bmp
174.24	0.72	233	1	1	110	mem	lib	mod	mod	low	tg	ht	wh/0014.bmp
174.96	0.72	234	1	4	100	mem	lib	low	low	low	tg	ht	wh/0028.bmp
175.68	0.72	235	2	2	7	mem	con	mod	mod	low	nt	ht	nh/0353_nh.bmp
176.40	0.72	236	1	4	56	per	con	low	low	low	tg	ms	wh/0065.bmp
177.12	0.72	237	1	3	61	per	lib	mod	low	mod	tg	ht	wh/0235.bmp
177.84	0.72	238	1	1	80	per	con	mod	low	mod	nt	cr	nh/0149_nh.bmp
178.56	0.72	239	3	1	100	mem	lib	mod	mod	low	nt	ht	nh/0741_nh.bmp
179.28	0.72	240	2	4	27	per	lib	mod	mod	mod	tg	ms	wh/0289.bmp
180.00	0.72	241	4	3	23	mem	lib	mod	mod	low	tg	ht	wh/0341.bmp
180.72	0.72	242	3	4	7	mem	con	mod	mod	mod	nt	ht	nh/0935_nh.bmp
181.44	0.72	243	2	4	16	mem	con	mod	mod	mod	tg	ht	wh/0955.bmp
182.16	0.72	244	3	4	34	per	con	mod	mod	mod	nt	fa	nh/0981_nh.bmp
182.88	0.72	245	2	1	62	mem	con	mod	mod	mod	nt	ht	nh/0561_nh.bmp
183.60	0.72	246	2	3	19	mem	lib	mod	mod	low	tg	ht	wh/0868.bmp
184.32	0.72	247	2	3	41	mem	con	mod	mod	low	nt	ms	nh/0997_nh.bmp
185.04	0.72	248	3	4	32	per	lib	mod	mod	mod	tg	ht	wh/0899.bmp
185.76	0.72	249	1	2	110	mem	lib	mod	mod	mod	tg	ht	wh/0162.bmp
186.48	0.72	250	2	3	8	per	con	low	mod	low	nt	cr	nh/0325_nh.bmp
187.20	0.72	251	2	2	55	per	con	mod	mod	mod	tg	ht	wh/0959.bmp
187.92	0.72	252	3	4	48	per	con	mod	mod	mod	nt	cr	nh/0534_nh.bmp
188.64	0.72	253	3	3	41	mem	con	mod	mod	low	nt	ms	nh/0997_nh.bmp
189.36	0.72	254	1	3	113	per	lib	low	mod	low	nt	cr	nh/0836_nh.bmp
190.08	0.72	255	3	2	61	per	con	mod	mod	mod	tg	ht	wh/0017.bmp
190.80	0.72	256	1	2	67	per	lib	mod	mod	mod	tg	ht	wh/0679.bmp
191.52	0.72	257	2	2	109	mem	lib	mod	mod	mod	nt	ht	nh/0920_nh.bmp
192.24	0.72	258	1	4	47	per	con	mod	mod	mod	tg	ht	wh/0414.bmp
192.96	0.72	259	3	3	8	per	con	low	mod	low	nt	cr	nh/0325_nh.bmp
193.68	0.72	260	3	3	16	per	con	low	mod	low	nt	cr	nh/0145_nh.bmp
194.40	0.72	261	1	2	46	per	con	low	low	low	tg	ms	wh/0794.bmp
195.12	0.72	262	3	3	12	per	con	low	mod	low	nt	cr	nh/0514_nh.bmp
195.84	0.72	263	4	2	70	per	lib	mod	mod	mod	nt	fa	nh/0183_nh.bmp
196.56	0.72	264	4	2	116	per	lib	low	mod	low	nt	cr	nh/0648_nh.bmp
197.28	0.72	265	1	2	75	per	lib	mod	mod	mod	tg	ht	wh/0884.bmp
198.00	0.72	266	4	3	12	per	con	low	mod	low	nt	cr	nh/0514_nh.bmp
198.72	0.72	267	1	1	33	mem	lib	low	low	low	tg	ht	wh/0330.bmp
199.44	0.72	268	2	2	63	per	con	mod	mod	mod	nt	cr	nh/0189_nh.bmp
200.16	0.72	269	2	2	128	per	lib	low	mod	low	tg	ms	wh/0298.bmp
200.88	0.72	270	1	4	79	mem	lib	mod	mod	mod	tg	ht	wh/0580.bmp
201.60	0.72	271	3	2	119	per	lib	low	mod	low	nt	cr	nh/0105_nh.bmp
202.32	0.72	272	3	1	50	mem	con	mod	mod	mod	tg	ms	wh/0698.bmp
203.04	0.72	273	1	1	82	per	con	low	mod	low	tg	ms	wh/0727.bmp
203.76	0.72	274	1	3	28	mem	lib	mod	mod	low	tg	ht	wh/0733.bmp
204.48	0.72	275	2	1	51	mem	con	mod	mod	mod	tg	ms	wh/0965.bmp
205.20	0.72	276	1	4	37	per	con	mod	mod	mod	tg	ms	wh/0605.bmp
205.92	0.72	277	4	2	127	per	lib	low	mod	low	tg	ht	wh/0704.bmp
206.64	0.72	278	2	4	37	per	con	mod	mod	mod	tg	ms	wh/0605.bmp
207.36	0.72	279	1	2	103	mem	lib	mod	mod	mod	nt	ht	nh/0526_nh.bmp
208.08	0.72	280	2	3	35	mem	con	mod	mod	low	nt	ht	nh/0019_nh.bmp
208.80	0.72	281	2	3	113	per	lib	low	mod	low	nt	cr	nh/0836_nh.bmp
209.52	0.72	282	2	2	2	mem	con	mod	mod	low	tg	ms	wh/0133.bmp
210.24	0.72	283	2	1	110	mem	lib	mod	mod	low	tg	ht	wh/0014.bmp
210.96	0.72	284	3	1	88	per	con	low	mod	low	tg	ms	wh/0116.bmp
211.68	0.72	285	4	4	32	per	lib	mod	mod	mod	tg	ht	wh/0899.bmp
212.40	0.72	286	4	2	61	per	con	mod	mod	mod	tg	ht	wh/0017.bmp
213.12	0.72	287	1	1	81	per	con	low	mod	low	nt	cr	nh/0755_nh.bmp
213.84	0.72	288	1	2	115	per	lib	low	mod	low	tg	ms	wh/0897.bmp
214.56	0.72	289	2	2	60	per	con	mod	mod	mod	nt	cr	nh/0274_nh.bmp
215.28	0.72	290	1	3	38	mem	con	mod	mod	low	nt	ht	nh/0377_nh.bmp
216.00	0.72	291	2	2	75	per	lib	mod	mod	mod	tg	ht	wh/0884.bmp
216.72	0.72	292	1	3	79	per	con	mod	low	mod	tg	ht	wh/0367.bmp
217.44	0.72	293	3	2	75	per	lib	mod	mod	mod	tg	ht	wh/0884.bmp
218.16	0.72	294	1	3	127	per	lib	low	mod	low	tg	ms	wh/0769.bmp
218.88	0.72	295	2	4	46	per	con	mod	mod	mod	nt	cr	nh/0681_nh.bmp
219.60	0.72	296	2	4	47	per	con	mod	mod	mod	tg	ht	wh/0414.bmp
220.32	0.72	297	4	2	119	per	lib	low	mod	low	nt	cr	nh/0105_nh.bmp
221.04	0.72	298	5	4	15	mem	con	mod	mod	mod	nt	ms	nh/0984_nh.bmp
221.76	0.72	299	3	4	29	per	lib	mod	mod	mod	tg	ht	wh/0658.bmp
222.48	0.72	300	2	2	103	mem	lib	mod	mod	mod	nt	ht	nh/0526_nh.bmp
223.20	0.72	301	2	2	106	mem	lib	mod	mod	mod	nt	ht	nh/0002_nh.bmp
223.92	0.72	302	4	3	41	mem	con	mod	mod	low	nt	ms	nh/0997_nh.bmp
224.64	0.72	303	3	1	110	mem	lib	mod	mod	low	tg	ht	wh/0014.bmp
225.36	0.72	304	1	3	67	per	con	mod	low	mod	nt	cr	nh/0873_nh.bmp
226.08	0.72	305	1	3	43	mem	con	mod	mod	low	tg	ht	wh/0066.bmp
226.80	0.72	306	2	1	81	per	con	low	mod	low	nt	cr	nh/0755_nh.bmp
227.52	0.72	307	4	4	34	per	con	mod	mod	mod	nt	fa	nh/0981_nh.bmp
228.24	0.72	308	1	2	68	per	lib	mod	mod	mod	tg	ms	wh/0942.bmp
228.96	0.72	309	3	4	37	per	con	mod	mod	mod	tg	ms	wh/0605.bmp
229.68	0.72	310	1	4	69	mem	lib	mod	mod	mod	tg	ht	wh/0847.bmp
230.40	0.72	311	4	2	75	per	lib	mod	mod	mod	tg	ht	wh/0884.bmp
231.12	0.72	312	2	3	32	mem	lib	mod	mod	low	tg	ht	wh/0421.bmp
231.84	0.72	313	1	3	75	per	con	mod	low	mod	tg	ht	wh/0103.bmp
232.56	0.72	314	3	4	47	per	con	mod	mod	mod	tg	ht	wh/0414.bmp
233.28	0.72	315	4	4	77	mem	lib	mod	mod	mod	tg	ht	wh/0878.bmp
234.00	0.72	316	2	1	95	per	con	low	mod	low	nt	cr	nh/0168_nh.bmp
234.72	0.72	317	3	3	30	mem	lib	mod	mod	low	nt	ht	nh/0739_nh.bmp
235.44	0.72	318	5	2	61	per	con	mod	mod	mod	tg	ht	wh/0017.bmp
236.16	0.72	319	1	2	42	per	con	low	low	low	tg	ms	wh/0423.bmp
236.88	0.72	320	2	2	115	per	lib	low	mod	low	tg	ms	wh/0897.bmp
237.60	0.72	321	3	2	12	mem	con	mod	mod	low	tg	ms	wh/0155.bmp
238.32	0.72	322	1	3	3	per	con	low	mod	low	tg	ht	wh/0387.bmp
239.04	0.72	323	2	3	38	mem	con	mod	mod	low	nt	ht	nh/0377_nh.bmp
239.76	0.72	324	1	1	121	per	lib	low	low	low	tg	ht	wh/0015.bmp
240.48	0.72	325	3	1	95	per	con	low	mod	low	nt	cr	nh/0168_nh.bmp
241.20	0.72	326	1	1	43	mem	lib	low	low	low	tg	ht	wh/0747.bmp
241.92	0.72	327	3	4	46	per	con	mod	mod	mod	nt	cr	nh/0681_nh.bmp
242.64	0.72	328	2	4	1	mem	con	mod	mod	mod	tg	ms	wh/0425.bmp
243.36	0.72	329	1	1	9	mem	con	low	low	mod	nt	ms	nh/0286_nh.bmp
244.08	0.72	330	1	1	42	mem	lib	low	low	low	nt	ht	nh/0979_nh.bmp
244.80	0.72	331	1	3	26	mem	lib	mod	mod	low	nt	ht	nh/0177_nh.bmp
245.52	0.72	332	3	2	106	mem	lib	mod	mod	mod	nt	ht	nh/0002_nh.bmp
246.24	0.72	333	2	4	69	mem	lib	mod	mod	mod	tg	ht	wh/0847.bmp
246.96	0.72	334	5	3	23	mem	lib	mod	mod	low	tg	ht	wh/0341.bmp
247.68	0.72	335	2	2	5	mem	con	mod	mod	low	tg	ht	wh/0435.bmp
248.40	0.72	336	5	2	116	per	lib	low	mod	low	nt	cr	nh/0648_nh.bmp
249.12	0.72	337	2	4	26	per	lib	mod	mod	mod	nt	cr	nh/0429_nh.bmp
249.84	0.72	338	2	1	82	per	con	low	mod	low	tg	ms	wh/0727.bmp
250.56	0.72	339	4	3	4	per	con	low	mod	low	tg	ms	wh/0745.bmp
251.28	0.72	340	2	3	3	per	con	low	mod	low	tg	ht	wh/0387.bmp
252.00	0.72	341	2	2	13	mem	con	mod	mod	low	tg	ht	wh/0515.bmp
252.72	0.72	342	3	2	13	mem	con	mod	mod	low	tg	ht	wh/0515.bmp
253.44	0.72	343	1	2	66	per	lib	mod	mod	mod	nt	cr	nh/0750_nh.bmp
254.16	0.72	344	2	1	93	per	con	low	mod	low	tg	ms	wh/0200.bmp
254.88	0.72	345	5	4	24	per	lib	mod	mod	mod	nt	cr	nh/0627_nh.bmp
255.60	0.72	346	3	2	2	mem	con	mod	mod	low	tg	ms	wh/0133.bmp
256.32	0.72	347	1	2	19	mem	lib	low	low	mod	nt	ht	nh/0974_nh.bmp
257.04	0.72	348	2	2	67	per	lib	mod	mod	mod	tg	ht	wh/0679.bmp
257.76	0.72	349	3	3	5	per	con	low	mod	low	tg	ms	wh/0156.bmp
258.48	0.72	350	2	2	117	per	lib	low	mod	low	nt	cr	nh/0932_nh.bmp
259.20	0.72	351	2	1	97	mem	lib	mod	mod	low	nt	ht	nh/0115_nh.bmp
259.92	0.72	352	3	4	16	mem	con	mod	mod	mod	tg	ht	wh/0955.bmp
260.64	0.72	353	3	2	7	mem	con	mod	mod	low	nt	ht	nh/0353_nh.bmp
261.36	0.72	354	2	3	28	mem	lib	mod	mod	low	tg	ht	wh/0733.bmp
262.08	0.72	355	3	4	68	mem	lib	mod	mod	mod	nt	ht	nh/0070_nh.bmp
262.80	0.72	356	3	2	123	per	lib	low	mod	low	nt	cr	nh/0265_nh.bmp
263.52	0.72	357	4	4	46	per	con	mod	mod	mod	nt	cr	nh/0681_nh.bmp
264.24	0.72	358	5	3	41	mem	con	mod	mod	low	nt	ms	nh/0997_nh.bmp
264.96	0.72	359	5	2	127	per	lib	low	mod	low	tg	ht	wh/0704.bmp
265.68	0.72	360	3	2	103	mem	lib	mod	mod	mod	nt	ht	nh/0526_nh.bmp
266.40	0.72	361	3	4	1	mem	con	mod	mod	mod	tg	ms	wh/0425.bmp
267.12	0.72	362	2	3	43	mem	con	mod	mod	low	tg	ht	wh/0066.bmp
267.84	0.72	363	2	1	63	mem	con	mod	mod	mod	nt	ht	nh/0204_nh.bmp
268.56	0.72	364	2	2	99	mem	lib	mod	mod	mod	nt	ms	nh/0724_nh.bmp
269.28	0.72	365	3	1	86	per	con	low	mod	low	nt	cr	nh/0205_nh.bmp
270.00	0.72	366	4	1	50	mem	con	mod	mod	mod	tg	ms	wh/0698.bmp
270.72	0.72	367	5	4	46	per	con	mod	mod	mod	nt	cr	nh/0681_nh.bmp
271.44	0.72	368	2	4	12	mem	con	mod	mod	mod	tg	ms	wh/0001.bmp
272.16	0.72	369	2	3	127	per	lib	low	mod	low	tg	ms	wh/0769.bmp
272.88	0.72	370	2	4	35	per	con	mod	mod	mod	tg	ht	wh/0391.bmp
273.60	0.72	371	3	3	11	per	con	low	mod	low	tg	ms	wh/0766.bmp
274.32	0.72	372	4	4	47	per	con	mod	mod	mod	tg	ht	wh/0414.bmp
275.04	0.72	373	3	2	60	per	con	mod	mod	mod	nt	cr	nh/0274_nh.bmp
275.76	0.72	374	2	3	115	per	lib	low	mod	low	tg	ht	wh/0472.bmp
276.48	0.72	375	3	2	5	mem	con	mod	mod	low	tg	ht	wh/0435.bmp
277.20	0.72	376	3	3	117	per	lib	low	mod	low	tg	ms	wh/0573.bmp
277.92	0.72	377	2	2	66	per	lib	mod	mod	mod	nt	cr	nh/0750_nh.bmp
278.64	0.72	378	4	1	110	mem	lib	mod	mod	low	tg	ht	wh/0014.bmp
279.36	0.72	379	4	2	12	mem	con	mod	mod	low	tg	ms	wh/0155.bmp
280.08	0.72	380	4	4	48	per	con	mod	mod	mod	nt	cr	nh/0534_nh.bmp
280.80	0.72	381	2	2	69	per	lib	mod	mod	mod	nt	cr	nh/0473_nh.bmp
281.52	0.72	382	3	2	51	per	con	mod	mod	mod	nt	cr	nh/0405_nh.bmp
282.24	0.72	383	2	4	79	mem	lib	mod	mod	mod	tg	ht	wh/0580.bmp
282.96	0.72	384	5	4	75	mem	lib	mod	mod	mod	nt	ms	nh/0938_nh.bmp
283.68	0.72	385	3	1	104	mem	lib	mod	mod	low	nt	ht	nh/0040_nh.bmp
284.40	0.72	386	3	3	115	per	lib	low	mod	low	tg	ht	wh/0472.bmp
285.12	0.72	387	1	3	98	mem	lib	low	low	mod	nt	ht	nh/0912_nh.bmp
285.84	0.72	388	1	2	89	mem	con	low	low	low	nt	ms	nh/0481_nh.bmp
286.56	0.72	389	3	2	99	mem	lib	mod	mod	mod	nt	ms	nh/0724_nh.bmp
287.28	0.72	390	3	2	117	per	lib	low	mod	low	nt	cr	nh/0932_nh.bmp
288.00	0.72	391	1	2	107	mem	lib	mod	mod	mod	tg	ht	wh/0596.bmp
288.72	0.72	392	1	3	96	mem	con	low	low	mod	tg	ms	wh/0601.bmp
289.44	0.72	393	2	4	65	mem	lib	mod	mod	mod	nt	ht	nh/0857_nh.bmp
290.16	0.72	394	1	3	50	per	lib	mod	low	mod	tg	ms	wh/0047.bmp
290.88	0.72	395	5	2	70	per	lib	mod	mod	mod	nt	fa	nh/0183_nh.bmp
291.60	0.72	396	1	1	99	mem	lib	mod	mod	low	nt	ht	nh/0027_nh.bmp
292.32	0.72	397	3	3	43	mem	con	mod	mod	low	tg	ht	wh/0066.bmp
293.04	0.72	398	2	4	5	mem	con	mod	mod	mod	nt	ms	nh/0642_nh.bmp
293.76	0.72	399	3	2	76	per	lib	mod	mod	mod	tg	ht	wh/0637.bmp
294.48	0.72	400	1	3	72	per	con	mod	low	mod	nt	cr	nh/0972_nh.bmp
295.20	0.72	401	5	4	77	mem	lib	mod	mod	mod	tg	ht	wh/0878.bmp
295.92	0.72	402	2	1	92	per	con	low	mod	low	tg	ms	wh/1021.bmp
296.64	0.72	403	3	3	113	per	lib	low	mod	low	nt	cr	nh/0836_nh.bmp
297.36	0.72	404	3	3	38	mem	con	mod	mod	low	nt	ht	nh/0377_nh.bmp
298.08	0.72	405	1	4	33	per	con	mod	mod	mod	nt	cr	nh/0466_nh.bmp
298.80	0.72	406	5	4	32	per	lib	mod	mod	mod	tg	ht	wh/0899.bmp
299.52	0.72	407	3	3	120	per	lib	low	mod	low	tg	ms	wh/0853.bmp
300.24	0.72	408	3	1	92	per	con	low	mod	low	tg	ms	wh/1021.bmp
300.96	0.72	409	5	1	110	mem	lib	mod	mod	low	tg	ht	wh/0014.bmp
301.68	0.72	410	4	3	5	per	con	low	mod	low	tg	ms	wh/0156.bmp
302.40	0.72	411	3	4	27	per	lib	mod	mod	mod	tg	ms	wh/0289.bmp
303.12	0.72	412	1	3	110	mem	lib	low	low	mod	nt	ms	nh/0541_nh.bmp
303.84	0.72	413	3	3	32	mem	lib	mod	mod	low	tg	ht	wh/0421.bmp
304.56	0.72	414	4	4	66	mem	lib	mod	mod	mod	tg	ms	wh/0287.bmp
305.28	0.72	415	3	2	63	per	con	mod	mod	mod	nt	cr	nh/0189_nh.bmp
306.00	0.72	416	3	2	6	mem	con	mod	mod	low	nt	ms	nh/0392_nh.bmp
306.72	0.72	417	4	2	99	mem	lib	mod	mod	mod	nt	ms	nh/0724_nh.bmp
307.44	0.72	418	1	1	78	per	con	mod	low	mod	nt	cr	nh/0589_nh.bmp
308.16	0.72	419	4	1	92	per	con	low	mod	low	tg	ms	wh/1021.bmp
308.88	0.72	420	3	3	3	per	con	low	mod	low	tg	ht	wh/0387.bmp
309.60	0.72	421	1	3	93	mem	con	low	low	mod	tg	ms	wh/0702.bmp
310.32	0.72	422	1	1	20	per	lib	mod	low	mod	nt	cr	nh/0449_nh.bmp
311.04	0.72	423	1	4	124	per	lib	low	low	low	tg	ht	wh/0257.bmp
311.76	0.72	424	3	4	12	mem	con	mod	mod	mod	tg	ms	wh/0001.bmp
312.48	0.72	425	1	4	120	per	lib	low	low	low	nt	fa	nh/0122_nh.bmp
313.20	0.72	426	2	2	68	per	lib	mod	mod	mod	tg	ms	wh/0942.bmp
313.92	0.72	427	1	2	90	mem	con	low	low	low	tg	ms	wh/0152.bmp
314.64	0.72	428	4	2	103	mem	lib	mod	mod	mod	nt	ht	nh/0526_nh.bmp
315.36	0.72	429	2	3	128	per	lib	low	mod	low	nt	cr	nh/0251_nh.bmp
316.08	0.72	430	4	1	60	mem	con	mod	mod	mod	tg	ht	wh/0463.bmp
316.80	0.72	431	3	4	5	mem	con	mod	mod	mod	nt	ms	nh/0642_nh.bmp
317.52	0.72	432	4	2	6	mem	con	mod	mod	low	nt	ms	nh/0392_nh.bmp
318.24	0.72	433	4	3	120	per	lib	low	mod	low	tg	ms	wh/0853.bmp
318.96	0.72	434	4	2	2	mem	con	mod	mod	low	tg	ms	wh/0133.bmp
319.68	0.72	435	3	1	97	mem	lib	mod	mod	low	nt	ht	nh/0115_nh.bmp
320.40	0.72	436	2	4	6	mem	con	mod	mod	mod	tg	ms	wh/0700.bmp
321.12	0.72	437	4	2	63	per	con	mod	mod	mod	nt	cr	nh/0189_nh.bmp
321.84	0.72	438	4	2	60	per	con	mod	mod	mod	nt	cr	nh/0274_nh.bmp
322.56	0.72	439	3	4	79	mem	lib	mod	mod	mod	tg	ht	wh/0580.bmp
323.28	0.72	440	6	4	24	per	lib	mod	mod	mod	nt	cr	nh/0627_nh.bmp
324.00	0.72	441	1	2	47	per	con	low	low	low	nt	cr	nh/0817_nh.bmp
324.72	0.72	442	3	4	35	per	con	mod	mod	mod	tg	ht	wh/0391.bmp
325.44	0.72	443	4	3	43	mem	con	mod	mod	low	tg	ht	wh/0066.bmp
326.16	0.72	444	4	4	27	per	lib	mod	mod	mod	tg	ms	wh/0289.bmp
326.88	0.72	445	1	2	83	mem	con	low	low	low	nt	ms	nh/0411_nh.bmp
327.60	0.72	446	3	3	42	mem	con	mod	mod	low	nt	ht	nh/0597_nh.bmp
328.32	0.72	447	2	2	100	mem	lib	mod	mod	mod	tg	ht	wh/0600.bmp
329.04	0.72	448	3	1	93	per	con	low	mod	low	tg	ms	wh/0200.bmp
329.76	0.72	449	4	3	25	mem	lib	mod	mod	low	nt	ht	nh/0675_nh.bmp
330.48	0.72	450	3	3	19	mem	lib	mod	mod	low	tg	ht	wh/0868.bmp
331.20	0.72	451	5	3	25	mem	lib	mod	mod	low	nt	ht	nh/0675_nh.bmp
331.92	0.72	452	1	1	28	per	lib	mod	low	mod	nt	cr	nh/0885_nh.bmp
332.64	0.72	453	1	4	21	per	lib	mod	mod	mod	tg	ht	wh/0621.bmp
333.36	0.72	454	3	2	109	mem	lib	mod	mod	mod	nt	ht	nh/0920_nh.bmp
334.08	0.72	455	3	1	62	mem	con	mod	mod	mod	nt	ht	nh/0561_nh.bmp
334.80	0.72	456	3	2	53	per	con	mod	mod	mod	nt	cr	nh/0775_nh.bmp
335.52	0.72	457	1	4	92	mem	con	low	low	low	nt	ms	nh/0054_nh.bmp
336.24	0.72	458	1	3	87	mem	con	low	low	mod	nt	ms	nh/0866_nh.bmp
336.96	0.72	459	4	1	104	mem	lib	mod	mod	low	nt	ht	nh/0040_nh.bmp
337.68	0.72	460	4	2	59	per	con	mod	mod	mod	tg	ht	wh/0975.bmp
338.40	0.72	461	5	4	34	per	con	mod	mod	mod	nt	fa	nh/0981_nh.bmp
339.12	0.72	462	2	2	107	mem	lib	mod	mod	mod	tg	ht	wh/0596.bmp
339.84	0.72	463	4	4	23	per	lib	mod	mod	mod	nt	cr	nh/0098_nh.bmp
340.56	0.72	464	4	3	117	per	lib	low	mod	low	tg	ms	wh/0573.bmp
341.28	0.72	465	3	4	26	per	lib	mod	mod	mod	nt	cr	nh/0429_nh.bmp
342.00	0.72	466	4	4	37	per	con	mod	mod	mod	tg	ms	wh/0605.bmp
342.72	0.72	467	3	1	63	mem	con	mod	mod	mod	nt	ht	nh/0204_nh.bmp
343.44	0.72	468	4	2	76	per	lib	mod	mod	mod	tg	ht	wh/0637.bmp
344.16	0.72	469	1	3	56	per	lib	mod	low	mod	nt	fa	nh/0725_nh.bmp
344.88	0.72	470	3	3	28	mem	lib	mod	mod	low	tg	ht	wh/0733.bmp
345.60	0.72	471	3	2	100	mem	lib	mod	mod	mod	tg	ht	wh/0600.bmp
346.32	0.72	472	4	3	28	mem	lib	mod	mod	low	tg	ht	wh/0733.bmp
347.04	0.72	473	1	4	123	per	lib	low	low	low	nt	fa	nh/0788_nh.bmp
347.76	0.72	474	3	1	106	mem	lib	mod	mod	low	tg	ht	wh/0649.bmp
348.48	0.72	475	3	2	128	per	lib	low	mod	low	tg	ms	wh/0298.bmp
349.20	0.72	476	3	1	109	mem	lib	mod	mod	low	tg	ht	wh/0926.bmp
349.92	0.72	477	4	2	106	mem	lib	mod	mod	mod	nt	ht	nh/0002_nh.bmp
350.64	0.72	478	2	3	26	mem	lib	mod	mod	low	nt	ht	nh/0177_nh.bmp
351.36	0.72	479	4	3	8	per	con	low	mod	low	nt	cr	nh/0325_nh.bmp
352.08	0.72	480	4	1	63	mem	con	mod	mod	mod	nt	ht	nh/0204_nh.bmp
352.80	0.72	481	3	1	82	per	con	low	mod	low	tg	ms	wh/0727.bmp
353.52	0.72	482	3	2	69	per	lib	mod	mod	mod	nt	cr	nh/0473_nh.bmp
354.24	0.72	483	3	4	8	mem	con	mod	mod	mod	nt	ms	nh/0896_nh.bmp
354.96	0.72	484	3	4	69	mem	lib	mod	mod	mod	tg	ht	wh/0847.bmp
355.68	0.72	485	3	4	40	per	con	mod	mod	mod	tg	ht	wh/0801.bmp
356.40	0.72	486	4	4	5	mem	con	mod	mod	mod	nt	ms	nh/0642_nh.bmp
357.12	0.72	487	5	3	117	per	lib	low	mod	low	tg	ms	wh/0573.bmp
357.84	0.72	488	5	3	8	per	con	low	mod	low	nt	cr	nh/0325_nh.bmp
358.56	0.72	489	1	4	84	mem	con	low	low	low	tg	ms	wh/0522.bmp
359.28	0.72	490	1	4	103	mem	lib	low	low	low	nt	ht	nh/0614_nh.bmp
360.00	0.72	491	4	1	88	per	con	low	mod	low	tg	ms	wh/0116.bmp
360.72	0.72	492	2	4	33	per	con	mod	mod	mod	nt	cr	nh/0466_nh.bmp
361.44	0.72	493	4	3	113	per	lib	low	mod	low	nt	cr	nh/0836_nh.bmp
362.16	0.72	494	3	1	57	mem	con	mod	mod	mod	tg	ms	wh/0785.bmp
362.88	0.72	495	3	2	55	per	con	mod	mod	mod	tg	ht	wh/0959.bmp
363.60	0.72	496	1	3	66	per	con	mod	low	mod	tg	ht	wh/0288.bmp
364.32	0.72	497	2	2	110	mem	lib	mod	mod	mod	tg	ht	wh/0162.bmp
365.04	0.72	498	5	4	5	mem	con	mod	mod	mod	nt	ms	nh/0642_nh.bmp
365.76	0.72	499	4	1	95	per	con	low	mod	low	nt	cr	nh/0168_nh.bmp
366.48	0.72	500	3	1	58	mem	con	mod	mod	mod	nt	ms	nh/0585_nh.bmp
367.20	0.72	501	4	2	117	per	lib	low	mod	low	nt	cr	nh/0932_nh.bmp
367.92	0.72	502	4	2	69	per	lib	mod	mod	mod	nt	cr	nh/0473_nh.bmp
368.64	0.72	503	1	1	4	mem	con	low	low	mod	nt	ms	nh/0553_nh.bmp
369.36	0.72	504	5	1	104	mem	lib	mod	mod	low	nt	ht	nh/0040_nh.bmp
370.08	0.72	505	4	2	7	mem	con	mod	mod	low	nt	ht	nh/0353_nh.bmp
370.80	0.72	506	5	2	119	per	lib	low	mod	low	nt	cr	nh/0105_nh.bmp
371.52	0.72	507	4	1	57	mem	con	mod	mod	mod	tg	ms	wh/0785.bmp
372.24	0.72	508	3	1	108	mem	lib	mod	mod	low	tg	ht	wh/0178.bmp
372.96	0.72	509	4	1	54	mem	con	mod	mod	mod	nt	ms	nh/0841_nh.bmp
373.68	0.72	510	5	3	5	per	con	low	mod	low	tg	ms	wh/0156.bmp
374.40	0.72	511	4	2	55	per	con	mod	mod	mod	tg	ht	wh/0959.bmp
375.12	0.72	512	6	1	104	mem	lib	mod	mod	low	nt	ht	nh/0040_nh.bmp
375.84	0.72	513	4	3	40	mem	con	mod	mod	low	tg	ms	wh/0128.bmp
376.56	0.72	514	4	4	8	mem	con	mod	mod	mod	nt	ms	nh/0896_nh.bmp
377.28	0.72	515	4	2	5	mem	con	mod	mod	low	tg	ht	wh/0435.bmp
378.00	0.72	516	3	2	110	mem	lib	mod	mod	mod	tg	ht	wh/0162.bmp
378.72	0.72	517	5	2	99	mem	lib	mod	mod	mod	nt	ms	nh/0724_nh.bmp
379.44	0.72	518	1	1	19	per	lib	mod	low	mod	tg	ht	wh/0550.bmp
380.16	0.72	519	5	2	60	per	con	mod	mod	mod	nt	cr	nh/0274_nh.bmp
380.88	0.72	520	6	3	8	per	con	low	mod	low	nt	cr	nh/0325_nh.bmp
381.60	0.72	521	1	1	114	per	lib	low	low	low	nt	fa	nh/0076_nh.bmp
382.32	0.72	522	5	1	57	mem	con	mod	mod	mod	tg	ms	wh/0785.bmp
383.04	0.72	523	1	3	58	per	lib	mod	low	mod	nt	cr	nh/0898_nh.bmp
383.76	0.72	524	4	2	110	mem	lib	mod	mod	mod	tg	ht	wh/0162.bmp
384.48	0.72	525	5	2	7	mem	con	mod	mod	low	nt	ht	nh/0353_nh.bmp
385.20	0.72	526	4	4	29	per	lib	mod	mod	mod	tg	ht	wh/0658.bmp
385.92	0.72	527	5	3	40	mem	con	mod	mod	low	tg	ms	wh/0128.bmp
386.64	0.72	528	5	2	76	per	lib	mod	mod	mod	tg	ht	wh/0637.bmp
387.36	0.72	529	4	2	128	per	lib	low	mod	low	tg	ms	wh/0298.bmp
388.08	0.72	530	3	3	26	mem	lib	mod	mod	low	nt	ht	nh/0177_nh.bmp
388.80	0.72	531	3	1	51	mem	con	mod	mod	mod	tg	ms	wh/0965.bmp
389.52	0.72	532	5	2	2	mem	con	mod	mod	low	tg	ms	wh/0133.bmp
390.24	0.72	533	4	3	37	mem	con	mod	mod	low	tg	ht	wh/0529.bmp
390.96	0.72	534	3	3	15	per	con	low	mod	low	nt	cr	nh/0231_nh.bmp
391.68	0.72	535	4	1	106	mem	lib	mod	mod	low	tg	ht	wh/0649.bmp
392.40	0.72	536	1	4	102	mem	lib	low	low	low	nt	ht	nh/0682_nh.bmp
393.12	0.72	537	6	4	5	mem	con	mod	mod	mod	nt	ms	nh/0642_nh.bmp
393.84	0.72	538	3	2	65	per	lib	mod	mod	mod	nt	fa	nh/0100_nh.bmp
394.56	0.72	539	3	4	65	mem	lib	mod	mod	mod	nt	ht	nh/0857_nh.bmp
395.28	0.72	540	4	3	42	mem	con	mod	mod	low	nt	ht	nh/0597_nh.bmp
396.00	0.72	541	4	1	108	mem	lib	mod	mod	low	tg	ht	wh/0178.bmp
396.72	0.72	542	1	4	116	per	lib	low	low	low	tg	ht	wh/0654.bmp
397.44	0.72	543	3	4	17	per	lib	mod	mod	mod	nt	fa	nh/0692_nh.bmp
398.16	0.72	544	5	2	59	per	con	mod	mod	mod	tg	ht	wh/0975.bmp
398.88	0.72	545	1	1	73	per	con	mod	low	mod	tg	ms	wh/0270.bmp
399.60	0.72	546	2	1	99	mem	lib	mod	mod	low	nt	ht	nh/0027_nh.bmp
400.32	0.72	547	3	2	67	per	lib	mod	mod	mod	tg	ht	wh/0679.bmp
401.04	0.72	548	6	2	7	mem	con	mod	mod	low	nt	ht	nh/0353_nh.bmp
401.76	0.72	549	4	2	100	mem	lib	mod	mod	mod	tg	ht	wh/0600.bmp
402.48	0.72	550	4	2	67	per	lib	mod	mod	mod	tg	ht	wh/0679.bmp
403.20	0.72	551	4	4	65	mem	lib	mod	mod	mod	nt	ht	nh/0857_nh.bmp
403.92	0.72	552	3	2	115	per	lib	low	mod	low	tg	ms	wh/0897.bmp
404.64	0.72	553	5	4	23	per	lib	mod	mod	mod	nt	cr	nh/0098_nh.bmp
405.36	0.72	554	4	3	115	per	lib	low	mod	low	tg	ht	wh/0472.bmp
406.08	0.72	555	4	3	38	mem	con	mod	mod	low	nt	ht	nh/0377_nh.bmp
406.80	0.72	556	4	2	13	mem	con	mod	mod	low	tg	ht	wh/0515.bmp
407.52	0.72	557	3	2	66	per	lib	mod	mod	mod	nt	cr	nh/0750_nh.bmp
408.24	0.72	558	1	4	55	per	con	low	low	low	tg	ms	wh/0210.bmp
408.96	0.72	559	4	4	12	mem	con	mod	mod	mod	tg	ms	wh/0001.bmp
409.68	0.72	560	4	1	109	mem	lib	mod	mod	low	tg	ht	wh/0926.bmp
410.40	0.72	561	1	3	104	mem	lib	low	low	mod	nt	ht	nh/0977_nh.bmp
411.12	0.72	562	4	4	35	per	con	mod	mod	mod	tg	ht	wh/0391.bmp
411.84	0.72	563	1	3	68	per	con	mod	low	mod	nt	fa	nh/0906_nh.bmp
412.56	0.72	564	5	2	110	mem	lib	mod	mod	mod	tg	ht	wh/0162.bmp
413.28	0.72	565	5	2	100	mem	lib	mod	mod	mod	tg	ht	wh/0600.bmp
414.00	0.72	566	1	3	85	mem	con	low	low	mod	nt	ht	nh/0740_nh.bmp
414.72	0.72	567	5	4	8	mem	con	mod	mod	mod	nt	ms	nh/0896_nh.bmp
415.44	0.72	568	4	2	65	per	lib	mod	mod	mod	nt	fa	nh/0100_nh.bmp
416.16	0.72	569	6	1	57	mem	con	mod	mod	mod	tg	ms	wh/0785.bmp
416.88	0.72	570	1	1	27	per	lib	mod	low	mod	tg	ht	wh/0009.bmp
417.60	0.72	571	6	3	25	mem	lib	mod	mod	low	nt	ht	nh/0675_nh.bmp
418.32	0.72	572	4	2	53	per	con	mod	mod	mod	nt	cr	nh/0775_nh.bmp
419.04	0.72	573	1	3	111	mem	lib	low	low	mod	tg	ms	wh/0905.bmp
419.76	0.72	574	4	3	19	mem	lib	mod	mod	low	tg	ht	wh/0868.bmp
420.48	0.72	575	2	2	10	mem	con	mod	mod	low	nt	ht	nh/0031_nh.bmp
421.20	0.72	576	5	4	37	per	con	mod	mod	mod	tg	ms	wh/0605.bmp
421.92	0.72	577	5	1	108	mem	lib	mod	mod	low	tg	ht	wh/0178.bmp
422.64	0.72	578	3	2	49	per	con	mod	mod	mod	tg	ht	wh/0393.bmp
423.36	0.72	579	5	3	43	mem	con	mod	mod	low	tg	ht	wh/0066.bmp
424.08	0.72	580	5	2	128	per	lib	low	mod	low	tg	ms	wh/0298.bmp
424.80	0.72	581	5	2	106	mem	lib	mod	mod	mod	nt	ht	nh/0002_nh.bmp
425.52	0.72	582	5	2	63	per	con	mod	mod	mod	nt	cr	nh/0189_nh.bmp
426.24	0.72	583	5	3	28	mem	lib	mod	mod	low	tg	ht	wh/0733.bmp
426.96	0.72	584	4	3	15	per	con	low	mod	low	nt	cr	nh/0231_nh.bmp
427.68	0.72	585	6	4	75	mem	lib	mod	mod	mod	nt	ms	nh/0938_nh.bmp
428.40	0.72	586	3	4	33	per	con	mod	mod	mod	nt	cr	nh/0466_nh.bmp
429.12	0.72	587	5	4	47	per	con	mod	mod	mod	tg	ht	wh/0414.bmp
429.84	0.72	588	3	2	10	mem	con	mod	mod	low	nt	ht	nh/0031_nh.bmp
430.56	0.72	589	4	2	66	per	lib	mod	mod	mod	nt	cr	nh/0750_nh.bmp
431.28	0.72	590	3	2	68	per	lib	mod	mod	mod	tg	ms	wh/0942.bmp
432.00	0.72	591	4	4	79	mem	lib	mod	mod	mod	tg	ht	wh/0580.bmp
432.72	0.72	592	6	2	128	per	lib	low	mod	low	tg	ms	wh/0298.bmp
433.44	0.72	593	5	1	109	mem	lib	mod	mod	low	tg	ht	wh/0926.bmp
434.16	0.72	594	5	2	55	per	con	mod	mod	mod	tg	ht	wh/0959.bmp
434.88	0.72	595	3	1	99	mem	lib	mod	mod	low	nt	ht	nh/0027_nh.bmp
435.60	0.72	596	6	2	55	per	con	mod	mod	mod	tg	ht	wh/0959.bmp
436.32	0.72	597	1	1	6	mem	con	low	low	mod	tg	ms	wh/0551.bmp
437.04	0.72	598	5	4	27	per	lib	mod	mod	mod	tg	ms	wh/0289.bmp
437.76	0.72	599	1	3	81	mem	con	low	low	mod	nt	ms	nh/0712_nh.bmp
438.48	0.72	600	5	1	95	per	con	low	mod	low	nt	cr	nh/0168_nh.bmp
439.20	0.72	601	4	2	123	per	lib	low	mod	low	nt	cr	nh/0265_nh.bmp
439.92	0.72	602	3	3	114	per	lib	low	mod	low	nt	cr	nh/0233_nh.bmp
440.64	0.72	603	5	4	48	per	con	mod	mod	mod	nt	cr	nh/0534_nh.bmp
441.36	0.72	604	5	1	106	mem	lib	mod	mod	low	tg	ht	wh/0649.bmp
442.08	0.72	605	6	2	59	per	con	mod	mod	mod	tg	ht	wh/0975.bmp
442.80	0.72	606	5	2	13	mem	con	mod	mod	low	tg	ht	wh/0515.bmp
443.52	0.72	607	5	3	47	mem	con	mod	mod	low	tg	ms	wh/0816.bmp
444.24	0.72	608	4	2	109	mem	lib	mod	mod	mod	nt	ht	nh/0920_nh.bmp
444.96	0.72	609	1	2	44	per	con	low	low	low	nt	cr	nh/0121_nh.bmp
445.68	0.72	610	4	4	40	per	con	mod	mod	mod	tg	ht	wh/0801.bmp
446.40	0.72	611	5	2	102	mem	lib	mod	mod	mod	tg	ht	wh/0879.bmp
447.12	0.72	612	4	1	97	mem	lib	mod	mod	low	nt	ht	nh/0115_nh.bmp
447.84	0.72	613	5	2	53	per	con	mod	mod	mod	nt	cr	nh/0775_nh.bmp
448.56	0.72	614	2	4	21	per	lib	mod	mod	mod	tg	ht	wh/0621.bmp
449.28	0.72	615	5	3	121	per	lib	low	mod	low	nt	cr	nh/0624_nh.bmp
450.00	0.72	616	4	3	32	mem	lib	mod	mod	low	tg	ht	wh/0421.bmp
450.72	0.72	617	1	4	118	per	lib	low	low	low	tg	ht	wh/0191.bmp
451.44	0.72	618	6	1	95	per	con	low	mod	low	nt	cr	nh/0168_nh.bmp
452.16	0.72	619	4	3	30	mem	lib	mod	mod	low	nt	ht	nh/0739_nh.bmp
452.88	0.72	620	5	2	117	per	lib	low	mod	low	nt	cr	nh/0932_nh.bmp
453.60	0.72	621	6	4	23	per	lib	mod	mod	mod	nt	cr	nh/0098_nh.bmp
454.32	0.72	622	5	2	103	mem	lib	mod	mod	mod	nt	ht	nh/0526_nh.bmp
455.04	0.72	623	2	4	72	mem	lib	mod	mod	mod	nt	ht	nh/0919_nh.bmp
455.76	0.72	624	6	2	110	mem	lib	mod	mod	mod	tg	ht	wh/0162.bmp
456.48	0.72	625	4	1	51	mem	con	mod	mod	mod	tg	ms	wh/0965.bmp
457.20	0.72	626	1	2	121	per	lib	low	mod	low	tg	ht	wh/0379.bmp
457.92	0.72	627	1	4	126	per	lib	low	low	low	nt	cr	nh/0662_nh.bmp
458.64	0.72	628	1	1	5	mem	con	low	low	mod	nt	ms	nh/0752_nh.bmp
459.36	0.72	629	5	3	42	mem	con	mod	mod	low	nt	ht	nh/0597_nh.bmp
460.08	0.72	630	3	4	6	mem	con	mod	mod	mod	tg	ms	wh/0700.bmp
460.80	0.72	631	1	2	92	mem	con	low	low	low	tg	ms	wh/0499.bmp
461.52	0.72	632	4	1	86	per	con	low	mod	low	nt	cr	nh/0205_nh.bmp
462.24	0.72	633	4	4	69	mem	lib	mod	mod	mod	tg	ht	wh/0847.bmp
462.96	0.72	634	4	2	51	per	con	mod	mod	mod	nt	cr	nh/0405_nh.bmp
463.68	0.72	635	5	3	15	per	con	low	mod	low	nt	cr	nh/0231_nh.bmp
464.40	0.72	636	1	1	117	per	lib	low	low	low	tg	ms	wh/0141.bmp
465.12	0.72	637	5	3	113	per	lib	low	mod	low	nt	cr	nh/0836_nh.bmp
465.84	0.72	638	3	3	128	per	lib	low	mod	low	nt	cr	nh/0251_nh.bmp
466.56	0.72	639	4	1	99	mem	lib	mod	mod	low	nt	ht	nh/0027_nh.bmp
467.28	0.72	640	5	3	30	mem	lib	mod	mod	low	nt	ht	nh/0739_nh.bmp
468.00	0.72	641	5	1	54	mem	con	mod	mod	mod	nt	ms	nh/0841_nh.bmp
468.72	0.72	642	1	4	62	per	con	low	low	low	tg	ms	wh/0407.bmp
469.44	0.72	643	4	4	33	per	con	mod	mod	mod	nt	cr	nh/0466_nh.bmp
470.16	0.72	644	6	4	48	per	con	mod	mod	mod	nt	cr	nh/0534_nh.bmp
470.88	0.72	645	3	4	72	mem	lib	mod	mod	mod	nt	ht	nh/0919_nh.bmp
471.60	0.72	646	5	4	29	per	lib	mod	mod	mod	tg	ht	wh/0658.bmp
472.32	0.72	647	5	3	4	per	con	low	mod	low	tg	ms	wh/0745.bmp
473.04	0.72	648	5	2	12	mem	con	mod	mod	low	tg	ms	wh/0155.bmp
473.76	0.72	649	5	2	67	per	lib	mod	mod	mod	tg	ht	wh/0679.bmp
474.48	0.72	650	4	3	114	per	lib	low	mod	low	nt	cr	nh/0233_nh.bmp
475.20	0.72	651	4	3	16	per	con	low	mod	low	nt	cr	nh/0145_nh.bmp
475.92	0.72	652	3	4	21	per	lib	mod	mod	mod	tg	ht	wh/0621.bmp
476.64	0.72	653	1	1	15	mem	con	low	low	mod	nt	ms	nh/0296_nh.bmp
477.36	0.72	654	6	2	119	per	lib	low	mod	low	nt	cr	nh/0105_nh.bmp
478.08	0.72	655	4	4	1	mem	con	mod	mod	mod	tg	ms	wh/0425.bmp
478.80	0.72	656	6	1	110	mem	lib	mod	mod	low	tg	ht	wh/0014.bmp
479.52	0.72	657	5	3	37	mem	con	mod	mod	low	tg	ht	wh/0529.bmp
480.24	0.72	658	5	1	88	per	con	low	mod	low	tg	ms	wh/0116.bmp
480.96	0.72	659	4	2	3	mem	con	mod	mod	low	nt	ht	nh/0163_nh.bmp
481.68	0.72	660	5	2	65	per	lib	mod	mod	mod	nt	fa	nh/0100_nh.bmp
482.40	0.72	661	6	3	4	per	con	low	mod	low	tg	ms	wh/0745.bmp
483.12	0.72	662	3	3	127	per	lib	low	mod	low	tg	ms	wh/0769.bmp
483.84	0.72	663	4	4	26	per	lib	mod	mod	mod	nt	cr	nh/0429_nh.bmp
484.56	0.72	664	3	2	107	mem	lib	mod	mod	mod	tg	ht	wh/0596.bmp
485.28	0.72	665	1	1	126	per	lib	low	low	low	nt	fa	nh/0786_nh.bmp
486.00	0.72	666	4	1	93	per	con	low	mod	low	tg	ms	wh/0200.bmp
486.72	0.72	667	4	4	21	per	lib	mod	mod	mod	tg	ht	wh/0621.bmp
487.44	0.72	668	1	4	54	per	con	low	low	low	nt	cr	nh/0889_nh.bmp
488.16	0.72	669	3	3	35	mem	con	mod	mod	low	nt	ht	nh/0019_nh.bmp
488.88	0.72	670	5	3	38	mem	con	mod	mod	low	nt	ht	nh/0377_nh.bmp
489.60	0.72	671	4	2	115	per	lib	low	mod	low	tg	ms	wh/0897.bmp
490.32	0.72	672	4	3	127	per	lib	low	mod	low	tg	ms	wh/0769.bmp
491.04	0.72	673	4	3	128	per	lib	low	mod	low	nt	cr	nh/0251_nh.bmp
491.76	0.72	674	1	1	13	mem	con	low	low	mod	tg	ms	wh/0324.bmp
492.48	0.72	675	6	3	41	mem	con	mod	mod	low	nt	ms	nh/0997_nh.bmp
493.20	0.72	676	5	4	1	mem	con	mod	mod	mod	tg	ms	wh/0425.bmp
493.92	0.72	677	4	3	35	mem	con	mod	mod	low	nt	ht	nh/0019_nh.bmp
494.64	0.72	678	1	1	22	per	lib	mod	low	mod	nt	fa	nh/0829_nh.bmp
495.36	0.72	679	5	2	123	per	lib	low	mod	low	nt	cr	nh/0265_nh.bmp
496.08	0.72	680	6	2	67	per	lib	mod	mod	mod	tg	ht	wh/0679.bmp
496.80	0.72	681	4	4	16	mem	con	mod	mod	mod	tg	ht	wh/0955.bmp
497.52	0.72	682	6	2	2	mem	con	mod	mod	low	tg	ms	wh/0133.bmp
498.24	0.72	683	5	3	32	mem	lib	mod	mod	low	tg	ht	wh/0421.bmp
498.96	0.72	684	6	2	65	per	lib	mod	mod	mod	nt	fa	nh/0100_nh.bmp
499.68	0.72	685	5	2	3	mem	con	mod	mod	low	nt	ht	nh/0163_nh.bmp
500.40	0.72	686	5	1	92	per	con	low	mod	low	tg	ms	wh/1021.bmp
501.12	0.72	687	6	1	88	per	con	low	mod	low	tg	ms	wh/0116.bmp
501.84	0.72	688	6	2	53	per	con	mod	mod	mod	nt	cr	nh/0775_nh.bmp
502.56	0.72	689	4	2	68	per	lib	mod	mod	mod	tg	ms	wh/0942.bmp
503.28	0.72	690	6	1	109	mem	lib	mod	mod	low	tg	ht	wh/0926.bmp
504.00	0.72	691	5	3	16	per	con	low	mod	low	nt	cr	nh/0145_nh.bmp
504.72	0.72	692	1	2	27	mem	lib	low	low	mod	tg	ht	wh/0527.bmp
505.44	0.72	693	6	2	123	per	lib	low	mod	low	nt	cr	nh/0265_nh.bmp
506.16	0.72	694	4	3	3	per	con	low	mod	low	tg	ht	wh/0387.bmp
506.88	0.72	695	4	1	85	per	con	low	mod	low	nt	cr	nh/0455_nh.bmp
507.60	0.72	696	5	1	60	mem	con	mod	mod	mod	tg	ht	wh/0463.bmp
508.32	0.72	697	1	4	85	mem	con	low	low	low	tg	ms	wh/1001.bmp
509.04	0.72	698	6	4	8	mem	con	mod	mod	mod	nt	ms	nh/0896_nh.bmp
509.76	0.72	699	2	2	121	per	lib	low	mod	low	tg	ht	wh/0379.bmp
510.48	0.72	700	4	4	7	mem	con	mod	mod	mod	nt	ht	nh/0935_nh.bmp
511.20	0.72	701	5	4	12	mem	con	mod	mod	mod	tg	ms	wh/0001.bmp
511.92	0.72	702	6	3	42	mem	con	mod	mod	low	nt	ht	nh/0597_nh.bmp
512.64	0.72	703	1	2	22	mem	lib	low	low	mod	tg	ht	wh/0272.bmp
513.36	0.72	704	6	4	47	per	con	mod	mod	mod	tg	ht	wh/0414.bmp
514.08	0.72	705	4	2	49	per	con	mod	mod	mod	tg	ht	wh/0393.bmp
514.80	0.72	706	4	1	82	per	con	low	mod	low	tg	ms	wh/0727.bmp
515.52	0.72	707	1	4	110	mem	lib	low	low	low	nt	ht	nh/0709_nh.bmp
516.24	0.72	708	1	4	115	per	lib	low	low	low	nt	cr	nh/0777_nh.bmp
516.96	0.72	709	5	2	115	per	lib	low	mod	low	tg	ms	wh/0897.bmp
517.68	0.72	710	5	1	51	mem	con	mod	mod	mod	tg	ms	wh/0965.bmp
518.40	0.72	711	5	2	51	per	con	mod	mod	mod	nt	cr	nh/0405_nh.bmp
519.12	0.72	712	5	1	50	mem	con	mod	mod	mod	tg	ms	wh/0698.bmp
519.84	0.72	713	6	3	15	per	con	low	mod	low	nt	cr	nh/0231_nh.bmp
520.56	0.72	714	5	2	68	per	lib	mod	mod	mod	tg	ms	wh/0942.bmp
521.28	0.72	715	1	1	34	mem	lib	low	low	low	tg	ht	wh/0996.bmp
522.00	0.72	716	5	4	66	mem	lib	mod	mod	mod	tg	ms	wh/0287.bmp
522.72	0.72	717	1	1	74	per	con	mod	low	mod	nt	cr	nh/0922_nh.bmp
523.44	0.72	718	6	4	66	mem	lib	mod	mod	mod	tg	ms	wh/0287.bmp
524.16	0.72	719	5	4	7	mem	con	mod	mod	mod	nt	ht	nh/0935_nh.bmp
524.88	0.72	720	6	3	16	per	con	low	mod	low	nt	cr	nh/0145_nh.bmp
525.60	0.72	721	3	2	121	per	lib	low	mod	low	tg	ht	wh/0379.bmp
526.32	0.72	722	5	1	85	per	con	low	mod	low	nt	cr	nh/0455_nh.bmp
527.04	0.72	723	5	3	120	per	lib	low	mod	low	tg	ms	wh/0853.bmp
527.76	0.72	724	4	1	100	mem	lib	mod	mod	low	nt	ht	nh/0741_nh.bmp
528.48	0.72	725	4	4	68	mem	lib	mod	mod	mod	nt	ht	nh/0070_nh.bmp
529.20	0.72	726	6	3	37	mem	con	mod	mod	low	tg	ht	wh/0529.bmp
529.92	0.72	727	5	1	100	mem	lib	mod	mod	low	nt	ht	nh/0741_nh.bmp
530.64	0.72	728	5	3	115	per	lib	low	mod	low	tg	ht	wh/0472.bmp
531.36	0.72	729	6	1	54	mem	con	mod	mod	mod	nt	ms	nh/0841_nh.bmp
532.08	0.72	730	5	3	114	per	lib	low	mod	low	nt	cr	nh/0233_nh.bmp
532.80	0.72	731	6	3	32	mem	lib	mod	mod	low	tg	ht	wh/0421.bmp
533.52	0.72	732	5	3	19	mem	lib	mod	mod	low	tg	ht	wh/0868.bmp
534.24	0.72	733	6	2	103	mem	lib	mod	mod	mod	nt	ht	nh/0526_nh.bmp
534.96	0.72	734	5	1	93	per	con	low	mod	low	tg	ms	wh/0200.bmp
535.68	0.72	735	5	1	86	per	con	low	mod	low	nt	cr	nh/0205_nh.bmp
536.40	0.72	736	6	3	115	per	lib	low	mod	low	tg	ht	wh/0472.bmp
537.12	0.72	737	4	4	72	mem	lib	mod	mod	mod	nt	ht	nh/0919_nh.bmp
537.84	0.72	738	5	2	49	per	con	mod	mod	mod	tg	ht	wh/0393.bmp
538.56	0.72	739	4	3	11	per	con	low	mod	low	tg	ms	wh/0766.bmp
539.28	0.72	740	4	4	17	per	lib	mod	mod	mod	nt	fa	nh/0692_nh.bmp
540.00	0.72	741	5	1	97	mem	lib	mod	mod	low	nt	ht	nh/0115_nh.bmp
540.72	0.72	742	4	1	62	mem	con	mod	mod	mod	nt	ht	nh/0561_nh.bmp
541.44	0.72	743	5	2	66	per	lib	mod	mod	mod	nt	cr	nh/0750_nh.bmp
542.16	0.72	744	5	4	33	per	con	mod	mod	mod	nt	cr	nh/0466_nh.bmp
542.88	0.72	745	1	2	94	mem	con	low	low	low	nt	ms	nh/0109_nh.bmp
543.60	0.72	746	5	3	11	per	con	low	mod	low	tg	ms	wh/0766.bmp
544.32	0.72	747	1	2	41	per	con	low	low	low	tg	ms	wh/1012.bmp
545.04	0.72	748	6	3	43	mem	con	mod	mod	low	tg	ht	wh/0066.bmp
545.76	0.72	749	4	2	107	mem	lib	mod	mod	mod	tg	ht	wh/0596.bmp
546.48	0.72	750	1	1	24	per	lib	mod	low	mod	tg	ht	wh/0910.bmp
547.20	0.72	751	4	4	6	mem	con	mod	mod	mod	tg	ms	wh/0700.bmp
547.92	0.72	752	6	2	102	mem	lib	mod	mod	mod	tg	ht	wh/0879.bmp
548.64	0.72	753	5	3	12	per	con	low	mod	low	nt	cr	nh/0514_nh.bmp
549.36	0.72	754	5	2	69	per	lib	mod	mod	mod	nt	cr	nh/0473_nh.bmp
550.08	0.72	755	6	2	69	per	lib	mod	mod	mod	nt	cr	nh/0473_nh.bmp
550.80	0.72	756	6	3	40	mem	con	mod	mod	low	tg	ms	wh/0128.bmp
551.52	0.72	757	5	4	26	per	lib	mod	mod	mod	nt	cr	nh/0429_nh.bmp
552.24	0.72	758	5	1	62	mem	con	mod	mod	mod	nt	ht	nh/0561_nh.bmp
552.96	0.72	759	5	4	79	mem	lib	mod	mod	mod	tg	ht	wh/0580.bmp
553.68	0.72	760	6	1	92	per	con	low	mod	low	tg	ms	wh/1021.bmp
554.40	0.72	761	6	3	28	mem	lib	mod	mod	low	tg	ht	wh/0733.bmp
555.12	0.72	762	6	1	106	mem	lib	mod	mod	low	tg	ht	wh/0649.bmp
555.84	0.72	763	5	4	69	mem	lib	mod	mod	mod	tg	ht	wh/0847.bmp
556.56	0.72	764	6	3	38	mem	con	mod	mod	low	nt	ht	nh/0377_nh.bmp
557.28	0.72	765	5	4	68	mem	lib	mod	mod	mod	nt	ht	nh/0070_nh.bmp
558.00	0.72	766	6	2	106	mem	lib	mod	mod	mod	nt	ht	nh/0002_nh.bmp
558.72	0.72	767	4	3	26	mem	lib	mod	mod	low	nt	ht	nh/0177_nh.bmp
559.44	0.72	768	1	4	97	mem	lib	low	low	low	tg	ms	wh/0862.bmp
560.16	0.72	769	4	1	58	mem	con	mod	mod	mod	nt	ms	nh/0585_nh.bmp
560.88	0.72	770	6	2	12	mem	con	mod	mod	low	tg	ms	wh/0155.bmp
561.60	0.72	771	5	4	21	per	lib	mod	mod	mod	tg	ht	wh/0621.bmp
562.32	0.72	772	5	4	72	mem	lib	mod	mod	mod	nt	ht	nh/0919_nh.bmp
563.04	0.72	773	6	1	100	mem	lib	mod	mod	low	nt	ht	nh/0741_nh.bmp
563.76	0.72	774	6	2	66	per	lib	mod	mod	mod	nt	cr	nh/0750_nh.bmp
564.48	0.72	775	5	4	65	mem	lib	mod	mod	mod	nt	ht	nh/0857_nh.bmp
565.20	0.72	776	1	3	107	mem	lib	low	low	mod	tg	ht	wh/0478.bmp
565.92	0.72	777	6	2	70	per	lib	mod	mod	mod	nt	fa	nh/0183_nh.bmp
566.64	0.72	778	6	2	51	per	con	mod	mod	mod	nt	cr	nh/0405_nh.bmp
567.36	0.72	779	6	1	93	per	con	low	mod	low	tg	ms	wh/0200.bmp
568.08	0.72	780	6	3	12	per	con	low	mod	low	nt	cr	nh/0514_nh.bmp
568.80	0.72	781	5	1	63	mem	con	mod	mod	mod	nt	ht	nh/0204_nh.bmp
569.52	0.72	782	6	4	72	mem	lib	mod	mod	mod	nt	ht	nh/0919_nh.bmp
570.24	0.72	783	6	1	85	per	con	low	mod	low	nt	cr	nh/0455_nh.bmp
570.96	0.72	784	6	2	116	per	lib	low	mod	low	nt	cr	nh/0648_nh.bmp
571.68	0.72	785	4	2	121	per	lib	low	mod	low	tg	ht	wh/0379.bmp
572.40	0.72	786	5	4	35	per	con	mod	mod	mod	tg	ht	wh/0391.bmp
573.12	0.72	787	5	4	6	mem	con	mod	mod	mod	tg	ms	wh/0700.bmp
573.84	0.72	788	6	4	6	mem	con	mod	mod	mod	tg	ms	wh/0700.bmp
574.56	0.72	789	5	1	82	per	con	low	mod	low	tg	ms	wh/0727.bmp
575.28	0.72	790	6	4	65	mem	lib	mod	mod	mod	nt	ht	nh/0857_nh.bmp
576.00	0.72	791	1	4	93	mem	con	low	low	low	nt	ms	nh/0685_nh.bmp
576.72	0.72	792	6	2	115	per	lib	low	mod	low	tg	ms	wh/0897.bmp
577.44	0.72	793	6	2	100	mem	lib	mod	mod	mod	tg	ht	wh/0600.bmp
578.16	0.72	794	6	3	19	mem	lib	mod	mod	low	tg	ht	wh/0868.bmp
578.88	0.72	795	6	1	108	mem	lib	mod	mod	low	tg	ht	wh/0178.bmp
579.60	0.72	796	6	4	15	mem	con	mod	mod	mod	nt	ms	nh/0984_nh.bmp
580.32	0.72	797	6	4	34	per	con	mod	mod	mod	nt	fa	nh/0981_nh.bmp
581.04	0.72	798	5	4	16	mem	con	mod	mod	mod	tg	ht	wh/0955.bmp
581.76	0.72	799	6	1	86	per	con	low	mod	low	nt	cr	nh/0205_nh.bmp
582.48	0.72	800	6	2	68	per	lib	mod	mod	mod	tg	ms	wh/0942.bmp
583.20	0.72	801	5	2	5	mem	con	mod	mod	low	tg	ht	wh/0435.bmp
583.92	0.72	802	5	2	121	per	lib	low	mod	low	tg	ht	wh/0379.bmp
584.64	0.72	803	6	3	47	mem	con	mod	mod	low	tg	ms	wh/0816.bmp
585.36	0.72	804	6	2	13	mem	con	mod	mod	low	tg	ht	wh/0515.bmp
586.08	0.72	805	6	3	120	per	lib	low	mod	low	tg	ms	wh/0853.bmp
586.80	0.72	806	1	1	65	per	con	mod	low	mod	tg	ms	wh/0856.bmp
587.52	0.72	807	5	3	128	per	lib	low	mod	low	nt	cr	nh/0251_nh.bmp
588.24	0.72	808	3	1	81	per	con	low	mod	low	nt	cr	nh/0755_nh.bmp
588.96	0.72	809	6	1	97	mem	lib	mod	mod	low	nt	ht	nh/0115_nh.bmp
589.68	0.72	810	6	4	33	per	con	mod	mod	mod	nt	cr	nh/0466_nh.bmp
590.40	0.72	811	5	2	107	mem	lib	mod	mod	mod	tg	ht	wh/0596.bmp
591.12	0.72	812	4	1	81	per	con	low	mod	low	nt	cr	nh/0755_nh.bmp
591.84	0.72	813	6	2	99	mem	lib	mod	mod	mod	nt	ms	nh/0724_nh.bmp
592.56	0.72	814	6	3	23	mem	lib	mod	mod	low	tg	ht	wh/0341.bmp
593.28	0.72	815	4	2	10	mem	con	mod	mod	low	nt	ht	nh/0031_nh.bmp
594.00	0.72	816	6	2	121	per	lib	low	mod	low	tg	ht	wh/0379.bmp
594.72	0.72	817	5	2	75	per	lib	mod	mod	mod	tg	ht	wh/0884.bmp
595.44	0.72	818	5	1	81	per	con	low	mod	low	nt	cr	nh/0755_nh.bmp
596.16	0.72	819	6	4	7	mem	con	mod	mod	mod	nt	ht	nh/0935_nh.bmp
596.88	0.72	820	6	1	60	mem	con	mod	mod	mod	tg	ht	wh/0463.bmp
597.60	0.72	821	6	3	5	per	con	low	mod	low	tg	ms	wh/0156.bmp
598.32	0.72	822	5	1	99	mem	lib	mod	mod	low	nt	ht	nh/0027_nh.bmp
599.04	0.72	823	1	1	113	per	lib	low	low	low	nt	fa	nh/0790_nh.bmp
599.76	0.72	824	5	3	26	mem	lib	mod	mod	low	nt	ht	nh/0177_nh.bmp
600.48	0.72	825	6	4	69	mem	lib	mod	mod	mod	tg	ht	wh/0847.bmp
601.20	0.72	826	6	4	77	mem	lib	mod	mod	mod	tg	ht	wh/0878.bmp
601.92	0.72	827	1	2	17	mem	lib	low	low	mod	nt	ht	nh/0887_nh.bmp
602.64	0.72	828	5	3	3	per	con	low	mod	low	tg	ht	wh/0387.bmp
603.36	0.72	829	6	3	3	per	con	low	mod	low	tg	ht	wh/0387.bmp
604.08	0.72	830	6	4	37	per	con	mod	mod	mod	tg	ms	wh/0605.bmp
604.80	0.72	831	6	3	121	per	lib	low	mod	low	nt	cr	nh/0624_nh.bmp
605.52	0.72	832	5	2	10	mem	con	mod	mod	low	nt	ht	nh/0031_nh.bmp
606.24	0.72	833	6	1	82	per	con	low	mod	low	tg	ms	wh/0727.bmp
606.96	0.72	834	5	4	17	per	lib	mod	mod	mod	nt	fa	nh/0692_nh.bmp
607.68	0.72	835	5	1	58	mem	con	mod	mod	mod	nt	ms	nh/0585_nh.bmp
608.40	0.72	836	6	2	75	per	lib	mod	mod	mod	tg	ht	wh/0884.bmp
609.12	0.72	837	6	2	63	per	con	mod	mod	mod	nt	cr	nh/0189_nh.bmp
609.84	0.72	838	5	2	109	mem	lib	mod	mod	mod	nt	ht	nh/0920_nh.bmp
610.56	0.72	839	5	3	17	mem	lib	mod	mod	low	nt	ht	nh/0217_nh.bmp
611.28	0.72	840	6	4	16	mem	con	mod	mod	mod	tg	ht	wh/0955.bmp
612.00	0.72	841	6	1	81	per	con	low	mod	low	nt	cr	nh/0755_nh.bmp
612.72	0.72	842	6	3	17	mem	lib	mod	mod	low	nt	ht	nh/0217_nh.bmp
613.44	0.72	843	1	1	29	per	lib	mod	low	mod	nt	fa	nh/0228_nh.bmp
614.16	0.72	844	6	1	99	mem	lib	mod	mod	low	nt	ht	nh/0027_nh.bmp
614.88	0.72	845	6	4	26	per	lib	mod	mod	mod	nt	cr	nh/0429_nh.bmp
615.60	0.72	846	1	3	55	per	lib	mod	low	mod	tg	ht	wh/0332.bmp
616.32	0.72	847	6	2	117	per	lib	low	mod	low	nt	cr	nh/0932_nh.bmp
617.04	0.72	848	6	4	21	per	lib	mod	mod	mod	tg	ht	wh/0621.bmp
617.76	0.72	849	6	1	51	mem	con	mod	mod	mod	tg	ms	wh/0965.bmp
618.48	0.72	850	6	4	27	per	lib	mod	mod	mod	tg	ms	wh/0289.bmp
619.20	0.72	851	6	3	114	per	lib	low	mod	low	nt	cr	nh/0233_nh.bmp
619.92	0.72	852	6	2	109	mem	lib	mod	mod	mod	nt	ht	nh/0920_nh.bmp
620.64	0.72	853	6	4	68	mem	lib	mod	mod	mod	nt	ht	nh/0070_nh.bmp
621.36	0.72	854	1	4	83	mem	con	low	low	low	nt	ms	nh/0140_nh.bmp
622.08	0.72	855	1	2	24	mem	lib	low	low	mod	tg	ms	wh/0321.bmp
622.80	0.72	856	6	4	1	mem	con	mod	mod	mod	tg	ms	wh/0425.bmp
623.52	0.72	857	6	2	60	per	con	mod	mod	mod	nt	cr	nh/0274_nh.bmp
624.24	0.72	858	1	3	108	mem	lib	low	low	mod	tg	ht	wh/0326.bmp
624.96	0.72	859	6	2	5	mem	con	mod	mod	low	tg	ht	wh/0435.bmp
625.68	0.72	860	6	4	79	mem	lib	mod	mod	mod	tg	ht	wh/0580.bmp
626.40	0.72	861	1	4	59	per	con	low	low	low	nt	cr	nh/0800_nh.bmp
627.12	0.72	862	6	3	11	per	con	low	mod	low	tg	ms	wh/0766.bmp
627.84	0.72	863	5	3	127	per	lib	low	mod	low	tg	ms	wh/0769.bmp
628.56	0.72	864	5	2	6	mem	con	mod	mod	low	nt	ms	nh/0392_nh.bmp
629.28	0.72	865	6	1	50	mem	con	mod	mod	mod	tg	ms	wh/0698.bmp
630.00	0.72	866	6	4	17	per	lib	mod	mod	mod	nt	fa	nh/0692_nh.bmp
630.72	0.72	867	6	4	35	per	con	mod	mod	mod	tg	ht	wh/0391.bmp
631.44	0.72	868	5	4	40	per	con	mod	mod	mod	tg	ht	wh/0801.bmp
632.16	0.72	869	6	2	10	mem	con	mod	mod	low	nt	ht	nh/0031_nh.bmp
632.88	0.72	870	6	3	128	per	lib	low	mod	low	nt	cr	nh/0251_nh.bmp
633.60	0.72	871	6	1	58	mem	con	mod	mod	mod	nt	ms	nh/0585_nh.bmp
634.32	0.72	872	1	2	45	per	con	low	low	low	nt	cr	nh/1022_nh.bmp
635.04	0.72	873	5	3	35	mem	con	mod	mod	low	nt	ht	nh/0019_nh.bmp
635.76	0.72	874	6	2	6	mem	con	mod	mod	low	nt	ms	nh/0392_nh.bmp
636.48	0.72	875	6	2	3	mem	con	mod	mod	low	nt	ht	nh/0163_nh.bmp
637.20	0.72	876	6	3	113	per	lib	low	mod	low	nt	cr	nh/0836_nh.bmp
637.92	0.72	877	6	3	35	mem	con	mod	mod	low	nt	ht	nh/0019_nh.bmp
638.64	0.72	878	6	1	62	mem	con	mod	mod	mod	nt	ht	nh/0561_nh.bmp
639.36	0.72	879	6	3	117	per	lib	low	mod	low	tg	ms	wh/0573.bmp
640.08	0.72	880	1	4	53	per	con	low	low	low	nt	cr	nh/0464_nh.bmp
640.80	0.72	881	6	3	30	mem	lib	mod	mod	low	nt	ht	nh/0739_nh.bmp
641.52	0.72	882	6	4	12	mem	con	mod	mod	mod	tg	ms	wh/0001.bmp
642.24	0.72	883	6	2	49	per	con	mod	mod	mod	tg	ht	wh/0393.bmp
642.96	0.72	884	6	3	127	per	lib	low	mod	low	tg	ms	wh/0769.bmp
643.68	0.72	885	6	4	32	per	lib	mod	mod	mod	tg	ht	wh/0899.bmp
644.40	0.72	886	6	2	107	mem	lib	mod	mod	mod	tg	ht	wh/0596.bmp
645.12	0.72	887	6	2	127	per	lib	low	mod	low	tg	ht	wh/0704.bmp
645.84	0.72	888	6	4	40	per	con	mod	mod	mod	tg	ht	wh/0801.bmp
646.56	0.72	889	6	4	46	per	con	mod	mod	mod	nt	cr	nh/0681_nh.bmp
647.28	0.72	890	6	2	61	per	con	mod	mod	mod	tg	ht	wh/0017.bmp
648.00	0.72	891	6	2	76	per	lib	mod	mod	mod	tg	ht	wh/0637.bmp
648.72	0.72	892	6	1	63	mem	con	mod	mod	mod	nt	ht	nh/0204_nh.bmp
649.44	0.72	893	1	1	44	mem	lib	low	low	low	tg	ms	wh/0119.bmp
650.16	0.72	894	1	1	37	mem	lib	low	low	low	nt	ht	nh/0159_nh.bmp
650.88	0.72	895	6	3	26	mem	lib	mod	mod	low	nt	ht	nh/0177_nh.bmp
651.60	0.72	896	6	4	29	per	lib	mod	mod	mod	tg	ht	wh/0658.bmp
